Trial No,Stimulus,Trigger,Response,Response Time(ms),Correct,Block,Fixation Duration
Practice
OT Practice
1,SKSKS,15,1,1096,Correct,0,695
1,DLDUD,16,2,792,Correct,0,709
1,PDPGP,16,2,799,Correct,0,743
1,MWMWM,15,1,906,Correct,0,662
1,FTFTF,15,1,790,Correct,0,950
1,AXAMA,16,2,648,Correct,0,898
1,RYRGR,16,2,664,Correct,0,663
1,DODOD,15,1,532,Correct,0,698
1,QTQAQ,16,2,640,Correct,0,901
1,YEYEY,15,1,792,Correct,0,877
2,GYGDG,16,2,702,Correct,0,936
2,SWSWS,15,1,516,Correct,0,909
2,HLHUH,16,2,761,Correct,0,686
2,DEDED,15,1,547,Correct,0,774
2,ZPZOZ,16,2,709,Correct,0,703
2,ATATA,15,1,610,Correct,0,675
2,QOQOQ,15,1,913,Correct,0,715
2,FPFGF,16,2,629,Correct,0,789
2,TRTET,16,2,814,Correct,0,907
2,DQDQD,15,1,983,Correct,0,653
AT Practice
1,TKTKT,15,,,False,0,743
1,SLSUS,16,,,False,0,845
1,VZVGV,7,2,1101,False,0,799
1,XWXZX,7,2,1531,False,0,667
1,ATATA,15,3,1482,False,0,659
1,HXZMH,16,2,902,Correct,0,759
1,TZTZT,7,3,998,Correct,0,843
1,UOUOU,15,,,False,0,907
1,ZTWAW,16,2,775,Correct,0,786
1,RZRER,7,3,769,Correct,0,677
2,JYJDJ,16,2,1222,Correct,0,670
2,DWDWD,15,1,806,Correct,0,909
2,GNGNG,7,3,668,Correct,0,812
2,NEZEZ,16,2,1288,False,0,762
2,RNROR,7,2,928,False,0,724
2,QTQNQ,7,3,704,Correct,0,799
2,HOHON,15,1,1019,Correct,0,791
2,KPKGK,16,2,888,Correct,0,828
2,DRDED,16,2,886,Correct,0,905
2,LNLNL,7,3,632,Correct,0,793
4,GLGLG,15,2,1069,False,0,693
4,DTDID,16,2,827,Correct,0,746
4,SMSGS,16,2,1210,Correct,0,949
4,ZFZYZ,7,3,813,Correct,0,896
4,TSTFT,7,3,737,Correct,0,854
4,OFOFO,7,3,902,Correct,0,879
4,WYFGW,16,2,1142,Correct,0,843
4,WYWYW,15,1,796,Correct,0,818
4,MFMCM,7,3,1133,Correct,0,909
4,HQHEH,16,2,1042,Correct,0,910
Trials
1,D,5,3,10559,New Target,1,852
1,ZNZYZ,161,2,986,Correct,1,874
1,FZFZF,151,1,781,Correct,1,806
1,RKRKR,152,1,950,Correct,1,856
1,RXRNR,161,2,813,Correct,1,683
1,CNCFC,162,2,1082,Correct,1,705
1,PDPDP,7,3,934,Correct,1,928
1,CPCFC,14,2,1532,Correct,1,774
1,VLVNV,162,,,Incorrect,1,795
1,KFKFK,151,1,723,Correct,1,777
1,ZNZNZ,152,1,988,Correct,1,922
1,KCKPD,235,2,741,Correct,1,662
1,ZKZFZ,222,2,670,Correct,1,849
1,NRNZN,162,2,751,Correct,1,715
1,KXKRK,163,2,907,Correct,1,789
1,YPYZY,164,2,869,Correct,1,710
1,FKDKF,223,1,792,Correct,1,876
1,RPRPR,113,1,974,Correct,1,892
1,VRVKV,161,2,765,Correct,1,935
1,RFRPR,162,2,1030,Correct,1,893
1,KVKVK,151,1,708,Correct,1,872
1,YKYVY,161,2,637,Correct,1,914
1,VDVDV,8,1,737,Incorrect,1,663
1,DVZVZ,221,1,896,Correct,1,695
1,YFYFY,113,1,774,Correct,1,768
1,ZYZYZ,152,1,794,Correct,1,916
1,VLVXV,161,2,822,Correct,1,803
1,DPXZX,231,2,994,Correct,1,681
1,RYRYR,113,1,729,Correct,1,711
1,PDPNP,91,2,778,Incorrect,1,683
1,KXKXK,13,1,868,Correct,1,843
1,ZYZYZ,152,1,958,Correct,1,766
1,VKVKV,153,1,820,Correct,1,722
1,YZYZY,154,1,701,Correct,1,802
1,NLNZN,161,2,832,Correct,1,687
1,ZNDYZ,233,2,883,Correct,1,898
1,PCPXP,222,2,777,Correct,1,853
1,ZVZFZ,162,2,708,Correct,1,735
1,RCRZR,163,2,753,Correct,1,752
1,LRLRL,151,1,770,Correct,1,665
1,ZDZDZ,10,1,839,Incorrect,1,925
1,RNRZR,14,2,785,Correct,1,703
1,CXCYC,162,2,735,Correct,1,656
1,RCRLR,163,2,706,Correct,1,670
1,FRFRF,151,1,930,Correct,1,748
1,XFXFX,152,1,822,Correct,1,815
1,RPRLR,161,2,802,Correct,1,674
1,YXYRY,162,2,609,Correct,1,651
1,FYFYF,151,1,689,Correct,1,862
1,YZYVY,161,2,674,Correct,1,746
1,YKYKY,151,1,797,Correct,1,891
1,XRXRX,152,1,744,Correct,1,721
1,XVXZX,161,2,703,Correct,1,918
1,PDPDP,11,1,704,Incorrect,1,690
1,ZFZFZ,13,1,1101,Correct,1,780
1,PXPXP,152,1,1045,Correct,1,950
1,LYLYL,153,1,789,Correct,1,788
1,NKNKD,225,1,831,Correct,1,817
1,ZNZNZ,113,1,667,Correct,1,720
1,PYPZP,161,2,772,Correct,1,933
1,XPXPX,151,1,705,Correct,1,709
1,VLVLV,152,2,953,Incorrect,1,903
1,PKPXP,161,1,877,Incorrect,1,790
1,FZFZF,151,1,700,Correct,1,949
1,LDLDL,12,3,856,Correct,1,816
2,U,5,3,1363,New Target,2,705
2,ZVZFZ,161,2,804,Correct,2,943
2,FZFZF,151,1,702,Correct,2,835
2,RFRFR,152,1,806,Correct,2,924
2,NZNKN,161,2,798,Correct,2,847
2,FZFNF,162,2,889,Correct,2,775
2,RXRXR,151,1,721,Correct,2,768
2,KRKYK,161,2,843,Correct,2,868
2,NZNPN,162,2,870,Correct,2,733
2,XPXPX,151,1,698,Correct,2,881
2,CUCUC,7,3,666,Correct,2,758
2,RFRFR,13,1,659,Correct,2,946
2,VYVXV,161,2,789,Correct,2,747
2,VDVDV,191,1,953,Correct,2,918
2,ZKZRZ,15,2,849,Correct,2,677
2,XCXCX,151,1,714,Correct,2,733
2,CNCUC,82,3,985,Correct,2,704
2,RCRCR,13,1,793,Correct,2,893
2,ZPZXZ,161,2,773,Correct,2,711
2,FKFYF,162,2,914,Correct,2,789
2,ZFZYZ,163,2,787,Correct,2,938
2,PXPXP,151,1,780,Correct,2,797
2,URCKC,231,2,965,Correct,2,809
2,PCPCP,113,1,695,Correct,2,781
2,XNXNX,152,1,791,Correct,2,742
2,RCRZR,161,2,783,Correct,2,818
2,XVXVX,151,1,957,Correct,2,740
2,NRNRN,152,1,928,Correct,2,850
2,FPFPF,225,1,691,Correct,2,818
2,XVXFX,222,2,868,Correct,2,726
2,PRPRP,151,1,926,Correct,2,744
2,FYFCF,161,2,910,Correct,2,897
2,XUXFX,91,3,705,Correct,2,806
2,CYCVC,14,2,865,Correct,2,777
2,VDVKV,172,2,854,Correct,2,863
2,YCYCY,15,1,827,Correct,2,874
2,NKNLN,161,2,862,Correct,2,937
2,XPUKX,233,2,1016,Correct,2,711
2,ZPZPZ,113,1,905,Correct,2,840
2,KRKRK,152,1,898,Correct,2,701
2,XKXKX,153,1,869,Correct,2,921
2,YUYVY,101,3,677,Correct,2,915
2,XKXFU,235,2,1200,Correct,2,874
2,NFNFN,113,1,854,Correct,2,861
2,KDKDK,193,1,648,Correct,2,901
2,XYXKX,16,2,856,Correct,2,800
2,YZUZY,223,2,1035,Incorrect,2,938
2,KFKVK,222,2,778,Correct,2,851
2,LYLYL,151,1,839,Correct,2,741
2,CXCDC,184,2,860,Incorrect,2,860
2,XZXNX,16,2,882,Correct,2,858
2,PXPXP,151,1,739,Correct,2,946
2,ZRZYZ,161,2,816,Correct,2,797
2,PUPYP,111,3,701,Correct,2,694
2,RNRNR,14,1,792,Correct,2,831
2,KDKDK,195,1,720,Correct,2,880
2,KNKNK,15,1,712,Correct,2,867
2,PRPKP,161,2,803,Correct,2,843
2,UNYNY,221,1,913,Correct,2,674
2,NYNYN,113,1,984,Correct,2,763
2,YXYXY,152,1,901,Incorrect,2,938
2,RDRDR,196,1,792,Correct,2,825
2,FCFCF,15,1,789,Correct,2,687
2,ZKZKZ,152,1,768,Correct,2,700
2,ZUZUZ,12,3,604,Correct,2,708
3,E,5,3,2430,New Target,3,909
3,YZYZY,151,1,1267,Correct,3,726
3,VFVNV,161,2,721,Correct,3,661
3,KYKYK,151,1,765,Correct,3,829
3,NKNKN,152,1,967,Correct,3,802
3,XVXNX,161,2,948,Correct,3,906
3,RERFR,71,3,780,Correct,3,681
3,XNXNX,13,1,618,Correct,3,720
3,NXNXN,152,1,761,Correct,3,832
3,ZLZNZ,161,2,674,Correct,3,838
3,CUCNC,171,2,872,Correct,3,651
3,FYFRF,16,2,974,Correct,3,819
3,ZLZLZ,151,1,705,Correct,3,761
3,YZYZY,152,1,785,Correct,3,795
3,CYCYC,153,1,635,Correct,3,693
3,VUVUV,192,1,761,Correct,3,900
3,PXPRP,16,2,822,Correct,3,722
3,YPYPY,151,1,737,Correct,3,790
3,CECEC,8,3,669,Correct,3,752
3,VNENV,223,1,1097,Correct,3,870
3,KRKFK,222,2,736,Correct,3,936
3,XLXLE,225,1,687,Correct,3,702
3,RFRUR,183,2,991,Correct,3,713
3,XRXLX,16,2,851,Correct,3,717
3,NZNPN,162,2,762,Correct,3,787
3,XZXZX,151,1,692,Correct,3,841
3,FZFZF,152,1,838,Correct,3,679
3,PFPFP,153,1,909,Correct,3,840
3,YZYXY,161,2,929,Correct,3,886
3,KEKEK,9,3,1109,Correct,3,777
3,CXCPC,14,2,798,Correct,3,896
3,VXVXV,151,1,811,Correct,3,673
3,NUNZN,174,2,762,Correct,3,662
3,RKRVR,16,2,819,Correct,3,807
3,XRXRX,151,1,665,Correct,3,836
3,ERNFN,231,2,908,Incorrect,3,677
3,YRYNY,222,2,853,Correct,3,778
3,PZPEP,102,3,971,Correct,3,775
3,ZYZXZ,14,2,898,Correct,3,720
3,RZRVR,162,2,962,Correct,3,908
3,XRXRX,151,1,694,Correct,3,737
3,KUKFK,175,2,725,Correct,3,733
3,RKRKR,15,1,691,Correct,3,683
3,ZFZFZ,152,1,965,Correct,3,747
3,YZYVY,161,2,713,Correct,3,770
3,XPXNX,162,2,725,Correct,3,876
3,YRYRY,151,1,718,Correct,3,853
3,EPVPV,221,1,1201,Correct,3,660
3,CRCEC,112,3,795,Correct,3,811
3,RFRCR,14,2,825,Correct,3,660
3,CPCVC,162,2,802,Correct,3,823
3,RXRCR,163,2,714,Correct,3,816
3,VNVLV,164,2,760,Correct,3,781
3,ZXZXZ,151,1,724,Correct,3,796
3,ZCZCZ,152,1,784,Correct,3,849
3,PYPUP,186,2,728,Correct,3,868
3,YKYPY,16,2,771,Correct,3,784
3,YREXY,233,2,891,Correct,3,930
3,ZKZKZ,113,1,773,Correct,3,664
3,XLXNX,161,2,876,Correct,3,864
3,KFKRE,235,2,894,Correct,3,924
3,RXRLR,222,2,804,Correct,3,793
3,RERXR,121,3,953,Correct,3,880
4,J,5,3,1318,New Target,4,896
4,CYCVC,161,2,805,Correct,4,917
4,RXRCR,162,2,911,Correct,4,799
4,FPFVF,163,2,823,Correct,4,759
4,LZLZL,151,1,639,Correct,4,773
4,PLPLP,152,1,940,Correct,4,831
4,NPNPN,153,1,892,Correct,4,915
4,XZXZX,161,1,711,Incorrect,4,651
4,CNCKC,162,2,823,Correct,4,766
4,PCPYJ,235,2,974,Correct,4,843
4,VYVYV,113,1,575,Correct,4,832
4,RLRLR,152,1,591,Correct,4,846
4,CJCJC,7,3,461,Correct,4,930
4,ZLZLZ,13,1,841,Correct,4,660
4,FZFZF,152,1,603,Correct,4,922
4,CFCFC,153,1,679,Correct,4,898
4,PZPZP,154,1,613,Correct,4,845
4,XEXEX,191,1,593,Correct,4,909
4,NVNFN,16,2,867,Correct,4,764
4,KYKYK,151,1,808,Correct,4,861
4,ZNZVZ,161,2,772,Correct,4,651
4,YVJXY,233,2,1142,Correct,4,658
4,XFXFX,113,1,691,Correct,4,769
4,XNXNX,152,1,770,Correct,4,783
4,FJFKF,81,3,686,Correct,4,737
4,CZCYC,14,2,806,Correct,4,945
4,ZXZCZ,162,2,791,Correct,4,663
4,RYRYJ,225,1,868,Correct,4,721
4,FPFZF,222,2,811,Correct,4,753
4,XRXRX,151,1,610,Correct,4,905
4,YPYEY,182,2,840,Correct,4,682
4,XRXRX,15,1,672,Correct,4,757
4,XZXPX,161,2,751,Correct,4,811
4,CJCJC,9,3,974,Correct,4,680
4,ZXZVZ,14,2,741,Correct,4,712
4,VKVKV,151,1,868,Correct,4,751
4,VEVNV,173,2,729,Correct,4,908
4,ZKZVZ,16,2,739,Correct,4,863
4,XVXJX,102,3,699,Correct,4,827
4,RXRVR,14,2,822,Correct,4,827
4,LRLRL,151,1,784,Correct,4,830
4,YNJNY,223,2,906,Incorrect,4,725
4,NPNJN,222,3,1247,Incorrect,4,874
4,ZEZEZ,194,1,586,Correct,4,720
4,ZNZNZ,15,1,701,Correct,4,722
4,YZYZY,152,1,781,Correct,4,696
4,XYXYX,153,1,789,Correct,4,879
4,ZXZXZ,221,1,852,Correct,4,660
4,LYLZL,222,2,1099,Correct,4,871
4,CYCNC,162,2,970,Correct,4,774
4,XEXEX,195,1,860,Correct,4,867
4,CVCXC,16,2,1061,Correct,4,739
4,ZPZXZ,162,2,883,Correct,4,856
4,FZFZF,151,1,825,Correct,4,822
4,RXRJR,112,3,907,Correct,4,940
4,PRPFP,14,2,909,Correct,4,882
4,PKPEP,186,2,926,Correct,4,934
4,XZXPX,16,2,1171,Correct,4,783
4,JCZVZ,231,1,1010,Incorrect,4,702
4,RXRLR,222,2,854,Correct,4,718
4,VZVZV,151,1,815,Correct,4,745
4,XJXJX,12,3,820,Correct,4,943
5,I,5,3,4165,New Target,5,846
5,PCPCP,151,1,743,Correct,5,845
5,XYXYX,152,1,743,Correct,5,682
5,VXVXV,153,1,621,Correct,5,908
5,XVXVX,154,1,669,Correct,5,836
5,ZRZXZ,161,2,765,Correct,5,735
5,FPFZF,162,,,Incorrect,5,656
5,ZYZYZ,151,1,649,Correct,5,757
5,RVRZR,161,2,791,Correct,5,794
5,CICIC,7,3,758,Correct,5,705
5,XLXLX,13,1,876,Correct,5,864
5,YVYVY,152,1,961,Correct,5,886
5,CJCJC,191,3,677,Incorrect,5,806
5,FNFCF,16,2,848,Correct,5,900
5,PVPRP,162,2,1037,Correct,5,664
5,FZFZF,151,1,898,Correct,5,675
5,NVIVN,223,1,982,Correct,5,809
5,CVCIC,82,3,824,Correct,5,820
5,ZXZXZ,13,1,865,Correct,5,781
5,FCFZF,161,2,837,Correct,5,866
5,IXRXR,221,1,1002,Correct,5,859
5,ZPZNZ,222,2,861,Correct,5,822
5,VZVZV,151,1,801,Correct,5,906
5,YRYNY,161,2,945,Correct,5,660
5,VNVPV,162,2,896,Correct,5,945
5,RVRJR,182,2,1000,Correct,5,764
5,VRVRV,15,1,758,Correct,5,884
5,VIVIV,9,3,855,Correct,5,682
5,CXCVC,14,2,931,Correct,5,700
5,PZPZP,151,1,808,Correct,5,759
5,IXVKV,231,1,1030,Incorrect,5,711
5,YJYCY,173,2,884,Incorrect,5,819
5,VYVYV,15,1,745,Correct,5,855
5,YVYVY,152,1,727,Correct,5,770
5,NVNVN,153,1,868,Correct,5,794
5,XYXVX,161,2,859,Correct,5,783
5,NJNCN,174,2,964,Correct,5,733
5,NXNYN,16,2,673,Correct,5,936
5,VXVCV,162,2,635,Correct,5,923
5,ZKZKZ,151,1,662,Correct,5,882
5,XRXYX,161,2,848,Correct,5,918
5,ZCZXZ,162,2,786,Correct,5,903
5,KVKYI,235,2,1099,Correct,5,808
5,CNCNC,113,1,788,Correct,5,882
5,RIRIR,10,3,1084,Correct,5,822
5,VYVXV,14,2,742,Correct,5,876
5,FXIRF,233,2,1317,Correct,5,704
5,PFPFP,113,1,861,Correct,5,689
5,VPVPV,152,1,708,Correct,5,831
5,ZJZJZ,195,1,989,Correct,5,913
5,ZVZNZ,16,2,851,Correct,5,672
5,YVYXY,162,2,959,Correct,5,712
5,PRPRP,151,1,1062,Correct,5,669
5,YPYPY,152,1,889,Correct,5,714
5,ZIZPZ,111,3,879,Correct,5,808
5,NKNXN,14,2,937,Correct,5,689
5,RZRXR,162,2,799,Correct,5,791
5,RXRXR,151,1,751,Correct,5,669
5,ZJZJZ,196,1,925,Correct,5,692
5,CVCVI,225,1,931,Incorrect,5,767
5,NKNKN,113,1,829,Correct,5,651
5,NRNZN,161,2,806,Correct,5,810
5,CNCNC,151,1,787,Correct,5,678
5,RFRIR,122,3,770,Correct,5,667
6,B,5,3,3294,New Target,6,881
6,YKYZY,161,2,806,Correct,6,658
6,VCVRV,162,2,611,Correct,6,664
6,XVXVX,151,1,770,Correct,6,882
6,KZKRK,161,2,681,Correct,6,848
6,ZVZXZ,162,2,729,Correct,6,797
6,RCRNR,163,2,873,Correct,6,746
6,CXCRC,164,2,780,Correct,6,888
6,VNBCV,233,2,972,Correct,6,659
6,CXCVC,222,2,827,Correct,6,932
6,RFRFR,151,1,672,Correct,6,931
6,XPXRX,161,2,946,Correct,6,723
6,RYRBR,72,3,898,Correct,6,895
6,ZKZKZ,13,1,854,Correct,6,851
6,FIFRF,171,3,826,Incorrect,6,896
6,VZVLV,16,2,640,Correct,6,813
6,RPRVR,162,2,1125,Correct,6,707
6,YBYBY,8,3,804,Correct,6,740
6,PYPVP,14,2,816,Correct,6,742
6,NININ,192,1,1084,Correct,6,706
6,RNRNR,15,1,686,Correct,6,681
6,NXNVN,161,2,876,Correct,6,793
6,RNRNR,151,1,657,Correct,6,828
6,FRFVF,161,2,844,Correct,6,859
6,YVYFB,235,2,867,Incorrect,6,795
6,ZRZXZ,222,2,813,Correct,6,759
6,VNVIV,193,2,835,Incorrect,6,886
6,PXPNP,16,2,747,Correct,6,784
6,ZXZPZ,162,2,624,Correct,6,917
6,VBVBV,9,3,781,Correct,6,839
6,CXCXC,13,1,989,Correct,6,678
6,PCPFP,161,2,788,Correct,6,698
6,KNKNK,151,1,883,Correct,6,686
6,XIXIX,194,1,893,Correct,6,700
6,CYCYC,15,1,646,Correct,6,718
6,FVFYF,161,2,754,Correct,6,887
6,YNYRY,162,2,781,Correct,6,811
6,BVPXP,231,2,886,Correct,6,839
6,NXNXN,113,1,715,Correct,6,812
6,FRFRF,152,1,804,Correct,6,892
6,YVYVY,153,1,716,Correct,6,873
6,ZKZCZ,161,2,804,Correct,6,858
6,VIVXV,175,2,881,Correct,6,679
6,PRBRP,223,1,1082,Correct,6,687
6,YZYBY,102,3,860,Correct,6,748
6,CXCVC,14,2,1065,Correct,6,672
6,FYFYF,151,1,669,Correct,6,658
6,VKVXV,161,2,880,Correct,6,735
6,ZBZBZ,11,3,740,Correct,6,820
6,FPFNF,14,2,867,Correct,6,683
6,CXCXC,151,1,665,Correct,6,834
6,YCYCY,152,1,612,Correct,6,918
6,FPFPF,153,1,712,Correct,6,699
6,CVCVB,225,1,874,Correct,6,652
6,ZCZCZ,113,1,676,Correct,6,744
6,CZCNC,161,2,705,Correct,6,857
6,KIKFK,176,2,769,Correct,6,754
6,PXPXP,15,1,590,Correct,6,762
6,RYRYR,152,1,660,Correct,6,722
6,ZRZCZ,161,2,545,Correct,6,822
6,RVRVR,151,1,549,Correct,6,817
6,XYXNX,161,2,698,Correct,6,747
6,BVKVK,221,2,709,Incorrect,6,849
6,CBCBC,12,3,821,Correct,6,687
7,W,5,3,7127,New Target,7,719
7,RKRKR,151,1,861,Correct,7,807
7,CVCRC,161,2,768,Correct,7,945
7,PKPKP,151,1,623,Correct,7,780
7,FPFPF,152,1,746,Correct,7,886
7,VRVPV,161,2,961,Correct,7,919
7,ZKZYZ,162,2,1041,Correct,7,918
7,PVPCP,233,2,932,Correct,7,729
7,KVKVK,113,1,954,Correct,7,783
7,YXYVY,161,2,844,Correct,7,837
7,FNFNF,151,1,887,Correct,7,745
7,YWYWY,7,3,808,Correct,7,899
7,ZYZYZ,13,1,801,Correct,7,828
7,PYPYP,152,1,782,Correct,7,719
7,XRXRX,153,1,760,Correct,7,782
7,PXPXP,154,1,1349,Correct,7,753
7,FCFBF,181,2,1019,Correct,7,761
7,FVFVF,15,1,908,Correct,7,833
7,CYCZC,161,2,779,Correct,7,939
7,XZXVX,162,2,787,Correct,7,887
7,PFPFP,151,1,652,Correct,7,794
7,RVRLR,161,2,843,Correct,7,845
7,ZBZBZ,192,1,844,Correct,7,934
7,VCVNV,16,2,727,Correct,7,759
7,NWNWN,8,3,769,Correct,7,817
7,XNXVX,14,2,910,Correct,7,731
7,CXCNC,162,2,1037,Correct,7,945
7,YVYVW,225,1,834,Correct,7,718
7,VFVFV,113,1,774,Correct,7,948
7,VFWFV,223,1,1023,Correct,7,813
7,CVCFC,222,2,709,Correct,7,662
7,YBYBY,193,1,782,Correct,7,865
7,PYPYP,15,1,698,Correct,7,752
7,NKNWN,91,3,738,Correct,7,923
7,VNVNV,13,1,764,Correct,7,911
7,RVRVR,152,1,684,Correct,7,652
7,FVFBF,184,2,800,Incorrect,7,675
7,VZVKV,16,2,887,Correct,7,837
7,VPVCV,162,2,808,Correct,7,902
7,WYZCZ,231,2,978,Correct,7,755
7,PFPFP,113,1,1146,Correct,7,688
7,PRPRP,152,1,705,Correct,7,914
7,NWNWN,10,3,850,Correct,7,746
7,VKVCV,14,2,744,Correct,7,795
7,WPYPY,221,1,694,Correct,7,773
7,VBVBV,195,1,753,Correct,7,839
7,ZKZYZ,16,2,755,Correct,7,653
7,XYXYX,151,1,865,Correct,7,707
7,FZFXF,161,2,683,Correct,7,739
7,XKXKX,151,1,908,Correct,7,718
7,XPXPX,152,1,832,Correct,7,922
7,FWFWF,11,3,625,Correct,7,937
7,FNFBF,186,2,1348,Correct,7,730
7,ZVZYZ,16,2,938,Correct,7,720
7,FZFZF,151,1,736,Correct,7,729
7,NPNFW,235,2,906,Correct,7,849
7,PCPCP,113,1,659,Correct,7,747
7,NKNWN,122,3,655,Correct,7,880
8,M,5,3,3227,New Target,8,883
8,VYVNV,161,2,946,Correct,8,803
8,KLKNK,162,2,742,Correct,8,831
8,NRNRN,151,1,776,Correct,8,656
8,VNVFV,161,2,683,Correct,8,907
8,XNXNM,225,1,868,Correct,8,934
8,CXCVC,222,2,720,Correct,8,683
8,KRKZK,162,2,718,Correct,8,777
8,NMNFN,71,3,861,Correct,8,757
8,ZFZFZ,13,1,803,Correct,8,779
8,YPYCY,161,2,780,Correct,8,819
8,KCKCK,151,1,806,Correct,8,796
8,VNVNV,152,1,816,Correct,8,730
8,LXLXL,153,1,780,Correct,8,771
8,CLCLC,154,1,593,Correct,8,949
8,NYNYN,155,1,622,Correct,8,905
8,LCMYL,233,2,700,Correct,8,888
8,NCNCN,113,1,727,Correct,8,882
8,ZVZRZ,161,2,807,Correct,8,740
8,ZVZVZ,151,1,685,Correct,8,901
8,PZPVP,161,2,868,Correct,8,949
8,PWPNP,171,2,812,Correct,8,754
8,KLKCM,235,2,936,Correct,8,719
8,XMXMX,8,3,762,Correct,8,856
8,PRPXP,14,2,805,Correct,8,781
8,CVCYC,162,2,746,Correct,8,875
8,PXPMP,92,3,745,Correct,8,739
8,ZCZLZ,14,2,630,Correct,8,811
8,XWXWX,192,1,1194,Correct,8,692
8,ZCZLZ,16,2,713,Correct,8,749
8,MNCYC,231,2,1043,Correct,8,839
8,ZXZXZ,113,1,658,Correct,8,811
8,YRYNY,161,2,674,Correct,8,818
8,ZLZPZ,162,2,699,Correct,8,876
8,VZVZV,151,1,779,Correct,8,725
8,MXPXP,221,1,840,Correct,8,773
8,VWVWV,193,1,959,Correct,8,828
8,PYPYP,16,1,628,Incorrect,8,755
8,XPXVX,162,2,984,Correct,8,749
8,XLXLX,151,1,712,Correct,8,825
8,YMYMY,10,3,687,Correct,8,933
8,VYVYV,13,1,584,Correct,8,893
8,PWPZP,174,2,675,Correct,8,944
8,PYPKP,16,2,799,Correct,8,838
8,NPNXN,162,2,758,Correct,8,816
8,KVKVK,223,1,1014,Correct,8,654
8,NVNFN,222,2,985,Correct,8,777
8,XNXNX,151,1,617,Correct,8,878
8,YZYMY,112,3,647,Correct,8,832
8,PFPFP,13,1,577,Correct,8,906
8,ZWZWZ,195,1,750,Correct,8,942
8,PCPZP,16,2,642,Correct,8,938
8,LRLPL,162,2,993,Correct,8,857
8,CZCZC,151,1,596,Correct,8,781
8,NZNZN,152,1,743,Correct,8,710
8,CVCXC,161,2,705,Correct,8,775
8,XCXCX,151,1,706,Correct,8,731
8,YWYWY,196,1,810,Correct,8,884
8,NLNLN,15,1,1027,Correct,8,817
8,VNVNV,152,1,809,Correct,8,659
8,ZMZMZ,12,3,786,Correct,8,775
9,S,5,3,1748,New Target,9,739
9,NZNZN,151,1,1000,Correct,9,726
9,KVKZK,161,2,720,Correct,9,675
9,LZLZL,151,1,666,Correct,9,863
9,XLXLX,152,1,789,Correct,9,919
9,ZXZXZ,153,1,654,Correct,9,815
9,KNKZK,161,2,701,Correct,9,822
9,NRNYN,162,2,700,Correct,9,723
9,CLCVC,163,2,804,Correct,9,872
9,ZCZFZ,164,2,797,Correct,9,846
9,NSNSN,7,3,808,Correct,9,705
9,VZVZV,13,1,766,Correct,9,878
9,NVNCN,161,2,781,Correct,9,708
9,VMVMV,191,1,956,Correct,9,696
9,CVCXC,16,2,743,Correct,9,674
9,ZYZRZ,162,2,980,Correct,9,719
9,XNXZX,163,2,792,Correct,9,788
9,PXPXP,151,1,679,Correct,9,672
9,VCVSV,82,3,874,Correct,9,711
9,PRPCP,14,2,740,Correct,9,669
9,ZMZMZ,192,1,800,Incorrect,9,819
9,ZFZFZ,15,1,729,Correct,9,774
9,FCFCF,152,1,737,Correct,9,939
9,YLYZY,161,2,720,Correct,9,674
9,KNKVK,162,2,753,Correct,9,684
9,SFPCP,231,2,833,Correct,9,652
9,RPRPR,113,1,936,Correct,9,803
9,XMXMX,193,1,745,Correct,9,885
9,KFKFK,15,1,757,Correct,9,827
9,VSVSV,9,3,657,Correct,9,757
9,YVSVY,223,1,1038,Correct,9,881
9,VPVPV,113,1,705,Correct,9,786
9,XZXZX,152,1,683,Correct,9,922
9,KZKXK,161,2,793,Correct,9,786
9,RFRPR,162,2,719,Correct,9,931
9,NVNVS,225,1,795,Correct,9,830
9,ZXZXZ,113,1,720,Correct,9,893
9,SRVRV,221,1,854,Correct,9,944
9,YCYCY,113,1,719,Correct,9,727
9,KMKZK,174,2,833,Correct,9,667
9,FZSVF,233,2,1178,Correct,9,750
9,VYVYV,113,1,604,Correct,9,657
9,LVLVL,152,1,682,Correct,9,912
9,YFYFY,153,1,678,Correct,9,867
9,NXNSN,102,3,823,Correct,9,735
9,FNFCF,14,2,740,Correct,9,683
9,KVKVK,151,1,533,Correct,9,715
9,VZVCV,161,2,712,Correct,9,827
9,ZYZMZ,185,2,856,Correct,9,666
9,VXVZV,16,2,733,Correct,9,828
9,VPVPV,151,1,647,Correct,9,888
9,RVRNS,235,2,764,Correct,9,652
9,YZYZY,113,1,615,Correct,9,821
9,ZSZSZ,11,3,680,Correct,9,794
9,FRFRF,13,1,945,Correct,9,917
9,ZMZMZ,196,1,933,Correct,9,765
9,NZNXN,16,2,773,Correct,9,933
9,LSLFL,121,3,942,Correct,9,799
10,Q,5,3,3223,New Target,10,794
10,ZVZPZ,161,2,741,Correct,10,739
10,RZRZR,151,1,591,Correct,10,782
10,ZFZFZ,152,1,608,Correct,10,846
10,RZRZR,153,1,566,Correct,10,696
10,PZPXP,161,2,710,Correct,10,871
10,VFQPV,233,2,999,Correct,10,691
10,ZPZRZ,222,1,558,Incorrect,10,710
10,CYCVC,162,2,688,Correct,10,820
10,CPCPC,151,1,670,Correct,10,835
10,YZYQY,72,3,810,Correct,10,913
10,FVFXF,14,2,724,Correct,10,733
10,YNYNQ,225,1,699,Correct,10,881
10,ZYZYZ,113,1,601,Correct,10,763
10,FRFSF,181,2,853,Incorrect,10,888
10,XNXPX,16,2,721,Correct,10,679
10,NXNXN,151,1,731,Correct,10,787
10,PVPZP,161,2,722,Correct,10,923
10,XVXPX,162,2,781,Correct,10,834
10,FXFVF,163,2,804,Correct,10,836
10,NSNKN,172,2,768,Incorrect,10,728
10,VXVNV,16,2,716,Correct,10,790
10,XZXZX,151,1,1143,Correct,10,823
10,VQVQV,8,3,646,Correct,10,737
10,ZYZPZ,14,2,659,Correct,10,836
10,PZPSP,183,2,860,Correct,10,936
10,YVYVY,15,1,785,Correct,10,878
10,NCNQN,92,3,857,Correct,10,839
10,FCFVF,14,2,820,Correct,10,693
10,ZFZFZ,151,1,765,Correct,10,790
10,NSNSN,194,1,986,Correct,10,767
10,YPYFY,16,2,783,Correct,10,774
10,ZKZKZ,151,1,598,Correct,10,888
10,QZRCR,231,2,1095,Correct,10,838
10,YPYVY,222,2,743,Correct,10,727
10,ZNZNZ,151,1,531,Correct,10,751
10,VQVQV,10,3,613,Correct,10,889
10,RVRZR,14,2,869,Correct,10,844
10,KRKSK,185,2,922,Correct,10,813
10,NPNPN,15,1,641,Correct,10,682
10,YPYPY,152,1,576,Correct,10,871
10,VCVYV,161,2,612,Correct,10,781
10,FPFNF,162,2,747,Correct,10,663
10,QVXVX,221,2,904,Incorrect,10,739
10,ZVZRZ,222,2,1242,Correct,10,849
10,LFLFL,151,1,592,Correct,10,857
10,VLVLV,152,1,707,Correct,10,747
10,KXQXK,223,1,1041,Correct,10,725
10,YQYQY,11,3,508,Correct,10,906
10,YCYCY,13,1,669,Correct,10,931
10,PZPYP,161,2,703,Correct,10,713
10,LPLFL,162,2,974,Correct,10,766
10,VSVSV,196,1,661,Correct,10,702
10,VFVYQ,235,2,909,Correct,10,920
10,CZCXC,222,2,754,Correct,10,753
10,PVPCP,162,2,1009,Correct,10,683
10,CXCXC,151,1,718,Correct,10,924
10,NZNZN,152,1,684,Correct,10,812
10,YPYCY,161,2,614,Correct,10,834
10,ZQZQZ,12,3,626,Correct,10,935
11,T,5,3,2510,New Target,11,721
11,KFKFK,151,1,829,Correct,11,869
11,LZLZL,152,1,771,Correct,11,791
11,PFPVP,161,2,732,Correct,11,815
11,FRFPF,162,2,1065,Correct,11,777
11,FZFZF,151,1,563,Correct,11,922
11,VTVTV,7,1,754,Incorrect,11,896
11,KYKCK,14,2,846,Correct,11,768
11,VPVPV,151,1,585,Correct,11,705
11,XQXQX,191,1,1109,Correct,11,931
11,PZPYP,16,2,897,Correct,11,809
11,KXKLK,162,2,725,Correct,11,798
11,TCNCN,221,1,913,Correct,11,851
11,PZPNP,222,2,770,Correct,11,927
11,RCRPR,162,2,807,Correct,11,883
11,PZPRT,235,2,1153,Correct,11,792
11,XFXVX,222,2,720,Correct,11,720
11,LTLVL,81,3,838,Correct,11,937
11,ZCZPZ,14,2,777,Correct,11,948
11,NCNQN,182,2,738,Correct,11,846
11,XZXNX,16,2,688,Correct,11,765
11,ZPZPZ,151,1,839,Correct,11,938
11,CFCFC,152,1,653,Correct,11,894
11,VXTRV,233,2,890,Correct,11,833
11,CFCVC,222,2,834,Correct,11,797
11,PYPYP,151,1,570,Correct,11,806
11,FQFYF,173,2,991,Correct,11,768
11,CNCFC,16,2,818,Correct,11,735
11,PTPTP,9,3,812,Correct,11,764
11,ZCZCZ,13,1,869,Correct,11,758
11,KZKZK,152,1,613,Correct,11,942
11,RLRVR,161,2,771,Correct,11,891
11,ZRZKZ,162,2,731,Correct,11,827
11,KLKLT,225,1,821,Correct,11,860
11,ZQZQZ,194,1,807,Correct,11,938
11,VZVZV,15,1,705,Correct,11,838
11,RVRZR,161,2,1065,Correct,11,898
11,ZPZCZ,162,2,788,Correct,11,944
11,VYVYV,151,1,843,Correct,11,898
11,RVRVR,152,1,735,Correct,11,933
11,PTPTP,10,3,605,Correct,11,805
11,PXPXP,13,1,792,Correct,11,879
11,KCKCK,152,1,591,Correct,11,832
11,YVYVY,153,1,838,Correct,11,685
11,CYCYC,154,1,589,Correct,11,872
11,XCXCX,155,1,553,Correct,11,898
11,CYCQC,185,2,828,Correct,11,773
11,KCKNK,16,2,799,Correct,11,926
11,VPVPV,151,1,602,Correct,11,756
11,TXFZF,231,2,624,Correct,11,687
11,NYNVN,222,2,990,Correct,11,941
11,VQVXV,176,2,955,Correct,11,912
11,ZRZRZ,15,1,689,Correct,11,780
11,VTVZV,111,3,709,Correct,11,676
11,PXPVP,14,2,712,Correct,11,681
11,FVFVF,151,1,744,Correct,11,674
11,VRVLV,161,2,823,Correct,11,781
11,YCYCY,151,1,554,Correct,11,907
11,XZTZX,223,1,737,Correct,11,674
11,VTVTV,12,3,731,Correct,11,851
12,O,5,3,2773,New Target,12,733
12,VXVLV,161,2,1227,Correct,12,945
12,KVKCK,162,2,657,Correct,12,882
12,VLVLV,151,1,591,Correct,12,829
12,ZCZVZ,161,2,592,Correct,12,849
12,KFKFK,151,1,721,Correct,12,812
12,XKXKX,152,1,734,Correct,12,747
12,YXYXY,153,1,798,Correct,12,727
12,FVFVF,154,1,644,Correct,12,923
12,PVPOP,72,3,833,Correct,12,920
12,ZXZYZ,14,2,771,Correct,12,940
12,PXPVP,162,2,783,Correct,12,810
12,ZTZTZ,191,1,696,Correct,12,852
12,CVCKC,16,2,982,Correct,12,757
12,CKCKC,151,1,716,Correct,12,710
12,NPNPN,152,1,797,Correct,12,707
12,ZRZNZ,161,2,617,Correct,12,719
12,OZCZC,221,1,1048,Correct,12,880
12,LFLFL,113,1,889,Correct,12,705
12,CXCXC,152,1,764,Correct,12,927
12,KPKPK,153,1,801,Correct,12,950
12,FRFKF,161,2,791,Correct,12,889
12,FOFOF,8,3,806,Correct,12,681
12,ZFZFZ,13,1,688,Correct,12,738
12,LKLZO,235,2,993,Correct,12,665
12,KLKZK,222,2,945,Correct,12,829
12,YXYCY,162,2,1044,Correct,12,839
12,LOLOL,9,3,595,Correct,12,810
12,XLXLX,13,1,740,Correct,12,876
12,XVXVX,152,1,834,Correct,12,737
12,FTFTF,192,1,758,Correct,12,888
12,OXNZN,231,2,934,Correct,12,684
12,CZCZC,113,1,616,Correct,12,878
12,LZLZL,152,1,573,Correct,12,651
12,VLVPV,161,2,753,Correct,12,724
12,VYVYO,225,1,822,Correct,12,921
12,XKXKX,113,1,1051,Correct,12,903
12,RTRTR,193,1,710,Correct,12,910
12,KVKCK,16,2,807,Correct,12,707
12,ROROR,101,3,594,Correct,12,824
12,PRPRP,13,1,835,Correct,12,789
12,LYLVL,161,2,718,Correct,12,658
12,PLPLP,151,1,640,Correct,12,665
12,CTCTC,194,1,555,Correct,12,912
12,XZXYX,16,2,1036,Correct,12,832
12,NKNKN,151,1,879,Correct,12,742
12,VLVZV,161,2,662,Correct,12,770
12,YOYOY,11,3,611,Correct,12,804
12,PZOZP,223,1,784,Correct,12,860
12,FYFYF,113,1,568,Correct,12,824
12,ZXZVZ,161,2,870,Correct,12,891
12,VKVZV,162,2,775,Correct,12,940
12,ZTZTZ,195,1,580,Correct,12,766
12,LKLZL,16,2,918,Correct,12,820
12,KCKVK,162,2,729,Correct,12,820
12,PXPKP,163,2,950,Correct,12,808
12,KCOZK,233,2,1167,Correct,12,670
12,FKFKF,113,1,707,Correct,12,948
12,CTCRC,176,2,919,Correct,12,680
12,NXNXN,15,1,809,Correct,12,927
12,KXKVK,161,2,792,Correct,12,668
12,CPCOC,122,3,757,Correct,12,765
13,H,5,3,2038,New Target,13,770
13,VFVNV,151,2,1249,Incorrect,13,781
13,YVYVY,152,1,603,Correct,13,734
13,XVXVX,153,1,782,Correct,13,703
13,NRNXN,161,2,693,Correct,13,919
13,PZPKP,162,2,757,Correct,13,746
13,HLVLV,221,1,995,Correct,13,725
13,CXCZC,222,2,744,Correct,13,684
13,LHLYL,71,3,645,Correct,13,804
13,YKYFY,14,2,755,Correct,13,839
13,YOYRY,171,2,783,Correct,13,791
13,ZKZYZ,16,2,744,Correct,13,880
13,RZRZR,151,1,564,Correct,13,763
13,NFNYN,161,2,803,Correct,13,824
13,KVKFK,162,2,786,Correct,13,671
13,XFXYX,163,2,631,Correct,13,922
13,LKLVL,164,2,843,Correct,13,678
13,NLNLN,151,1,784,Correct,13,845
13,XCXOX,182,2,1165,Correct,13,696
13,FXFXF,15,1,729,Correct,13,764
13,VHVHV,8,3,519,Correct,13,689
13,PVPVP,13,1,609,Correct,13,696
13,CRCXC,161,2,816,Correct,13,858
13,NXNXN,151,1,631,Correct,13,815
13,XRXRX,152,1,554,Correct,13,682
13,YFYXY,161,2,617,Correct,13,878
13,ZOZOZ,193,1,1087,Correct,13,651
13,RZRZR,15,1,609,Correct,13,706
13,FKFKF,152,1,661,Correct,13,693
13,PFPFP,153,1,586,Correct,13,673
13,XYXHX,92,3,789,Correct,13,950
13,RZRKR,14,2,866,Correct,13,687
13,FLFLH,225,1,952,Correct,13,856
13,KRKRK,113,1,672,Correct,13,668
13,ZVZNZ,161,2,845,Correct,13,789
13,ZOZOZ,194,1,484,Correct,13,820
13,FZFZF,15,1,629,Correct,13,911
13,FHFKF,101,3,903,Correct,13,714
13,ZXHLZ,233,2,1040,Correct,13,709
13,FKFXF,222,2,971,Correct,13,933
13,CFCYC,162,2,974,Correct,13,820
13,ZXZVZ,163,2,735,Correct,13,799
13,KCKOK,185,2,990,Correct,13,659
13,ZXZVH,235,2,961,Correct,13,775
13,CKCKC,113,1,917,Correct,13,715
13,ZXZCZ,161,2,762,Correct,13,815
13,YVYVY,151,1,744,Correct,13,671
13,RVHVR,223,1,946,Correct,13,894
13,ZRZRZ,113,1,552,Correct,13,707
13,ZHZHZ,11,3,684,Correct,13,802
13,VZVZV,13,1,719,Correct,13,699
13,HZVRV,231,2,970,Correct,13,776
13,FVFVF,113,1,622,Correct,13,774
13,RNRCR,161,2,750,Correct,13,789
13,COCOC,196,1,763,Correct,13,719
13,VNVXV,16,2,930,Correct,13,938
13,XHXHX,12,3,586,Correct,13,726
14,G,5,3,1245,New Target,14,747
14,FZFZF,151,1,674,Correct,14,655
14,RPRVR,161,2,641,Correct,14,760
14,XCXCX,151,1,597,Correct,14,702
14,YXYXY,152,1,634,Correct,14,724
14,KZKZK,153,1,521,Correct,14,750
14,RYRKR,161,2,714,Correct,14,858
14,FYFNF,162,2,721,Correct,14,913
14,VKVKV,151,1,799,Correct,14,806
14,KPGPK,223,1,1052,Correct,14,671
14,YNYNY,113,1,552,Correct,14,940
14,VYVYV,152,1,613,Correct,14,935
14,YCYXY,161,2,660,Correct,14,860
14,LKLGL,72,3,647,Correct,14,735
14,VXVXV,13,1,616,Correct,14,722
14,KCKVK,161,2,718,Correct,14,655
14,YKYKY,151,1,458,Correct,14,820
14,RHRXR,171,2,846,Correct,14,902
14,FVFCF,16,2,824,Correct,14,707
14,YXYGY,82,3,495,Correct,14,838
14,CLCLC,13,1,679,Correct,14,688
14,ZXZCZ,161,2,725,Correct,14,860
14,VLVFV,162,2,808,Correct,14,668
14,CPCPG,225,1,989,Correct,14,880
14,KHKNK,172,2,1169,Correct,14,765
14,ZKZVZ,16,2,776,Correct,14,884
14,YKYLY,162,2,687,Correct,14,893
14,CNCNC,151,1,778,Correct,14,860
14,PGPGP,9,3,709,Correct,14,727
14,VPVPV,13,1,658,Correct,14,872
14,FXGRF,233,2,896,Correct,14,746
14,CYCVC,222,2,951,Correct,14,824
14,FNFNF,151,1,590,Correct,14,745
14,KFKCK,161,2,703,Correct,14,768
14,ZFZHZ,183,2,814,Correct,14,725
14,NXNXN,15,1,1194,Correct,14,773
14,FNFNF,152,1,933,Correct,14,820
14,LXLNG,235,2,874,Correct,14,684
14,XKXVX,222,2,733,Correct,14,894
14,ZHZHZ,194,1,804,Correct,14,910
14,PFPFP,15,1,825,Correct,14,888
14,ZYZYZ,152,1,734,Correct,14,943
14,XPXVX,161,2,663,Correct,14,861
14,YCYCY,151,1,547,Correct,14,828
14,RGRGR,10,3,660,Correct,14,892
14,VRVRV,13,1,606,Correct,14,894
14,PKPNP,161,2,714,Correct,14,922
14,XGXGX,11,3,754,Correct,14,948
14,GZYVY,231,2,636,Correct,14,840
14,VCVNV,222,2,686,Correct,14,758
14,VHVHV,195,1,1029,Correct,14,940
14,LXLNL,16,2,716,Correct,14,660
14,GKPKP,221,1,823,Correct,14,814
14,XRXPX,222,2,836,Correct,14,700
14,XNXNX,151,1,669,Correct,14,774
14,KHKNK,176,2,798,Incorrect,14,699
14,RZRZR,15,1,694,Correct,14,836
14,CGCFC,121,3,1014,Correct,14,699
15,A,5,3,1444,New Target,15,934
15,XRXFX,161,2,890,Correct,15,783
15,RXRKR,162,2,700,Correct,15,919
15,YRYRY,151,1,492,Correct,15,821
15,XPXPX,152,1,557,Correct,15,912
15,RPRPR,153,1,843,Correct,15,936
15,NCNCN,154,1,722,Correct,15,839
15,RXRZR,161,2,594,Correct,15,764
15,NANAN,7,3,560,Correct,15,895
15,KCKYK,14,2,679,Correct,15,678
15,XKXFX,162,2,806,Correct,15,817
15,ZLZKZ,163,2,754,Correct,15,760
15,VCVZV,164,2,685,Correct,15,821
15,XCXVX,165,2,614,Correct,15,865
15,LKLZA,235,2,679,Correct,15,762
15,NCNCN,113,1,856,Correct,15,740
15,YGYGY,191,2,678,Incorrect,15,675
15,VLVLV,15,1,979,Correct,15,801
15,XRXRX,152,1,664,Correct,15,779
15,KAKPK,81,3,839,Correct,15,787
15,YZAZY,233,1,1103,Incorrect,15,841
15,CFCFC,113,1,954,Correct,15,857
15,VNVLV,161,2,1230,Correct,15,757
15,KPKVK,162,2,826,Correct,15,700
15,NCNRN,163,2,1125,Correct,15,728
15,FGFGF,192,1,1206,Correct,15,732
15,RCRYR,16,2,834,Correct,15,768
15,KRKCK,162,2,842,Correct,15,831
15,CRCRC,151,1,866,Correct,15,865
15,XPAPX,223,1,917,Correct,15,830
15,LPLXL,222,2,686,Correct,15,715
15,CGCVC,173,2,1366,Correct,15,937
15,FKFZF,16,2,844,Correct,15,757
15,CACAC,9,3,605,Correct,15,943
15,XCXCX,13,1,763,Correct,15,910
15,AXRXR,221,1,969,Correct,15,759
15,NKNRN,222,2,696,Correct,15,902
15,KNKFK,162,2,837,Correct,15,809
15,KAKAK,10,3,766,Correct,15,796
15,ZCZRZ,14,2,1211,Correct,15,738
15,RPRPR,151,1,836,Correct,15,888
15,NCNCN,152,1,622,Correct,15,764
15,RYRGR,184,2,804,Correct,15,676
15,VPVPV,15,1,882,Correct,15,719
15,RCRCA,225,1,716,Correct,15,707
15,KXKPK,222,2,646,Correct,15,846
15,NPNPN,151,1,568,Correct,15,749
15,YCYCY,152,1,531,Correct,15,938
15,PXPAP,112,3,835,Correct,15,899
15,ZCZNZ,14,2,827,Correct,15,805
15,KYKGK,185,2,1163,Correct,15,656
15,ANLPL,231,2,1015,Correct,15,818
15,CXCPC,222,2,838,Correct,15,853
15,YRYRY,151,1,702,Correct,15,740
15,LGLGL,196,1,641,Correct,15,666
15,VYVLV,16,2,962,Correct,15,742
15,KVKVK,151,1,1095,Correct,15,728
15,RKRKR,152,1,507,Correct,15,761
15,VXVXV,153,1,688,Correct,15,718
15,XAXAX,12,3,521,Correct,15,923
