Trial No,Stimulus,Trigger,Response,Response Time(ms),Correct,Block,Fixation Duration
Practice
OT Practice
1,SKSKS,15,1,1568,Correct,0,931
1,DLDUD,16,2,583,Correct,0,845
1,PDPGP,16,1,463,False,0,931
1,MWMWM,15,1,770,Correct,0,784
1,FTFTF,15,1,615,Correct,0,859
1,AXAMA,16,2,792,Correct,0,694
1,RYRGR,16,1,764,False,0,871
1,DODOD,15,1,926,Correct,0,937
1,QTQAQ,16,2,1088,Correct,0,768
1,YEYEY,15,1,574,Correct,0,726
AT Practice
1,TKTKT,15,1,846,Correct,0,923
1,SLSUS,16,2,672,Correct,0,797
1,VZVGV,7,3,533,Correct,0,899
1,XWXZX,7,2,739,False,0,867
1,ATATA,15,1,1195,Correct,0,753
1,HXZMH,16,2,881,Correct,0,911
1,TZTZT,7,3,421,Correct,0,671
1,UOUOU,15,1,616,Correct,0,827
1,ZTWAW,16,3,474,False,0,715
1,RZRER,7,2,718,False,0,699
2,JYJDJ,16,2,1231,Correct,0,789
2,DWDWD,15,1,981,Correct,0,733
2,GNGNG,7,3,740,Correct,0,828
2,NEZEZ,16,1,862,Correct,0,745
2,RNROR,7,3,933,Correct,0,715
2,QTQNQ,7,2,825,False,0,728
2,HOHON,15,1,856,Correct,0,922
2,KPKGK,16,2,793,Correct,0,867
2,DRDED,16,2,878,Correct,0,821
2,LNLNL,7,3,577,Correct,0,833
4,GLGLG,15,1,1158,Correct,0,729
4,DTDID,16,2,609,Correct,0,728
4,SMSGS,16,1,644,False,0,675
4,ZFZYZ,7,3,572,Correct,0,938
4,TSTFT,7,3,690,Correct,0,654
4,OFOFO,7,3,848,Correct,0,671
4,WYFGW,16,2,1046,Correct,0,793
4,WYWYW,15,1,963,Correct,0,773
4,MFMCM,7,3,1043,Correct,0,843
4,HQHEH,16,2,1108,Correct,0,711
Trials
1,D,5,3,45784,New Target,1,680
1,ZNZYZ,161,2,1546,Correct,1,718
1,FZFZF,151,1,1026,Correct,1,916
1,RKRKR,152,1,792,Correct,1,661
1,RXRNR,161,2,648,Correct,1,698
1,CNCFC,162,2,795,Correct,1,670
1,PDPDP,7,3,464,Correct,1,950
1,CPCFC,14,2,829,Correct,1,654
1,VLVNV,162,2,825,Correct,1,698
1,KFKFK,151,1,700,Correct,1,905
1,ZNZNZ,152,1,991,Correct,1,657
1,KCKPD,235,2,1317,Correct,1,717
1,ZKZFZ,222,2,735,Correct,1,713
1,NRNZN,162,2,682,Correct,1,831
1,KXKRK,163,2,741,Correct,1,907
1,YPYZY,164,2,623,Correct,1,809
1,FKDKF,223,1,787,Correct,1,718
1,RPRPR,113,1,883,Correct,1,679
1,VRVKV,161,2,698,Correct,1,738
1,RFRPR,162,2,1348,Correct,1,864
1,KVKVK,151,1,1038,Correct,1,685
1,YKYVY,161,2,628,Correct,1,667
1,VDVDV,8,3,561,Correct,1,873
1,DVZVZ,221,1,1089,Correct,1,868
1,YFYFY,113,1,658,Correct,1,795
1,ZYZYZ,152,1,912,Correct,1,836
1,VLVXV,161,2,611,Correct,1,895
1,DPXZX,231,2,708,Correct,1,750
1,RYRYR,113,1,594,Correct,1,798
1,PDPNP,91,3,514,Correct,1,836
1,KXKXK,13,1,720,Correct,1,914
1,ZYZYZ,152,1,588,Correct,1,829
1,VKVKV,153,1,617,Correct,1,914
1,YZYZY,154,1,579,Correct,1,918
1,NLNZN,161,2,726,Correct,1,738
1,ZNDYZ,233,2,769,Correct,1,829
1,PCPXP,222,2,640,Correct,1,694
1,ZVZFZ,162,2,698,Correct,1,927
1,RCRZR,163,2,580,Correct,1,844
1,LRLRL,151,1,870,Correct,1,823
1,ZDZDZ,10,3,449,Correct,1,727
1,RNRZR,14,2,644,Correct,1,929
1,CXCYC,162,2,624,Correct,1,881
1,RCRLR,163,2,700,Correct,1,833
1,FRFRF,151,1,750,Correct,1,708
1,XFXFX,152,1,725,Correct,1,892
1,RPRLR,161,2,707,Correct,1,808
1,YXYRY,162,2,612,Correct,1,717
1,FYFYF,151,1,647,Correct,1,719
1,YZYVY,161,2,790,Correct,1,800
1,YKYKY,151,1,932,Correct,1,706
1,XRXRX,152,1,732,Correct,1,728
1,XVXZX,161,2,662,Correct,1,836
1,PDPDP,11,3,737,Correct,1,874
1,ZFZFZ,13,1,656,Correct,1,696
1,PXPXP,152,1,637,Correct,1,817
1,LYLYL,153,1,601,Correct,1,938
1,NKNKD,225,1,684,Correct,1,710
1,ZNZNZ,113,2,555,Incorrect,1,778
1,PYPZP,161,2,896,Correct,1,734
1,XPXPX,151,1,890,Correct,1,763
1,VLVLV,152,1,736,Correct,1,737
1,PKPXP,161,2,1085,Correct,1,782
1,FZFZF,151,1,886,Correct,1,928
1,LDLDL,12,3,679,Correct,1,928
2,U,5,3,2838,New Target,2,925
2,ZVZFZ,161,2,924,Correct,2,760
2,FZFZF,151,1,769,Correct,2,821
2,RFRFR,152,1,873,Correct,2,849
2,NZNKN,161,2,781,Correct,2,896
2,FZFNF,162,2,1076,Correct,2,877
2,RXRXR,151,1,840,Correct,2,658
2,KRKYK,161,2,883,Correct,2,762
2,NZNPN,162,2,744,Correct,2,821
2,XPXPX,151,1,711,Correct,2,788
2,CUCUC,7,3,498,Correct,2,817
2,RFRFR,13,1,637,Correct,2,675
2,VYVXV,161,2,543,Correct,2,734
2,VDVDV,191,,,Incorrect,2,693
2,ZKZRZ,15,2,769,Correct,2,763
2,XCXCX,151,1,728,Correct,2,833
2,CNCUC,82,3,744,Correct,2,751
2,RCRCR,13,1,866,Correct,2,870
2,ZPZXZ,161,2,651,Correct,2,757
2,FKFYF,162,2,586,Correct,2,828
2,ZFZYZ,163,2,702,Correct,2,740
2,PXPXP,151,1,717,Correct,2,738
2,URCKC,231,2,924,Correct,2,744
2,PCPCP,113,1,946,Correct,2,761
2,XNXNX,152,1,792,Correct,2,699
2,RCRZR,161,2,888,Correct,2,680
2,XVXVX,151,1,684,Correct,2,787
2,NRNRN,152,1,873,Correct,2,810
2,FPFPF,225,1,700,Correct,2,909
2,XVXFX,222,2,606,Correct,2,734
2,PRPRP,151,1,1061,Correct,2,650
2,FYFCF,161,2,804,Correct,2,873
2,XUXFX,91,3,716,Correct,2,826
2,CYCVC,14,2,718,Correct,2,666
2,VDVKV,172,1,718,Incorrect,2,658
2,YCYCY,15,1,841,Correct,2,811
2,NKNLN,161,2,721,Correct,2,831
2,XPUKX,233,2,1138,Correct,2,652
2,ZPZPZ,113,1,779,Correct,2,876
2,KRKRK,152,1,707,Correct,2,850
2,XKXKX,153,1,643,Correct,2,742
2,YUYVY,101,3,740,Correct,2,790
2,XKXFU,235,2,835,Correct,2,657
2,NFNFN,113,1,760,Correct,2,839
2,KDKDK,193,2,1476,Incorrect,2,788
2,XYXKX,16,2,806,Correct,2,751
2,YZUZY,223,1,849,Correct,2,789
2,KFKVK,222,2,794,Correct,2,780
2,LYLYL,151,1,914,Correct,2,854
2,CXCDC,184,2,1141,Incorrect,2,843
2,XZXNX,16,2,677,Correct,2,672
2,PXPXP,151,1,1054,Correct,2,888
2,ZRZYZ,161,2,715,Correct,2,835
2,PUPYP,111,3,807,Correct,2,830
2,RNRNR,14,1,865,Correct,2,783
2,KDKDK,195,1,621,Correct,2,662
2,KNKNK,15,1,890,Correct,2,877
2,PRPKP,161,2,765,Correct,2,894
2,UNYNY,221,1,1140,Correct,2,893
2,NYNYN,113,1,717,Correct,2,868
2,YXYXY,152,1,647,Incorrect,2,832
2,RDRDR,196,1,1240,Correct,2,753
2,FCFCF,15,1,716,Correct,2,896
2,ZKZKZ,152,1,656,Correct,2,662
2,ZUZUZ,12,3,718,Correct,2,823
3,E,5,3,4373,New Target,3,931
3,YZYZY,151,1,909,Correct,3,791
3,VFVNV,161,2,742,Correct,3,676
3,KYKYK,151,1,803,Correct,3,791
3,NKNKN,152,1,1544,Correct,3,905
3,XVXNX,161,2,854,Correct,3,801
3,RERFR,71,3,658,Correct,3,684
3,XNXNX,13,1,819,Correct,3,724
3,NXNXN,152,1,653,Correct,3,755
3,ZLZNZ,161,2,670,Correct,3,759
3,CUCNC,171,2,890,Correct,3,886
3,FYFRF,16,2,742,Correct,3,695
3,ZLZLZ,151,1,872,Correct,3,655
3,YZYZY,152,1,719,Correct,3,808
3,CYCYC,153,1,795,Correct,3,770
3,VUVUV,192,1,1555,Correct,3,856
3,PXPRP,16,2,1277,Correct,3,875
3,YPYPY,151,1,881,Correct,3,931
3,CECEC,8,3,775,Correct,3,827
3,VNENV,223,2,656,Incorrect,3,826
3,KRKFK,222,2,862,Correct,3,805
3,XLXLE,225,1,852,Correct,3,830
3,RFRUR,183,2,894,Correct,3,729
3,XRXLX,16,2,709,Correct,3,743
3,NZNPN,162,2,759,Correct,3,663
3,XZXZX,151,1,677,Correct,3,718
3,FZFZF,152,1,775,Correct,3,760
3,PFPFP,153,1,1383,Correct,3,663
3,YZYXY,161,2,710,Correct,3,871
3,KEKEK,9,3,686,Correct,3,927
3,CXCPC,14,2,679,Correct,3,893
3,VXVXV,151,1,896,Correct,3,930
3,NUNZN,174,2,1084,Correct,3,682
3,RKRVR,16,2,781,Correct,3,692
3,XRXRX,151,1,779,Correct,3,753
3,ERNFN,231,2,832,Incorrect,3,872
3,YRYNY,222,2,743,Correct,3,748
3,PZPEP,102,3,741,Correct,3,783
3,ZYZXZ,14,2,703,Correct,3,808
3,RZRVR,162,2,686,Correct,3,745
3,XRXRX,151,1,709,Correct,3,946
3,KUKFK,175,2,997,Correct,3,750
3,RKRKR,15,1,1446,Correct,3,787
3,ZFZFZ,152,1,1158,Correct,3,850
3,YZYVY,161,2,1119,Correct,3,893
3,XPXNX,162,2,896,Correct,3,691
3,YRYRY,151,1,1380,Correct,3,824
3,EPVPV,221,1,954,Correct,3,762
3,CRCEC,112,3,911,Correct,3,770
3,RFRCR,14,2,658,Correct,3,843
3,CPCVC,162,2,654,Correct,3,911
3,RXRCR,163,2,958,Correct,3,729
3,VNVLV,164,2,677,Correct,3,712
3,ZXZXZ,151,1,612,Correct,3,766
3,ZCZCZ,152,1,642,Correct,3,859
3,PYPUP,186,2,638,Correct,3,850
3,YKYPY,16,2,1130,Correct,3,863
3,YREXY,233,2,709,Correct,3,875
3,ZKZKZ,113,1,654,Correct,3,948
3,XLXNX,161,2,641,Correct,3,672
3,KFKRE,235,2,890,Correct,3,915
3,RXRLR,222,2,1378,Correct,3,742
3,RERXR,121,3,881,Correct,3,869
4,J,5,3,4119,New Target,4,692
4,CYCVC,161,2,891,Correct,4,653
4,RXRCR,162,2,802,Correct,4,786
4,FPFVF,163,2,1038,Correct,4,763
4,LZLZL,151,1,779,Correct,4,847
4,PLPLP,152,1,668,Correct,4,663
4,NPNPN,153,1,665,Correct,4,831
4,XZXZX,161,1,631,Incorrect,4,762
4,CNCKC,162,2,722,Correct,4,893
4,PCPYJ,235,2,1242,Correct,4,890
4,VYVYV,113,1,637,Correct,4,885
4,RLRLR,152,1,607,Correct,4,756
4,CJCJC,7,3,527,Correct,4,832
4,ZLZLZ,13,1,603,Correct,4,923
4,FZFZF,152,1,670,Correct,4,726
4,CFCFC,153,1,545,Correct,4,713
4,PZPZP,154,1,562,Correct,4,882
4,XEXEX,191,1,930,Correct,4,933
4,NVNFN,16,2,722,Correct,4,843
4,KYKYK,151,1,680,Correct,4,917
4,ZNZVZ,161,2,742,Correct,4,821
4,YVJXY,233,2,1296,Correct,4,891
4,XFXFX,113,1,805,Correct,4,847
4,XNXNX,152,1,653,Correct,4,845
4,FJFKF,81,3,875,Correct,4,773
4,CZCYC,14,2,771,Correct,4,786
4,ZXZCZ,162,2,798,Correct,4,742
4,RYRYJ,225,1,1196,Correct,4,670
4,FPFZF,222,,,Incorrect,4,935
4,XRXRX,151,1,646,Correct,4,935
4,YPYEY,182,2,1241,Correct,4,764
4,XRXRX,15,1,675,Correct,4,746
4,XZXPX,161,2,670,Correct,4,884
4,CJCJC,9,3,747,Correct,4,784
4,ZXZVZ,14,2,666,Correct,4,755
4,VKVKV,151,1,582,Correct,4,894
4,VEVNV,173,2,1366,Correct,4,846
4,ZKZVZ,16,2,765,Correct,4,683
4,XVXJX,102,3,567,Correct,4,830
4,RXRVR,14,2,627,Correct,4,950
4,LRLRL,151,1,609,Correct,4,920
4,YNJNY,223,1,692,Correct,4,697
4,NPNJN,222,3,496,Incorrect,4,811
4,ZEZEZ,194,1,1188,Correct,4,834
4,ZNZNZ,15,1,1025,Correct,4,767
4,YZYZY,152,1,655,Correct,4,812
4,XYXYX,153,1,635,Correct,4,905
4,ZXZXZ,221,1,573,Correct,4,719
4,LYLZL,222,1,755,Incorrect,4,692
4,CYCNC,162,2,704,Correct,4,757
4,XEXEX,195,2,734,Incorrect,4,822
4,CVCXC,16,2,688,Correct,4,688
4,ZPZXZ,162,2,695,Correct,4,932
4,FZFZF,151,1,612,Correct,4,859
4,RXRJR,112,3,900,Correct,4,828
4,PRPFP,14,2,710,Correct,4,908
4,PKPEP,186,2,1168,Correct,4,920
4,XZXPX,16,2,928,Correct,4,674
4,JCZVZ,231,2,752,Correct,4,892
4,RXRLR,222,2,655,Correct,4,658
4,VZVZV,151,1,632,Correct,4,943
4,XJXJX,12,3,700,Correct,4,709
5,I,5,3,4661,New Target,5,684
5,PCPCP,151,1,757,Correct,5,878
5,XYXYX,152,1,629,Correct,5,710
5,VXVXV,153,1,679,Correct,5,722
5,XVXVX,154,1,567,Correct,5,709
5,ZRZXZ,161,2,779,Correct,5,724
5,FPFZF,162,2,699,Correct,5,707
5,ZYZYZ,151,1,722,Correct,5,948
5,RVRZR,161,2,715,Correct,5,874
5,CICIC,7,3,581,Correct,5,824
5,XLXLX,13,1,597,Correct,5,890
5,YVYVY,152,1,713,Correct,5,734
5,CJCJC,191,3,747,Incorrect,5,689
5,FNFCF,16,2,761,Correct,5,728
5,PVPRP,162,2,725,Correct,5,822
5,FZFZF,151,1,755,Correct,5,771
5,NVIVN,223,1,843,Correct,5,928
5,CVCIC,82,3,828,Correct,5,939
5,ZXZXZ,13,1,722,Correct,5,865
5,FCFZF,161,2,699,Correct,5,908
5,IXRXR,221,1,1015,Correct,5,857
5,ZPZNZ,222,2,728,Correct,5,816
5,VZVZV,151,1,664,Correct,5,674
5,YRYNY,161,2,676,Correct,5,879
5,VNVPV,162,2,643,Correct,5,776
5,RVRJR,182,2,1345,Correct,5,880
5,VRVRV,15,1,678,Correct,5,809
5,VIVIV,9,3,773,Correct,5,742
5,CXCVC,14,2,676,Correct,5,706
5,PZPZP,151,1,664,Correct,5,677
5,IXVKV,231,2,851,Correct,5,941
5,YJYCY,173,2,1031,Incorrect,5,862
5,VYVYV,15,1,776,Correct,5,789
5,YVYVY,152,1,642,Correct,5,746
5,NVNVN,153,2,515,Incorrect,5,754
5,XYXVX,161,2,566,Correct,5,866
5,NJNCN,174,2,890,Correct,5,754
5,NXNYN,16,2,669,Correct,5,822
5,VXVCV,162,2,568,Correct,5,861
5,ZKZKZ,151,1,573,Correct,5,678
5,XRXYX,161,2,817,Correct,5,723
5,ZCZXZ,162,2,573,Correct,5,698
5,KVKYI,235,2,674,Correct,5,758
5,CNCNC,113,1,787,Correct,5,757
5,RIRIR,10,3,831,Correct,5,780
5,VYVXV,14,2,611,Correct,5,858
5,FXIRF,233,3,709,Incorrect,5,802
5,PFPFP,113,1,824,Correct,5,695
5,VPVPV,152,1,626,Correct,5,675
5,ZJZJZ,195,1,1251,Correct,5,842
5,ZVZNZ,16,2,792,Correct,5,900
5,YVYXY,162,2,678,Correct,5,755
5,PRPRP,151,1,694,Correct,5,753
5,YPYPY,152,1,778,Correct,5,667
5,ZIZPZ,111,3,884,Correct,5,758
5,NKNXN,14,2,833,Correct,5,666
5,RZRXR,162,2,579,Correct,5,944
5,RXRXR,151,1,734,Correct,5,936
5,ZJZJZ,196,1,1197,Correct,5,744
5,CVCVI,225,2,829,Correct,5,667
5,NKNKN,113,1,774,Correct,5,844
5,NRNZN,161,2,668,Correct,5,849
5,CNCNC,151,1,996,Correct,5,946
5,RFRIR,122,3,658,Correct,5,874
6,B,5,3,3808,New Target,6,921
6,YKYZY,161,2,648,Correct,6,657
6,VCVRV,162,2,630,Correct,6,872
6,XVXVX,151,1,642,Correct,6,924
6,KZKRK,161,2,738,Correct,6,805
6,ZVZXZ,162,2,578,Correct,6,650
6,RCRNR,163,2,628,Correct,6,808
6,CXCRC,164,2,569,Correct,6,727
6,VNBCV,233,2,1297,Correct,6,689
6,CXCVC,222,2,509,Correct,6,656
6,RFRFR,151,1,765,Correct,6,938
6,XPXRX,161,2,868,Correct,6,920
6,RYRBR,72,3,1013,Correct,6,926
6,ZKZKZ,13,1,922,Correct,6,672
6,FIFRF,171,2,732,Correct,6,896
6,VZVLV,16,2,769,Correct,6,931
6,RPRVR,162,2,670,Correct,6,761
6,YBYBY,8,3,586,Correct,6,798
6,PYPVP,14,2,776,Correct,6,889
6,NININ,192,2,983,Incorrect,6,661
6,RNRNR,15,1,682,Correct,6,743
6,NXNVN,161,2,617,Correct,6,750
6,RNRNR,151,1,744,Correct,6,890
6,FRFVF,161,2,689,Correct,6,870
6,YVYFB,235,2,686,Incorrect,6,749
6,ZRZXZ,222,2,561,Correct,6,737
6,VNVIV,193,2,852,Incorrect,6,699
6,PXPNP,16,2,610,Correct,6,651
6,ZXZPZ,162,2,1215,Correct,6,837
6,VBVBV,9,3,1002,Correct,6,746
6,CXCXC,13,1,795,Correct,6,787
6,PCPFP,161,2,1225,Correct,6,724
6,KNKNK,151,1,819,Correct,6,830
6,XIXIX,194,1,1391,Correct,6,724
6,CYCYC,15,1,914,Correct,6,791
6,FVFYF,161,2,842,Correct,6,687
6,YNYRY,162,2,781,Correct,6,900
6,BVPXP,231,2,1464,Correct,6,797
6,NXNXN,113,1,865,Correct,6,948
6,FRFRF,152,1,1230,Correct,6,719
6,YVYVY,153,1,709,Correct,6,813
6,ZKZCZ,161,2,623,Correct,6,886
6,VIVXV,175,2,1005,Correct,6,848
6,PRBRP,223,1,990,Correct,6,833
6,YZYBY,102,2,820,Incorrect,6,660
6,CXCVC,14,2,684,Correct,6,843
6,FYFYF,151,1,680,Correct,6,857
6,VKVXV,161,2,681,Correct,6,696
6,ZBZBZ,11,3,805,Correct,6,834
6,FPFNF,14,2,659,Correct,6,682
6,CXCXC,151,1,738,Correct,6,835
6,YCYCY,152,1,906,Correct,6,913
6,FPFPF,153,1,768,Correct,6,794
6,CVCVB,225,1,1036,Correct,6,769
6,ZCZCZ,113,1,762,Correct,6,901
6,CZCNC,161,2,680,Correct,6,714
6,KIKFK,176,2,1051,Correct,6,669
6,PXPXP,15,1,756,Correct,6,947
6,RYRYR,152,1,1118,Correct,6,775
6,ZRZCZ,161,2,759,Correct,6,874
6,RVRVR,151,1,933,Correct,6,774
6,XYXNX,161,2,959,Correct,6,671
6,BVKVK,221,1,757,Correct,6,725
6,CBCBC,12,3,803,Correct,6,669
7,W,5,3,3064,New Target,7,735
7,RKRKR,151,1,699,Correct,7,694
7,CVCRC,161,2,553,Correct,7,768
7,PKPKP,151,1,568,Correct,7,853
7,FPFPF,152,1,674,Correct,7,656
7,VRVPV,161,2,816,Correct,7,765
7,ZKZYZ,162,2,724,Correct,7,918
7,PVPCP,233,2,559,Correct,7,821
7,KVKVK,113,1,892,Correct,7,920
7,YXYVY,161,2,964,Correct,7,764
7,FNFNF,151,1,787,Correct,7,850
7,YWYWY,7,3,647,Correct,7,926
7,ZYZYZ,13,1,746,Correct,7,657
7,PYPYP,152,1,724,Correct,7,844
7,XRXRX,153,1,1354,Correct,7,927
7,PXPXP,154,1,857,Correct,7,764
7,FCFBF,181,2,1446,Correct,7,921
7,FVFVF,15,1,643,Correct,7,702
7,CYCZC,161,2,674,Correct,7,730
7,XZXVX,162,2,725,Correct,7,948
7,PFPFP,151,1,649,Correct,7,871
7,RVRLR,161,2,687,Correct,7,901
7,ZBZBZ,192,1,1333,Correct,7,833
7,VCVNV,16,2,614,Correct,7,792
7,NWNWN,8,3,979,Correct,7,694
7,XNXVX,14,2,758,Correct,7,678
7,CXCNC,162,2,681,Correct,7,831
7,YVYVW,225,1,720,Correct,7,781
7,VFVFV,113,1,664,Correct,7,779
7,VFWFV,223,1,552,Correct,7,718
7,CVCFC,222,2,451,Correct,7,804
7,YBYBY,193,1,897,Correct,7,860
7,PYPYP,15,1,636,Correct,7,946
7,NKNWN,91,3,701,Correct,7,664
7,VNVNV,13,1,788,Correct,7,812
7,RVRVR,152,2,708,Incorrect,7,857
7,FVFBF,184,2,711,Incorrect,7,902
7,VZVKV,16,2,778,Correct,7,935
7,VPVCV,162,2,716,Correct,7,929
7,WYZCZ,231,2,742,Correct,7,719
7,PFPFP,113,1,675,Correct,7,711
7,PRPRP,152,1,696,Correct,7,803
7,NWNWN,10,3,740,Correct,7,716
7,VKVCV,14,2,540,Correct,7,652
7,WPYPY,221,1,1060,Correct,7,660
7,VBVBV,195,2,1214,Incorrect,7,792
7,ZKZYZ,16,2,838,Correct,7,708
7,XYXYX,151,1,649,Correct,7,832
7,FZFXF,161,2,672,Correct,7,865
7,XKXKX,151,1,922,Correct,7,742
7,XPXPX,152,1,573,Correct,7,686
7,FWFWF,11,3,731,Correct,7,879
7,FNFBF,186,2,701,Correct,7,778
7,ZVZYZ,16,2,866,Correct,7,819
7,FZFZF,151,1,672,Correct,7,896
7,NPNFW,235,2,822,Correct,7,812
7,PCPCP,113,1,875,Correct,7,887
7,NKNWN,122,3,639,Correct,7,699
8,M,5,3,2894,New Target,8,715
8,VYVNV,161,2,784,Correct,8,893
8,KLKNK,162,2,751,Correct,8,944
8,NRNRN,151,1,672,Correct,8,824
8,VNVFV,161,2,701,Correct,8,724
8,XNXNM,225,1,919,Correct,8,768
8,CXCVC,222,2,584,Correct,8,748
8,KRKZK,162,2,598,Correct,8,785
8,NMNFN,71,3,514,Correct,8,765
8,ZFZFZ,13,1,707,Correct,8,680
8,YPYCY,161,2,661,Correct,8,871
8,KCKCK,151,1,767,Correct,8,736
8,VNVNV,152,1,611,Correct,8,833
8,LXLXL,153,1,626,Correct,8,753
8,CLCLC,154,1,622,Correct,8,732
8,NYNYN,155,1,637,Correct,8,660
8,LCMYL,233,2,1186,Correct,8,908
8,NCNCN,113,2,781,Incorrect,8,691
8,ZVZRZ,161,2,702,Correct,8,862
8,ZVZVZ,151,1,682,Correct,8,689
8,PZPVP,161,2,734,Correct,8,814
8,PWPNP,171,3,539,Incorrect,8,678
8,KLKCM,235,2,916,Correct,8,866
8,XMXMX,8,3,648,Correct,8,658
8,PRPXP,14,2,740,Correct,8,688
8,CVCYC,162,2,870,Correct,8,933
8,PXPMP,92,3,679,Correct,8,882
8,ZCZLZ,14,2,668,Correct,8,834
8,XWXWX,192,,,Incorrect,8,910
8,ZCZLZ,16,2,674,Correct,8,842
8,MNCYC,231,2,986,Correct,8,843
8,ZXZXZ,113,1,800,Correct,8,849
8,YRYNY,161,2,660,Correct,8,878
8,ZLZPZ,162,2,582,Correct,8,946
8,VZVZV,151,1,784,Correct,8,940
8,MXPXP,221,1,1128,Correct,8,760
8,VWVWV,193,1,1089,Correct,8,664
8,PYPYP,16,1,683,Incorrect,8,777
8,XPXVX,162,2,761,Correct,8,683
8,XLXLX,151,1,721,Correct,8,783
8,YMYMY,10,3,758,Correct,8,751
8,VYVYV,13,1,975,Correct,8,763
8,PWPZP,174,2,1290,Correct,8,882
8,PYPKP,16,2,1101,Correct,8,795
8,NPNXN,162,2,658,Correct,8,853
8,KVKVK,223,1,1105,Correct,8,737
8,NVNFN,222,2,911,Correct,8,662
8,XNXNX,151,1,721,Correct,8,772
8,YZYMY,112,3,1124,Correct,8,825
8,PFPFP,13,1,859,Correct,8,866
8,ZWZWZ,195,1,1529,Correct,8,921
8,PCPZP,16,2,692,Correct,8,680
8,LRLPL,162,2,842,Correct,8,840
8,CZCZC,151,1,719,Correct,8,808
8,NZNZN,152,1,808,Correct,8,656
8,CVCXC,161,2,624,Correct,8,706
8,XCXCX,151,1,891,Correct,8,802
8,YWYWY,196,1,1449,Correct,8,892
8,NLNLN,15,1,847,Correct,8,892
8,VNVNV,152,1,599,Correct,8,656
8,ZMZMZ,12,3,851,Correct,8,741
9,S,5,3,5918,New Target,9,753
9,NZNZN,151,1,625,Correct,9,862
9,KVKZK,161,2,560,Correct,9,732
9,LZLZL,151,1,635,Correct,9,825
9,XLXLX,152,1,679,Correct,9,837
9,ZXZXZ,153,1,558,Correct,9,824
9,KNKZK,161,2,903,Correct,9,908
9,NRNYN,162,2,695,Correct,9,787
9,CLCVC,163,2,676,Correct,9,665
9,ZCZFZ,164,2,731,Correct,9,900
9,NSNSN,7,3,760,Correct,9,686
9,VZVZV,13,1,600,Correct,9,838
9,NVNCN,161,2,580,Correct,9,890
9,VMVMV,191,1,1214,Correct,9,787
9,CVCXC,16,2,724,Correct,9,864
9,ZYZRZ,162,2,669,Correct,9,685
9,XNXZX,163,2,872,Correct,9,784
9,PXPXP,151,1,1050,Correct,9,819
9,VCVSV,82,3,1130,Correct,9,654
9,PRPCP,14,2,605,Correct,9,895
9,ZMZMZ,192,1,1194,Incorrect,9,741
9,ZFZFZ,15,1,747,Correct,9,856
9,FCFCF,152,1,685,Correct,9,900
9,YLYZY,161,2,731,Correct,9,688
9,KNKVK,162,2,1584,Correct,9,832
9,SFPCP,231,2,548,Correct,9,898
9,RPRPR,113,1,977,Correct,9,762
9,XMXMX,193,1,833,Correct,9,761
9,KFKFK,15,1,626,Correct,9,813
9,VSVSV,9,3,593,Correct,9,742
9,YVSVY,223,1,844,Correct,9,773
9,VPVPV,113,1,653,Correct,9,857
9,XZXZX,152,1,629,Correct,9,850
9,KZKXK,161,2,725,Correct,9,697
9,RFRPR,162,2,986,Correct,9,841
9,NVNVS,225,1,1159,Correct,9,763
9,ZXZXZ,113,1,759,Correct,9,922
9,SRVRV,221,1,895,Correct,9,662
9,YCYCY,113,1,957,Correct,9,924
9,KMKZK,174,2,1516,Correct,9,852
9,FZSVF,233,2,1209,Correct,9,684
9,VYVYV,113,1,1294,Correct,9,847
9,LVLVL,152,1,722,Correct,9,672
9,YFYFY,153,1,690,Correct,9,949
9,NXNSN,102,3,1372,Correct,9,838
9,FNFCF,14,2,915,Correct,9,891
9,KVKVK,151,1,708,Correct,9,799
9,VZVCV,161,2,1272,Correct,9,862
9,ZYZMZ,185,2,786,Correct,9,944
9,VXVZV,16,2,573,Correct,9,653
9,VPVPV,151,1,629,Correct,9,906
9,RVRNS,235,2,1009,Correct,9,809
9,YZYZY,113,1,686,Correct,9,772
9,ZSZSZ,11,3,780,Correct,9,748
9,FRFRF,13,1,912,Correct,9,749
9,ZMZMZ,196,1,802,Correct,9,725
9,NZNXN,16,2,641,Correct,9,939
9,LSLFL,121,3,1223,Correct,9,867
10,Q,5,3,2107,New Target,10,677
10,ZVZPZ,161,2,518,Correct,10,861
10,RZRZR,151,1,665,Correct,10,817
10,ZFZFZ,152,1,562,Correct,10,674
10,RZRZR,153,1,541,Correct,10,899
10,PZPXP,161,2,528,Correct,10,686
10,VFQPV,233,2,1057,Correct,10,738
10,ZPZRZ,222,2,826,Correct,10,715
10,CYCVC,162,2,783,Correct,10,754
10,CPCPC,151,1,736,Correct,10,781
10,YZYQY,72,3,659,Correct,10,928
10,FVFXF,14,2,574,Correct,10,719
10,YNYNQ,225,,,Incorrect,10,909
10,ZYZYZ,113,1,544,Correct,10,714
10,FRFSF,181,2,1406,Incorrect,10,791
10,XNXPX,16,2,728,Correct,10,776
10,NXNXN,151,1,951,Correct,10,675
10,PVPZP,161,2,720,Correct,10,939
10,XVXPX,162,2,644,Correct,10,837
10,FXFVF,163,2,1596,Correct,10,939
10,NSNKN,172,2,1266,Incorrect,10,712
10,VXVNV,16,2,1151,Correct,10,939
10,XZXZX,151,1,914,Correct,10,828
10,VQVQV,8,3,759,Correct,10,691
10,ZYZPZ,14,2,702,Correct,10,759
10,PZPSP,183,,,Incorrect,10,931
10,YVYVY,15,1,1523,Correct,10,831
10,NCNQN,92,3,932,Correct,10,936
10,FCFVF,14,2,661,Correct,10,750
10,ZFZFZ,151,1,589,Correct,10,836
10,NSNSN,194,1,1197,Correct,10,747
10,YPYFY,16,2,719,Correct,10,824
10,ZKZKZ,151,1,916,Correct,10,778
10,QZRCR,231,2,823,Correct,10,778
10,YPYVY,222,2,635,Correct,10,659
10,ZNZNZ,151,1,979,Correct,10,854
10,VQVQV,10,3,734,Correct,10,886
10,RVRZR,14,2,735,Correct,10,931
10,KRKSK,185,2,1063,Correct,10,704
10,NPNPN,15,1,1174,Correct,10,719
10,YPYPY,152,1,710,Correct,10,930
10,VCVYV,161,2,733,Correct,10,865
10,FPFNF,162,2,615,Correct,10,694
10,QVXVX,221,2,643,Incorrect,10,756
10,ZVZRZ,222,2,701,Correct,10,747
10,LFLFL,151,1,596,Correct,10,751
10,VLVLV,152,1,591,Correct,10,846
10,KXQXK,223,1,1024,Correct,10,694
10,YQYQY,11,3,668,Correct,10,758
10,YCYCY,13,1,932,Correct,10,875
10,PZPYP,161,2,734,Correct,10,949
10,LPLFL,162,2,865,Correct,10,842
10,VSVSV,196,1,1132,Correct,10,869
10,VFVYQ,235,2,1059,Correct,10,824
10,CZCXC,222,2,748,Correct,10,745
10,PVPCP,162,2,755,Correct,10,792
10,CXCXC,151,1,647,Correct,10,783
10,NZNZN,152,1,676,Correct,10,741
10,YPYCY,161,,,Incorrect,10,690
10,ZQZQZ,12,1,1185,Incorrect,10,920
11,T,5,3,3313,New Target,11,770
11,KFKFK,151,1,681,Correct,11,856
11,LZLZL,152,1,705,Correct,11,836
11,PFPVP,161,2,495,Correct,11,711
11,FRFPF,162,2,731,Correct,11,873
11,FZFZF,151,1,564,Correct,11,658
11,VTVTV,7,1,564,Incorrect,11,762
11,KYKCK,14,2,380,Correct,11,912
11,VPVPV,151,1,516,Correct,11,685
11,XQXQX,191,,,Incorrect,11,730
11,PZPYP,16,2,783,Correct,11,788
11,KXKLK,162,2,1197,Correct,11,900
11,TCNCN,221,1,1167,Correct,11,883
11,PZPNP,222,2,709,Correct,11,678
11,RCRPR,162,2,586,Correct,11,878
11,PZPRT,235,2,872,Correct,11,764
11,XFXVX,222,2,966,Correct,11,880
11,LTLVL,81,2,597,Incorrect,11,788
11,ZCZPZ,14,2,591,Correct,11,766
11,NCNQN,182,2,1295,Correct,11,790
11,XZXNX,16,2,581,Correct,11,674
11,ZPZPZ,151,1,1122,Correct,11,763
11,CFCFC,152,1,792,Correct,11,811
11,VXTRV,233,2,994,Correct,11,726
11,CFCVC,222,2,704,Correct,11,737
11,PYPYP,151,1,870,Correct,11,899
11,FQFYF,173,2,724,Correct,11,787
11,CNCFC,16,2,700,Correct,11,756
11,PTPTP,9,3,656,Correct,11,866
11,ZCZCZ,13,1,1185,Correct,11,920
11,KZKZK,152,1,632,Correct,11,793
11,RLRVR,161,2,789,Correct,11,666
11,ZRZKZ,162,2,698,Correct,11,769
11,KLKLT,225,1,1029,Correct,11,664
11,ZQZQZ,194,1,1330,Correct,11,687
11,VZVZV,15,1,582,Correct,11,691
11,RVRZR,161,2,786,Correct,11,837
11,ZPZCZ,162,2,599,Correct,11,697
11,VYVYV,151,1,665,Correct,11,722
11,RVRVR,152,1,641,Correct,11,793
11,PTPTP,10,3,583,Correct,11,812
11,PXPXP,13,1,615,Correct,11,695
11,KCKCK,152,1,604,Correct,11,827
11,YVYVY,153,1,601,Correct,11,792
11,CYCYC,154,1,646,Correct,11,786
11,XCXCX,155,2,588,Incorrect,11,870
11,CYCQC,185,2,772,Correct,11,949
11,KCKNK,16,2,771,Correct,11,841
11,VPVPV,151,1,668,Correct,11,764
11,TXFZF,231,2,978,Correct,11,860
11,NYNVN,222,1,1284,Incorrect,11,674
11,VQVXV,176,2,644,Correct,11,874
11,ZRZRZ,15,1,723,Correct,11,665
11,VTVZV,111,3,955,Correct,11,696
11,PXPVP,14,2,747,Correct,11,785
11,FVFVF,151,1,675,Correct,11,756
11,VRVLV,161,2,762,Correct,11,750
11,YCYCY,151,1,642,Correct,11,718
11,XZTZX,223,1,621,Correct,11,785
11,VTVTV,12,3,831,Correct,11,892
12,O,5,3,1987,New Target,12,755
12,VXVLV,161,2,690,Correct,12,661
12,KVKCK,162,2,602,Correct,12,759
12,VLVLV,151,1,722,Correct,12,808
12,ZCZVZ,161,2,613,Correct,12,925
12,KFKFK,151,1,661,Correct,12,665
12,XKXKX,152,1,817,Correct,12,694
12,YXYXY,153,1,675,Correct,12,774
12,FVFVF,154,1,985,Correct,12,835
12,PVPOP,72,3,953,Correct,12,743
12,ZXZYZ,14,2,744,Correct,12,700
12,PXPVP,162,2,836,Correct,12,735
12,ZTZTZ,191,,,Incorrect,12,804
12,CVCKC,16,2,754,Correct,12,934
12,CKCKC,151,1,662,Correct,12,773
12,NPNPN,152,1,769,Correct,12,694
12,ZRZNZ,161,2,683,Correct,12,665
12,OZCZC,221,1,704,Correct,12,895
12,LFLFL,113,1,678,Correct,12,767
12,CXCXC,152,1,673,Correct,12,780
12,KPKPK,153,1,654,Correct,12,675
12,FRFKF,161,2,713,Correct,12,718
12,FOFOF,8,3,484,Correct,12,830
12,ZFZFZ,13,1,560,Correct,12,894
12,LKLZO,235,2,621,Correct,12,772
12,KLKZK,222,2,728,Correct,12,824
12,YXYCY,162,2,619,Correct,12,876
12,LOLOL,9,3,629,Correct,12,868
12,XLXLX,13,1,770,Correct,12,687
12,XVXVX,152,1,667,Correct,12,652
12,FTFTF,192,1,1217,Correct,12,909
12,OXNZN,231,2,745,Correct,12,800
12,CZCZC,113,1,675,Correct,12,662
12,LZLZL,152,1,667,Correct,12,857
12,VLVPV,161,2,591,Correct,12,887
12,VYVYO,225,1,714,Correct,12,860
12,XKXKX,113,1,691,Correct,12,786
12,RTRTR,193,1,1096,Correct,12,781
12,KVKCK,16,2,677,Correct,12,722
12,ROROR,101,3,589,Correct,12,743
12,PRPRP,13,1,799,Correct,12,707
12,LYLVL,161,2,1374,Correct,12,877
12,PLPLP,151,1,794,Correct,12,871
12,CTCTC,194,1,771,Correct,12,650
12,XZXYX,16,2,697,Correct,12,817
12,NKNKN,151,1,1102,Correct,12,820
12,VLVZV,161,2,937,Correct,12,788
12,YOYOY,11,3,812,Correct,12,702
12,PZOZP,223,1,882,Correct,12,754
12,FYFYF,113,1,606,Correct,12,911
12,ZXZVZ,161,2,712,Correct,12,850
12,VKVZV,162,2,848,Correct,12,798
12,ZTZTZ,195,1,868,Correct,12,734
12,LKLZL,16,2,783,Correct,12,832
12,KCKVK,162,2,566,Correct,12,794
12,PXPKP,163,2,705,Correct,12,743
12,KCOZK,233,2,856,Correct,12,801
12,FKFKF,113,1,615,Correct,12,836
12,CTCRC,176,2,1204,Correct,12,750
12,NXNXN,15,1,1398,Correct,12,864
12,KXKVK,161,2,778,Correct,12,657
12,CPCOC,122,3,802,Correct,12,717
13,H,5,3,1133,New Target,13,921
13,VFVNV,151,2,538,Incorrect,13,851
13,YVYVY,152,1,617,Correct,13,699
13,XVXVX,153,1,689,Correct,13,848
13,NRNXN,161,2,912,Correct,13,656
13,PZPKP,162,2,992,Correct,13,842
13,HLVLV,221,1,956,Correct,13,828
13,CXCZC,222,2,651,Correct,13,728
13,LHLYL,71,3,1119,Correct,13,923
13,YKYFY,14,2,674,Correct,13,929
13,YOYRY,171,2,1359,Correct,13,704
13,ZKZYZ,16,2,672,Correct,13,740
13,RZRZR,151,1,651,Correct,13,750
13,NFNYN,161,2,1009,Correct,13,914
13,KVKFK,162,2,712,Correct,13,832
13,XFXYX,163,2,1339,Correct,13,934
13,LKLVL,164,2,569,Correct,13,814
13,NLNLN,151,1,669,Correct,13,662
13,XCXOX,182,2,724,Correct,13,830
13,FXFXF,15,1,830,Correct,13,769
13,VHVHV,8,3,657,Correct,13,811
13,PVPVP,13,1,635,Correct,13,721
13,CRCXC,161,2,587,Correct,13,665
13,NXNXN,151,1,745,Correct,13,686
13,XRXRX,152,1,602,Correct,13,824
13,YFYXY,161,2,698,Correct,13,677
13,ZOZOZ,193,1,958,Correct,13,843
13,RZRZR,15,1,653,Correct,13,761
13,FKFKF,152,1,661,Correct,13,833
13,PFPFP,153,1,689,Correct,13,750
13,XYXHX,92,3,841,Correct,13,811
13,RZRKR,14,2,787,Correct,13,676
13,FLFLH,225,1,708,Correct,13,789
13,KRKRK,113,1,842,Correct,13,880
13,ZVZNZ,161,2,653,Correct,13,723
13,ZOZOZ,194,1,835,Correct,13,936
13,FZFZF,15,1,819,Correct,13,930
13,FHFKF,101,3,789,Correct,13,745
13,ZXHLZ,233,2,922,Correct,13,854
13,FKFXF,222,2,1021,Correct,13,663
13,CFCYC,162,2,654,Correct,13,658
13,ZXZVZ,163,2,654,Correct,13,663
13,KCKOK,185,2,706,Correct,13,800
13,ZXZVH,235,2,1001,Correct,13,830
13,CKCKC,113,1,1347,Correct,13,804
13,ZXZCZ,161,2,606,Correct,13,916
13,YVYVY,151,1,1115,Correct,13,785
13,RVHVR,223,1,667,Correct,13,950
13,ZRZRZ,113,1,652,Correct,13,932
13,ZHZHZ,11,3,677,Correct,13,796
13,VZVZV,13,1,550,Correct,13,941
13,HZVRV,231,2,684,Correct,13,665
13,FVFVF,113,1,727,Correct,13,704
13,RNRCR,161,2,1415,Correct,13,949
13,COCOC,196,1,1054,Correct,13,916
13,VNVXV,16,2,627,Correct,13,939
13,XHXHX,12,3,716,Correct,13,789
14,G,5,3,1243,New Target,14,658
14,FZFZF,151,1,673,Correct,14,808
14,RPRVR,161,2,883,Correct,14,929
14,XCXCX,151,1,632,Correct,14,672
14,YXYXY,152,1,581,Correct,14,712
14,KZKZK,153,1,605,Correct,14,865
14,RYRKR,161,2,627,Correct,14,873
14,FYFNF,162,2,596,Correct,14,689
14,VKVKV,151,1,745,Correct,14,949
14,KPGPK,223,1,1516,Correct,14,934
14,YNYNY,113,1,682,Correct,14,664
14,VYVYV,152,1,617,Correct,14,663
14,YCYXY,161,2,616,Correct,14,695
14,LKLGL,72,3,963,Correct,14,771
14,VXVXV,13,1,797,Correct,14,813
14,KCKVK,161,2,785,Correct,14,849
14,YKYKY,151,1,745,Correct,14,704
14,RHRXR,171,2,1303,Correct,14,948
14,FVFCF,16,2,860,Correct,14,693
14,YXYGY,82,3,551,Correct,14,933
14,CLCLC,13,1,849,Correct,14,824
14,ZXZCZ,161,2,743,Correct,14,675
14,VLVFV,162,2,666,Correct,14,933
14,CPCPG,225,1,713,Correct,14,683
14,KHKNK,172,2,853,Correct,14,654
14,ZKZVZ,16,2,596,Correct,14,878
14,YKYLY,162,2,681,Correct,14,941
14,CNCNC,151,1,919,Correct,14,721
14,PGPGP,9,3,769,Correct,14,918
14,VPVPV,13,1,826,Correct,14,701
14,FXGRF,233,2,734,Correct,14,913
14,CYCVC,222,,,Incorrect,14,867
14,FNFNF,151,1,676,Correct,14,940
14,KFKCK,161,2,681,Correct,14,913
14,ZFZHZ,183,2,830,Correct,14,879
14,NXNXN,15,1,847,Correct,14,824
14,FNFNF,152,1,1216,Correct,14,789
14,LXLNG,235,2,878,Correct,14,929
14,XKXVX,222,2,784,Correct,14,779
14,ZHZHZ,194,1,988,Correct,14,669
14,PFPFP,15,1,795,Correct,14,749
14,ZYZYZ,152,1,607,Correct,14,785
14,XPXVX,161,,,Incorrect,14,720
14,YCYCY,151,1,1251,Correct,14,750
14,RGRGR,10,3,831,Correct,14,899
14,VRVRV,13,1,640,Correct,14,885
14,PKPNP,161,2,885,Correct,14,863
14,XGXGX,11,3,789,Correct,14,756
14,GZYVY,231,2,611,Correct,14,940
14,VCVNV,222,2,751,Correct,14,782
14,VHVHV,195,1,715,Correct,14,664
14,LXLNL,16,2,559,Correct,14,820
14,GKPKP,221,1,880,Correct,14,747
14,XRXPX,222,2,1197,Correct,14,794
14,XNXNX,151,1,1040,Correct,14,866
14,KHKNK,176,2,970,Incorrect,14,774
14,RZRZR,15,1,1384,Correct,14,763
14,CGCFC,121,3,1176,Correct,14,696
15,A,5,3,2181,New Target,15,710
15,XRXFX,161,2,687,Correct,15,859
15,RXRKR,162,2,775,Correct,15,895
15,YRYRY,151,1,631,Correct,15,820
15,XPXPX,152,1,727,Correct,15,760
15,RPRPR,153,,,Incorrect,15,824
15,NCNCN,154,1,1090,Correct,15,792
15,RXRZR,161,2,694,Correct,15,861
15,NANAN,7,3,1169,Correct,15,763
15,KCKYK,14,2,628,Correct,15,823
15,XKXFX,162,2,755,Correct,15,696
15,ZLZKZ,163,2,641,Correct,15,665
15,VCVZV,164,2,650,Correct,15,764
15,XCXVX,165,2,567,Correct,15,767
15,LKLZA,235,2,516,Correct,15,842
15,NCNCN,113,1,865,Correct,15,805
15,YGYGY,191,1,1395,Correct,15,867
15,VLVLV,15,1,892,Correct,15,847
15,XRXRX,152,1,671,Correct,15,802
15,KAKPK,81,3,569,Correct,15,755
15,YZAZY,233,1,759,Incorrect,15,744
15,CFCFC,113,1,623,Correct,15,729
15,VNVLV,161,2,904,Correct,15,870
15,KPKVK,162,2,650,Correct,15,734
15,NCNRN,163,2,836,Correct,15,749
15,FGFGF,192,1,1085,Correct,15,682
15,RCRYR,16,2,848,Correct,15,893
15,KRKCK,162,2,941,Correct,15,900
15,CRCRC,151,1,735,Correct,15,777
15,XPAPX,223,1,721,Correct,15,887
15,LPLXL,222,2,1517,Correct,15,654
15,CGCVC,173,2,1112,Correct,15,746
15,FKFZF,16,2,539,Correct,15,909
15,CACAC,9,3,707,Correct,15,940
15,XCXCX,13,1,826,Correct,15,815
15,AXRXR,221,1,723,Correct,15,667
15,NKNRN,222,1,1310,Incorrect,15,737
15,KNKFK,162,2,628,Correct,15,675
15,KAKAK,10,3,798,Correct,15,750
15,ZCZRZ,14,2,661,Correct,15,660
15,RPRPR,151,1,1100,Correct,15,857
15,NCNCN,152,1,580,Correct,15,891
15,RYRGR,184,2,654,Correct,15,872
15,VPVPV,15,1,618,Correct,15,746
15,RCRCA,225,1,692,Correct,15,837
15,KXKPK,222,2,589,Correct,15,801
15,NPNPN,151,1,629,Correct,15,949
15,YCYCY,152,1,841,Correct,15,891
15,PXPAP,112,3,890,Correct,15,838
15,ZCZNZ,14,2,1009,Correct,15,687
15,KYKGK,185,2,581,Correct,15,947
15,ANLPL,231,2,802,Correct,15,795
15,CXCPC,222,2,1019,Correct,15,660
15,YRYRY,151,1,607,Correct,15,901
15,LGLGL,196,1,1176,Correct,15,872
15,VYVLV,16,2,1323,Correct,15,895
15,KVKVK,151,1,736,Correct,15,706
15,RKRKR,152,1,1058,Correct,15,944
15,VXVXV,153,1,559,Correct,15,652
15,XAXAX,12,3,778,Correct,15,875
