Trial No,Stimulus,Trigger,Response,Response Time(ms),Correct,Block,Fixation Duration
Practice
OT Practice
1,SKSKS,15,1,1278,Correct,0,910
1,DLDUD,16,2,1053,Correct,0,904
1,PDPGP,16,2,970,Correct,0,786
1,MWMWM,15,1,1332,Correct,0,942
1,FTFTF,15,1,1001,Correct,0,686
1,AXAMA,16,2,788,Correct,0,878
1,RYRGR,16,2,796,Correct,0,700
1,DODOD,15,1,594,Correct,0,805
1,QTQAQ,16,2,943,Correct,0,871
1,YEYEY,15,1,593,Correct,0,720
2,GYGDG,16,2,1449,Correct,0,861
2,SWSWS,15,1,554,Correct,0,725
2,HLHUH,16,2,613,Correct,0,869
2,DEDED,15,1,655,Correct,0,894
2,ZPZOZ,16,1,630,False,0,927
2,ATATA,15,1,722,Correct,0,836
2,QOQOQ,15,1,620,Correct,0,796
2,FPFGF,16,2,617,Correct,0,825
2,TRTET,16,2,721,Correct,0,907
2,DQDQD,15,1,629,Correct,0,945
AT Practice
1,TKTKT,15,1,1426,Correct,0,914
1,SLSUS,16,2,736,Correct,0,796
1,VZVGV,7,2,955,False,0,767
1,XWXZX,7,3,924,Correct,0,805
1,ATATA,15,2,1171,False,0,651
1,HXZMH,16,2,1160,Correct,0,913
1,TZTZT,7,3,896,Correct,0,812
1,UOUOU,15,1,870,Correct,0,734
1,ZTWAW,16,2,746,Correct,0,686
1,RZRER,7,3,645,Correct,0,748
2,JYJDJ,16,2,1211,Correct,0,794
2,DWDWD,15,1,947,Correct,0,738
2,GNGNG,7,3,637,Correct,0,912
2,NEZEZ,16,2,971,False,0,761
2,RNROR,7,2,1179,False,0,772
2,QTQNQ,7,3,939,Correct,0,662
2,HOHON,15,1,767,Correct,0,689
2,KPKGK,16,2,755,Correct,0,755
2,DRDED,16,2,1098,Correct,0,944
2,LNLNL,7,3,710,Correct,0,701
Trials
1,D,5,3,1476,New Target,1,652
1,BNBYB,161,2,1107,Correct,1,797
1,FBFBF,151,2,1053,Incorrect,1,940
1,RKRKR,152,1,905,Correct,1,883
1,QSQNQ,161,2,1066,Correct,1,922
1,CTCFC,162,2,761,Correct,1,776
1,PDPDP,7,16,977,Incorrect,1,859
1,OPOFO,14,,,Incorrect,1,773
1,HLHNH,162,2,956,Correct,1,876
1,MFMFM,151,3,1585,Incorrect,1,683
1,BTBTB,152,,,Incorrect,1,737
1,MCMPD,235,2,1133,Correct,1,724
1,BMBFB,222,,,Incorrect,1,916
1,NTNZN,162,2,989,Correct,1,917
1,MXMRM,163,2,786,Correct,1,742
1,APABA,164,2,935,Correct,1,919
1,FMDMF,223,2,631,Incorrect,1,881
1,QPQPQ,113,2,769,Incorrect,1,868
1,VQVMV,161,2,649,Correct,1,815
1,RERPR,162,1,838,Incorrect,1,880
1,KVKVK,151,1,1024,Correct,1,674
1,AKAHA,161,2,1340,Correct,1,908
1,VDVDV,8,3,1267,Correct,1,812
1,DUGUG,221,1,1191,Correct,1,869
1,AFAFA,113,1,1224,Correct,1,659
1,GYGYG,152,,,Incorrect,1,770
1,VXVSV,161,2,842,Correct,1,901
1,DOWGW,231,3,803,Incorrect,1,793
1,QYQYQ,113,1,860,Correct,1,870
1,ODONO,91,2,1039,Incorrect,1,942
1,MSMSM,13,3,732,Incorrect,1,882
1,GYGYG,152,2,1323,Incorrect,1,738
1,UMUMU,153,1,1069,Correct,1,843
1,BZBZB,154,1,760,Correct,1,903
1,NTNBN,161,2,729,Correct,1,679
1,GNDYG,233,3,1084,Incorrect,1,671
1,OCOSO,222,2,933,Correct,1,898
1,BHBFB,162,2,1227,Correct,1,767
1,QCQBQ,163,2,995,Correct,1,863
1,LQLQL,151,1,964,Correct,1,801
1,ZDZDZ,10,3,740,Correct,1,895
1,QNQZQ,14,2,738,Correct,1,767
1,CSCYC,162,3,831,Incorrect,1,711
1,RCRLR,163,2,647,Correct,1,847
1,FRFRF,151,2,774,Incorrect,1,821
1,WFWFW,152,1,834,Correct,1,723
1,QOQLQ,161,2,1259,Correct,1,756
1,AWAQA,162,2,821,Correct,1,703
1,EAEAE,151,1,930,Correct,1,661
1,AGAUA,161,2,683,Correct,1,687
1,YMYMY,151,1,841,Correct,1,803
1,XQXQX,152,1,692,Correct,1,691
1,SHSGS,161,3,1588,Incorrect,1,792
1,PDPDP,11,1,1344,Incorrect,1,841
1,ZGZGZ,13,3,895,Incorrect,1,881
1,OXOXO,152,2,628,Incorrect,1,845
1,LYLYL,153,1,985,Correct,1,727
1,NKNKD,225,1,1354,Correct,1,810
1,GNGNG,113,1,1002,Correct,1,944
1,OYOBO,161,2,877,Correct,1,699
1,SOSOS,151,1,967,Correct,1,671
1,VHVHV,152,1,1045,Correct,1,939
1,OKOXO,161,3,1160,Incorrect,1,769
1,EZEZE,151,1,644,Correct,1,751
1,LDLDL,12,1,817,Incorrect,1,846
2,U,5,3,504,New Target,2,890
2,BVBEB,161,2,1199,Correct,2,948
2,FBFBF,151,1,831,Correct,2,676
2,RFRFR,152,1,823,Correct,2,797
2,NBNKN,161,2,895,Correct,2,794
2,MKMNM,162,2,1095,Correct,2,764
2,QXQXQ,151,1,934,Correct,2,815
2,MQMYM,161,2,837,Correct,2,897
2,TGTPT,162,2,846,Correct,2,721
2,XOXOX,151,1,875,Correct,2,651
2,CUCUC,7,3,749,Correct,2,905
2,RFRFR,13,1,823,Correct,2,865
2,VYVSV,161,2,845,Correct,2,844
2,VDVDV,191,1,1233,Correct,2,935
2,GKGQG,15,2,846,Correct,2,683
2,SCSCS,151,1,1261,Correct,2,661
2,CTCUC,82,3,992,Correct,2,908
2,RCRCR,13,1,697,Correct,2,650
2,BOBXB,161,2,714,Correct,2,690
2,FMFAF,162,2,726,Correct,2,758
2,BEBAB,163,2,1017,Correct,2,695
2,PWPWP,151,1,872,Correct,2,867
2,UQCKC,231,2,803,Correct,2,695
2,OCOCO,113,1,937,Correct,2,846
2,TNTNT,152,1,783,Correct,2,723
2,QCQGQ,161,2,919,Correct,2,806
2,WVWVW,151,2,1099,Incorrect,2,865
2,TQTQT,152,1,777,Correct,2,813
2,FOFOF,225,1,1249,Correct,2,858
2,WVWFW,222,2,907,Correct,2,808
2,SWSWS,151,1,721,Correct,2,822
2,FYFCF,161,2,617,Correct,2,931
2,SUSWS,91,3,965,Correct,2,930
2,CACHC,14,2,636,Correct,2,740
2,VDVKV,172,2,555,Correct,2,763
2,YCYCY,15,2,577,Incorrect,2,749
2,NMNTN,161,2,1060,Correct,2,843
2,XOUKX,233,,,Incorrect,2,888
2,BPBPB,113,1,1070,Correct,2,784
2,MRMRM,152,1,913,Correct,2,726
2,XMXMX,153,1,886,Correct,2,804
2,AUAHA,101,2,872,Incorrect,2,932
2,XKXEU,235,2,1101,Correct,2,880
2,TFTFT,113,1,782,Correct,2,723
2,MDMDM,193,1,786,Correct,2,945
2,WYWMW,16,2,649,Correct,2,837
2,AZUZA,223,1,834,Correct,2,929
2,KEKHK,222,2,550,Correct,2,940
2,LALAL,151,1,586,Correct,2,756
2,CWCDC,184,2,634,Incorrect,2,840
2,SGSTS,16,2,725,Correct,2,944
2,PXPXP,151,1,740,Correct,2,741
2,GRGYG,161,2,708,Correct,2,726
2,PUPOP,111,2,720,Incorrect,2,869
2,RNRNR,14,1,752,Correct,2,741
2,KDKDK,195,1,924,Correct,2,749
2,KTKTK,15,1,1332,Correct,2,694
2,OROKO,161,2,1127,Correct,2,863
2,UNANA,221,2,737,Incorrect,2,864
2,TATAT,113,2,636,Incorrect,2,779
2,AWAWA,152,1,781,Incorrect,2,799
2,RDRDR,196,1,533,Correct,2,858
2,FCFCF,15,1,676,Correct,2,896
2,ZMZMZ,152,1,644,Correct,2,776
2,BUBUB,12,1,504,Incorrect,2,728
3,E,5,3,424,New Target,3,758
3,YZYZY,151,1,1095,Correct,3,776
3,VFVNV,161,2,1216,Correct,3,927
3,KAKAK,151,1,823,Correct,3,808
3,TKTKT,152,2,706,Incorrect,3,777
3,WHWTW,161,2,701,Correct,3,854
3,QEQFQ,71,3,942,Correct,3,717
3,XNXNX,13,1,766,Correct,3,938
3,TXTXT,152,1,760,Correct,3,863
3,GLGNG,161,2,756,Correct,3,808
3,CUCTC,171,2,833,Correct,3,746
3,FAFQF,16,2,762,Correct,3,801
3,ZLZLZ,151,1,1068,Correct,3,661
3,YZYZY,152,1,701,Correct,3,776
3,CYCYC,153,1,1015,Correct,3,895
3,HUHUH,192,1,842,Correct,3,782
3,OSORO,16,2,705,Correct,3,800
3,YOYOY,151,1,588,Correct,3,876
3,CECEC,8,3,1165,Correct,3,735
3,VNENV,223,1,1020,Correct,3,730
3,KQKFK,222,2,1024,Correct,3,751
3,XLXLE,225,1,787,Correct,3,799
3,QFQUQ,183,2,1181,Correct,3,823
3,SWSLS,16,2,742,Correct,3,817
3,NBNPN,162,2,605,Correct,3,889
3,SGSGS,151,1,671,Correct,3,810
3,FBFBF,152,1,625,Correct,3,672
3,PFPFP,153,1,733,Correct,3,927
3,AGASA,161,2,767,Correct,3,663
3,KEKEK,9,3,886,Correct,3,944
3,CWCOC,14,2,635,Correct,3,802
3,HXHXH,151,1,1022,Correct,3,717
3,NUNZN,174,2,809,Correct,3,947
3,QMQVQ,16,2,1151,Correct,3,835
3,SQSQS,151,1,778,Correct,3,828
3,ERNFN,231,2,1301,Incorrect,3,727
3,AQANA,222,2,697,Correct,3,799
3,OBOEO,102,2,836,Incorrect,3,864
3,SYSXS,14,2,813,Correct,3,753
3,QBQHQ,162,2,776,Correct,3,771
3,XQXQX,151,3,691,Incorrect,3,815
3,KUKFK,175,2,948,Correct,3,681
3,RKRKR,15,1,1218,Correct,3,910
3,GFGFG,152,1,622,Correct,3,760
3,YBYVY,161,2,631,Correct,3,935
3,SPSTS,162,2,616,Correct,3,708
3,AQAQA,151,2,886,Incorrect,3,838
3,EPVPV,221,1,783,Correct,3,701
3,CQCEC,112,3,814,Correct,3,675
3,RFRCR,14,2,1005,Correct,3,664
3,CPCVC,162,2,687,Correct,3,787
3,RXRCR,163,2,652,Correct,3,807
3,TNTLT,164,2,1051,Correct,3,759
3,BSBSB,151,2,1259,Incorrect,3,847
3,ZBZBZ,152,1,1254,Correct,3,708
3,OYOUO,186,2,1386,Correct,3,852
3,AKAOA,16,2,932,Correct,3,660
3,YQEWY,233,2,646,Correct,3,858
3,ZMZMZ,113,1,675,Correct,3,834
3,SWSTS,161,2,506,Correct,3,935
3,MFMQE,235,1,929,Incorrect,3,749
3,RSRLR,222,2,277,Correct,3,821
3,QEQWQ,121,3,1155,Correct,3,806
4,K,5,3,4268,New Target,4,688
4,CACHC,161,,,Incorrect,4,737
4,RWRCR,162,2,898,Correct,4,798
4,FOFVF,163,,,Incorrect,4,731
4,LGLGL,151,1,1050,Correct,4,653
4,PLPLP,152,1,624,Correct,4,685
4,NPNPN,153,1,816,Correct,4,834
4,SGSZS,161,2,664,Correct,4,767
4,DNDMD,162,2,1380,Correct,4,861
4,OCOAK,235,2,697,Correct,4,716
4,VYVYV,113,2,691,Incorrect,4,921
4,RLRLR,152,1,707,Correct,4,714
4,DKDKD,7,1,543,Incorrect,4,863
4,ZLZLZ,13,1,611,Correct,4,822
4,FZFZF,152,1,682,Correct,4,670
4,CFCFC,153,1,596,Correct,4,921
4,OZOZO,154,1,565,Correct,4,840
4,XEXEX,191,1,611,Correct,4,936
4,NVNFN,16,2,1002,Correct,4,677
4,AYAYA,151,2,908,Incorrect,4,779
4,BNBVB,161,2,1087,Correct,4,816
4,AHKXA,233,2,1137,Correct,4,694
4,WFWFW,113,1,1299,Correct,4,677
4,SNSNS,152,1,715,Correct,4,737
4,FKFMF,81,3,1492,Correct,4,841
4,DZDYD,14,2,787,Correct,4,767
4,GXGDG,162,2,873,Correct,4,906
4,AYAYK,225,1,1229,Correct,4,876
4,FPFGF,222,2,962,Correct,4,918
4,WRWRW,151,1,969,Correct,4,690
4,YPYEY,182,2,678,Correct,4,945
4,SQSQS,15,1,785,Correct,4,832
4,WZWPW,161,2,620,Correct,4,834
4,CKCKC,9,3,1208,Correct,4,926
4,BWBVB,14,2,946,Correct,4,829
4,HMHMH,151,1,696,Correct,4,741
4,VEVNV,173,2,1017,Correct,4,735
4,GMGVG,16,2,726,Correct,4,876
4,XHXKX,102,3,1026,Correct,4,868
4,QXQRQ,14,2,735,Correct,4,867
4,LQLQL,151,1,776,Correct,4,831
4,ALELA,223,1,1377,Correct,4,785
4,TPTKT,222,3,895,Incorrect,4,900
4,GEGEG,194,1,935,Correct,4,723
4,ZNZNZ,15,1,668,Correct,4,777
4,YZYZY,152,1,1286,Correct,4,920
4,SYSYS,153,1,881,Correct,4,762
4,ZSZSZ,221,1,589,Correct,4,679
4,LALGL,222,2,996,Correct,4,691
4,CYCTC,162,2,816,Correct,4,917
4,WEWEW,195,1,740,Correct,4,919
4,CHCSC,16,2,735,Correct,4,758
4,GWGXG,162,2,1583,Correct,4,712
4,FGFGF,151,1,1348,Correct,4,933
4,QWQKQ,112,3,797,Correct,4,655
4,OQOFO,14,2,937,Correct,4,763
4,PMPEP,186,2,688,Correct,4,690
4,WBWPW,16,2,589,Correct,4,832
4,KCDHD,231,2,610,Correct,4,675
4,RSRWR,222,2,502,Correct,4,657
4,HGHGH,151,1,717,Correct,4,705
4,SKSKS,12,3,1029,Correct,4,890
5,L,5,3,1210,New Target,5,879
5,PDPDP,151,3,788,Incorrect,5,868
5,WAWAW,152,,,Incorrect,5,811
5,HWHWH,153,1,1060,Correct,5,949
5,SHSHS,154,1,760,Correct,5,683
5,BRBWB,161,2,1072,Correct,5,886
5,FPFBF,162,2,1184,Correct,5,751
5,GAGAG,151,1,602,Correct,5,806
5,QVQGQ,161,2,733,Correct,5,787
5,CLCLC,7,1,637,Incorrect,5,677
5,XWXWX,13,1,604,Correct,5,773
5,AUAUA,152,1,1025,Correct,5,753
5,CKCKC,191,1,725,Correct,5,744
5,FNFCF,16,1,397,Incorrect,5,887
5,UHUQU,162,2,472,Correct,5,713
5,FZFZF,151,1,738,Correct,5,724
5,THLHT,223,1,699,Correct,5,880
5,CUCLC,82,3,540,Correct,5,701
5,BSBSB,13,1,656,Correct,5,767
5,FDFBF,161,2,675,Correct,5,702
5,LXRXR,221,1,864,Correct,5,887
5,ZOZNZ,222,2,715,Correct,5,664
5,UZUZU,151,2,648,Incorrect,5,761
5,AQATA,161,2,662,Correct,5,830
5,UNUPU,162,2,698,Correct,5,658
5,RVRKR,182,3,1212,Incorrect,5,689
5,URURU,15,1,896,Correct,5,906
5,VLVLV,9,1,1142,Incorrect,5,820
5,DXDVD,14,2,935,Correct,5,729
5,PZPZP,151,1,858,Correct,5,800
5,LXUMU,231,2,609,Correct,5,771
5,AKADA,173,2,754,Incorrect,5,771
5,HYHYH,15,1,850,Correct,5,703
5,AVAVA,152,1,800,Correct,5,666
5,TUTUT,153,1,668,Correct,5,710
5,XYXWX,161,2,647,Correct,5,855
5,TKTDT,174,2,681,Correct,5,769
5,NXNYN,16,,,Incorrect,5,733
5,USUCU,162,2,676,Correct,5,726
5,ZMZMZ,151,1,1336,Correct,5,657
5,WRWAW,161,2,911,Correct,5,719
5,GWGXG,162,2,550,Correct,5,746
5,MUMYL,235,2,556,Correct,5,721
5,CNCNC,113,1,745,Correct,5,937
5,RLRLR,10,1,535,Incorrect,5,720
5,UAUWU,14,2,571,Correct,5,748
5,FXLRF,233,2,1008,Correct,5,801
5,PFPFP,113,1,902,Correct,5,655
5,HPHPH,152,3,770,Incorrect,5,679
5,GKGKG,195,1,670,Correct,5,788
5,ZUZTZ,16,2,824,Correct,5,910
5,AVASA,162,2,837,Correct,5,747
5,PRPRP,151,2,738,Incorrect,5,650
5,YPYPY,152,1,623,Correct,5,737
5,ZLZOZ,111,3,815,Correct,5,800
5,WMWSW,14,2,809,Correct,5,716
5,RZRXR,162,2,758,Correct,5,689
5,QWQWQ,151,1,1108,Correct,5,758
5,ZKZKZ,196,1,575,Correct,5,861
5,CVCVL,225,2,951,Correct,5,676
5,NMNMN,113,1,760,Correct,5,835
5,TRTGT,161,2,902,Correct,5,773
5,CTCTC,151,1,1144,Correct,5,900
5,RKRLR,122,3,1220,Correct,5,831
6,B,5,3,1841,New Target,6,870
6,YMYGY,161,2,866,Correct,6,678
6,HUHRH,162,2,741,Correct,6,897
6,WHWHW,151,2,638,Incorrect,6,862
6,MGMRM,161,2,655,Correct,6,752
6,ZVZWZ,162,2,644,Correct,6,671
6,RCRTR,163,2,742,Correct,6,683
6,DSDRD,164,1,1040,Incorrect,6,876
6,VTBDV,233,2,820,Correct,6,743
6,DSDHD,222,2,1443,Correct,6,691
6,QEQEQ,151,1,910,Correct,6,921
6,XOXQX,161,1,638,Incorrect,6,940
6,RARBR,72,2,696,Incorrect,6,950
6,GMGMG,13,2,642,Incorrect,6,851
6,ELERE,171,2,1331,Correct,6,800
6,HZHUH,16,2,780,Correct,6,718
6,RHRVR,162,2,3,Correct,6,833
6,YBYBY,8,3,891,Correct,6,817
6,PYPVP,14,2,1121,Correct,6,763
6,TLTLT,192,1,908,Correct,6,888
6,QTQTQ,15,1,942,Correct,6,874
6,NXNVN,161,2,1233,Correct,6,803
6,QNQNQ,151,1,629,Correct,6,889
6,FUFHF,161,2,593,Correct,6,907
6,YVYFB,235,2,848,Incorrect,6,870
6,WQWSW,222,2,582,Correct,6,843
6,HNHLH,193,2,970,Incorrect,6,790
6,OSOTO,16,2,878,Correct,6,784
6,GWGOG,162,2,720,Correct,6,923
6,UBUBU,9,3,625,Correct,6,717
6,CWCWC,13,1,646,Correct,6,702
6,OCOEO,161,2,627,Correct,6,873
6,MNMNM,151,1,894,Correct,6,912
6,XLXLX,194,1,966,Correct,6,720
6,AYAYA,15,1,854,Correct,6,916
6,FUFAF,161,2,682,Correct,6,868
6,ANAQA,162,2,642,Correct,6,892
6,BUPWP,231,2,594,Correct,6,751
6,WSWSW,113,,,Incorrect,6,844
6,FRFRF,152,1,1354,Correct,6,878
6,AUAUA,153,1,761,Correct,6,888
6,GMGCG,161,2,1001,Correct,6,666
6,HLHWH,175,2,1099,Correct,6,772
6,PQBQP,223,3,1342,Incorrect,6,671
6,AZABA,102,2,788,Incorrect,6,753
6,CWCVC,14,2,583,Correct,6,914
6,FAFAF,151,1,872,Correct,6,789
6,VMVSV,161,2,655,Correct,6,790
6,GBGBG,11,3,687,Correct,6,743
6,FOFNF,14,2,571,Correct,6,789
6,DSDSD,151,2,638,Incorrect,6,736
6,YDYDY,152,2,1204,Incorrect,6,697
6,FOFOF,153,1,561,Correct,6,743
6,CHCHB,225,2,624,Incorrect,6,860
6,ZCZCZ,113,1,785,Correct,6,788
6,DZDGD,161,2,729,Correct,6,823
6,MLMEM,176,2,868,Correct,6,859
6,PXPXP,15,1,585,Correct,6,814
6,QYQYQ,152,1,566,Correct,6,866
6,GRGCG,161,2,1256,Correct,6,783
6,QVQVQ,151,1,708,Correct,6,684
6,XYXNX,161,1,560,Incorrect,6,856
6,BHMHM,221,1,687,Correct,6,888
6,CBCBC,12,3,683,Correct,6,845
7,W,5,3,2314,New Target,7,873
7,QKQKQ,151,1,872,Correct,7,845
7,DUDQD,161,2,686,Correct,7,865
7,OKOKO,151,1,960,Correct,7,707
7,EOEOE,152,1,594,Correct,7,825
7,URUPU,161,2,566,Correct,7,717
7,GMGAG,162,2,605,Correct,7,665
7,HVWDH,233,2,576,Correct,7,693
7,MHMHM,113,1,804,Correct,7,713
7,YXYVY,161,2,1360,Correct,7,684
7,FNFNF,151,1,881,Correct,7,893
7,AWAWA,7,3,1510,Correct,7,793
7,ZAZAZ,13,1,1007,Correct,7,930
7,OYOYO,152,1,1245,Correct,7,855
7,SQSQS,153,1,562,Correct,7,867
7,OSOSO,154,1,534,Correct,7,715
7,FCFBF,181,1,797,Incorrect,7,666
7,EUEUE,15,1,676,Correct,7,812
7,CYCGC,161,2,757,Correct,7,716
7,SZSUS,162,2,943,Correct,7,824
7,OFOFO,151,1,677,Correct,7,725
7,RVRUR,161,2,753,Correct,7,883
7,ZBZBZ,192,1,1065,Correct,7,885
7,UCUTU,16,2,665,Correct,7,843
7,NWNWN,8,3,572,Correct,7,657
7,XNXUX,14,2,1010,Correct,7,734
7,CXCNC,162,2,681,Correct,7,701
7,AUAUW,225,2,645,Incorrect,7,801
7,HEHEH,113,1,706,Correct,7,944
7,UFWFU,223,2,526,Incorrect,7,750
7,HVHEH,222,2,738,Correct,7,893
7,YBYBY,193,1,714,Correct,7,900
7,OYOYO,15,1,786,Correct,7,908
7,TMTWT,91,3,864,Correct,7,718
7,HTHTH,13,1,851,Correct,7,890
7,UHUHU,152,1,701,Correct,7,706
7,EVEBE,184,2,743,Incorrect,7,895
7,HZHMH,16,2,893,Correct,7,936
7,VHVCV,162,2,592,Correct,7,890
7,WAGDG,231,2,548,Correct,7,710
7,PFPFP,113,1,985,Correct,7,796
7,OQOQO,152,2,699,Incorrect,7,765
7,TWTWT,10,3,868,Correct,7,926
7,VKVDV,14,2,671,Correct,7,670
7,WPAPA,221,1,879,Correct,7,745
7,HBHBH,195,2,960,Incorrect,7,950
7,ZMZAZ,16,2,801,Correct,7,866
7,SYSYS,151,1,1270,Correct,7,925
7,FZFXF,161,2,882,Correct,7,684
7,SMSMS,151,1,669,Correct,7,691
7,XOXOX,152,,,Incorrect,7,673
7,FWFWF,11,3,713,Correct,7,834
7,ENEBE,186,2,1094,Correct,7,788
7,ZVZGZ,16,2,761,Correct,7,724
7,EZEZE,151,1,759,Correct,7,737
7,TOTEW,235,2,665,Correct,7,656
7,PDPDP,113,1,633,Correct,7,756
7,TKTWT,122,2,676,Incorrect,7,867
8,M,5,3,409,New Target,8,665
8,VYVNV,161,2,587,Correct,8,890
8,KLKTK,162,2,747,Correct,8,847
8,NQNQN,151,1,900,Correct,8,860
8,VHVEV,161,2,554,Correct,8,758
8,XNXNM,225,1,829,Correct,8,775
8,USUVU,222,2,596,Correct,8,827
8,KRKZK,162,2,550,Correct,8,752
8,TMTET,71,3,631,Correct,8,880
8,GFGFG,13,3,658,Incorrect,8,872
8,OPODO,161,1,707,Incorrect,8,786
8,KCKCK,151,1,585,Correct,8,933
8,VTVTV,152,1,649,Correct,8,827
8,LSLSL,153,1,762,Correct,8,733
8,DLDLD,154,1,612,Correct,8,836
8,NYNYN,155,1,758,Correct,8,767
8,DCMAD,233,2,612,Correct,8,730
8,TDTDT,113,1,576,Correct,8,887
8,GVGRG,161,2,637,Correct,8,914
8,ZUZUZ,151,1,1130,Correct,8,875
8,OGOVO,161,2,882,Correct,8,897
8,PWPTP,171,3,911,Incorrect,8,667
8,KLKDM,235,2,822,Correct,8,703
8,SMSMS,8,3,603,Correct,8,897
8,PRPSP,14,2,810,Correct,8,816
8,DVDYD,162,2,660,Correct,8,811
8,PXPMP,92,3,603,Correct,8,663
8,GDGLG,14,2,572,Correct,8,809
8,SWSWS,192,3,656,Incorrect,8,770
8,GDGLG,16,2,782,Correct,8,860
8,MTCYC,231,2,732,Correct,8,671
8,GSGSG,113,2,776,Incorrect,8,825
8,YQYTY,161,2,599,Correct,8,669
8,ZLZPZ,162,2,579,Correct,8,921
8,HZHZH,151,1,737,Correct,8,897
8,MSOSO,221,2,556,Incorrect,8,838
8,HWHWH,193,3,656,Incorrect,8,829
8,PYPAP,16,2,594,Correct,8,663
8,SPSVS,162,2,752,Correct,8,933
8,XLXLX,151,1,953,Correct,8,847
8,YMYMY,10,3,716,Correct,8,783
8,HYHYH,13,2,657,Incorrect,8,949
8,OWOGO,174,2,850,Correct,8,795
8,PHPOP,16,2,809,Correct,8,792
8,NPNSN,162,2,877,Correct,8,912
8,HVMVH,223,2,915,Incorrect,8,879
8,THTFT,222,2,707,Correct,8,864
8,STSTS,151,1,733,Correct,8,879
8,AGAMA,112,2,766,Incorrect,8,724
8,PEPEP,13,3,661,Incorrect,8,890
8,ZWZWZ,195,3,868,Incorrect,8,859
8,ODOZO,16,2,1003,Correct,8,761
8,LRLOL,162,2,954,Correct,8,889
8,GZGZG,151,1,1104,Correct,8,719
8,TGTGT,152,2,1427,Incorrect,8,650
8,CUCSC,161,2,867,Correct,8,786
8,SCSCS,151,1,864,Correct,8,676
8,AWAWA,196,3,888,Incorrect,8,733
8,NLNLN,15,2,1185,Incorrect,8,710
8,VNVNV,152,1,1081,Correct,8,873
8,GMGMG,12,3,776,Correct,8,767
9,S,5,3,1226,New Target,9,739
9,NBNBN,151,1,1474,Correct,9,845
9,KVKZK,161,2,673,Correct,9,853
9,LBLBL,151,1,591,Correct,9,800
9,XLXLX,152,1,611,Correct,9,753
9,ZXZXZ,153,1,1089,Correct,9,855
9,KNKZK,161,2,778,Correct,9,934
9,TQTAT,162,2,568,Correct,9,676
9,CLCUC,163,2,853,Correct,9,909
9,ZCZFZ,164,2,975,Correct,9,737
9,NSNSN,7,1,750,Incorrect,9,887
9,HGHGH,13,1,733,Correct,9,675
9,THTDT,161,2,653,Correct,9,715
9,VMVMV,191,1,746,Correct,9,842
9,CVCDC,16,2,740,Correct,9,775
9,ZAZRZ,162,2,739,Correct,9,733
9,XTXZX,163,2,634,Correct,9,947
9,OXOXO,151,1,654,Correct,9,690
9,DCDSD,82,3,541,Correct,9,822
9,PQPDP,14,2,699,Correct,9,904
9,ZMZMZ,192,1,686,Incorrect,9,695
9,BEBEB,15,1,764,Correct,9,829
9,FCFCF,152,1,554,Correct,9,669
9,YAYBY,161,2,572,Correct,9,862
9,KNKVK,162,2,613,Correct,9,655
9,SEPCP,231,2,1211,Correct,9,696
9,OPOPO,113,1,819,Correct,9,833
9,XMXMX,193,1,655,Correct,9,685
9,KEKEK,15,1,1034,Correct,9,931
9,USUSU,9,3,679,Correct,9,946
9,YHSHY,223,1,895,Correct,9,942
9,UPUPU,113,1,694,Correct,9,746
9,XZXZX,152,1,630,Correct,9,739
9,KGKXK,161,2,585,Correct,9,759
9,QEQPQ,162,2,797,Correct,9,737
9,NUNUS,225,1,863,Correct,9,654
9,BXBXB,113,2,677,Incorrect,9,758
9,SQHQH,221,1,672,Correct,9,901
9,ACACA,113,1,555,Correct,9,940
9,KMKBK,174,2,656,Correct,9,783
9,EGSVE,233,2,541,Correct,9,865
9,HYHYH,113,1,651,Correct,9,915
9,LULUL,152,1,544,Correct,9,672
9,AEAEA,153,2,544,Incorrect,9,949
9,TXTST,102,3,914,Correct,9,790
9,FDFCF,14,1,952,Incorrect,9,752
9,KVKVK,151,1,797,Correct,9,833
9,UBUCU,161,2,690,Correct,9,856
9,GAGMG,185,2,704,Correct,9,792
9,UXUGU,16,2,674,Correct,9,690
9,HOHOH,151,1,822,Correct,9,675
9,QUQTS,235,1,752,Incorrect,9,774
9,YZYZY,113,1,573,Correct,9,695
9,BSBSB,11,3,811,Correct,9,905
9,FEFEF,13,1,756,Correct,9,761
9,GMGMG,196,1,798,Correct,9,885
9,TGTXT,16,2,556,Correct,9,701
9,LSLFL,121,3,745,Correct,9,898
10,Q,5,3,497,New Target,10,685
10,ZHZOZ,161,2,1216,Correct,10,697
10,RZRZR,151,1,747,Correct,10,789
10,BFBFB,152,1,745,Correct,10,817
10,GBGBG,153,2,734,Incorrect,10,922
10,OGOXO,161,2,1541,Correct,10,912
10,UEQOU,233,2,1187,Correct,10,765
10,BOBRB,222,2,619,Correct,10,866
10,DYDVD,162,2,594,Correct,10,658
10,COCOC,151,1,707,Correct,10,803
10,YZYQY,72,3,1030,Correct,10,656
10,FHFWF,14,2,871,Correct,10,840
10,ANANQ,225,1,763,Correct,10,841
10,ZAZAZ,113,1,788,Correct,10,873
10,ERESE,181,2,858,Incorrect,10,888
10,XTXOX,16,2,625,Correct,10,854
10,NXNXN,151,2,1036,Incorrect,10,919
10,OVOZO,161,2,1487,Correct,10,769
10,WUWOW,162,2,1166,Correct,10,774
10,FWFVF,163,2,697,Correct,10,831
10,NSNKN,172,2,697,Incorrect,10,701
10,VWVNV,16,2,1313,Correct,10,946
10,XZXZX,151,,,Incorrect,10,762
10,VQVQV,8,3,775,Correct,10,680
10,GYGPG,14,2,580,Correct,10,746
10,OBOSO,183,2,681,Correct,10,736
10,YUYUY,15,1,1448,Correct,10,744
10,NDNQN,92,2,1099,Incorrect,10,703
10,FCFHF,14,,,Incorrect,10,696
10,EFEFE,151,1,1274,Correct,10,662
10,NSNSN,194,1,690,Correct,10,744
10,YPYFY,16,2,700,Correct,10,896
10,ZKZKZ,151,1,1262,Correct,10,708
10,QZQDR,231,2,787,Correct,10,836
10,AOAHA,222,2,602,Correct,10,849
10,BGBGB,151,1,940,Correct,10,829
10,HQHQH,10,1,707,Incorrect,10,723
10,UHUBU,14,2,622,Correct,10,856
10,KRKSK,185,2,1181,Correct,10,870
10,TOTOT,15,1,838,Correct,10,849
10,APAPA,152,1,739,Correct,10,712
10,VDVYV,161,2,643,Correct,10,664
10,FOFTF,162,2,596,Correct,10,759
10,QVXVX,221,2,581,Incorrect,10,786
10,GHGRG,222,2,632,Correct,10,739
10,LFLFL,151,1,790,Correct,10,845
10,HLHLH,152,1,718,Correct,10,816
10,KWQWK,223,1,684,Correct,10,812
10,YQYQY,11,1,586,Incorrect,10,768
10,ADADA,13,1,564,Correct,10,945
10,OGOAO,161,1,1117,Incorrect,10,676
10,EOEFE,162,2,584,Correct,10,837
10,USUSU,196,1,619,Correct,10,732
10,VFVAQ,235,2,742,Correct,10,946
10,DZDXD,222,2,768,Correct,10,869
10,HVHDH,162,2,573,Correct,10,696
10,DWDWD,151,1,676,Correct,10,709
10,GBGBG,152,1,882,Correct,10,851
10,AOADA,161,2,815,Correct,10,670
10,GQGQG,12,3,798,Correct,10,660
11,T,5,3,1179,New Target,11,803
11,KEKEK,151,,,Incorrect,11,819
11,LBLBL,152,1,1067,Correct,11,707
11,HEHVH,161,2,885,Correct,11,898
11,FRFOF,162,2,737,Correct,11,697
11,EBEBE,151,1,1151,Correct,11,775
11,HTHTH,7,1,845,Incorrect,11,730
11,MAMDM,14,2,1091,Correct,11,798
11,VOVOV,151,3,1232,Incorrect,11,825
11,XQXQX,191,1,869,Correct,11,903
11,PBPAP,16,2,632,Correct,11,927
11,MXMLM,162,2,684,Correct,11,680
11,TCNCN,221,2,1110,Incorrect,11,829
11,OBONO,222,2,1030,Correct,11,777
11,RCROR,162,2,804,Correct,11,923
11,PBPRT,235,2,759,Correct,11,914
11,WFWVW,222,2,1057,Correct,11,887
11,LTLUL,81,3,1197,Correct,11,896
11,ZDZPZ,14,2,778,Correct,11,771
11,NCNQN,182,2,705,Correct,11,861
11,XZXNX,16,2,555,Correct,11,881
11,GOGOG,151,1,1069,Correct,11,820
11,DFDFD,152,1,1274,Correct,11,854
11,VWTRV,233,,,Incorrect,11,804
11,CFCVC,222,2,1288,Correct,11,924
11,PAPAP,151,1,1546,Correct,11,909
11,EQEYE,173,2,1494,Correct,11,849
11,DNDED,16,2,1024,Correct,11,879
11,PTPTP,9,3,1028,Correct,11,771
11,ZCZCZ,13,1,1185,Correct,11,917
11,MZMZM,152,1,1024,Correct,11,712
11,ULUVU,161,2,1191,Correct,11,681
11,BRBGB,162,2,1291,Correct,11,949
11,MLMLT,225,1,893,Correct,11,899
11,GQGQG,194,3,935,Incorrect,11,695
11,HGHGH,15,1,1039,Correct,11,652
11,RVRBR,161,2,959,Correct,11,778
11,ZOZDZ,162,2,930,Correct,11,834
11,VYVYV,151,1,908,Correct,11,671
11,RVRVR,152,1,786,Correct,11,803
11,OTOTO,10,3,1441,Correct,11,695
11,PXPXP,13,1,752,Correct,11,831
11,MCMCM,152,1,1569,Correct,11,657
11,YUYUY,153,1,889,Correct,11,907
11,DYDYD,154,1,689,Correct,11,751
11,WDWDW,155,1,688,Correct,11,804
11,DYDQD,185,2,701,Correct,11,811
11,KDKNK,16,2,847,Correct,11,710
11,HOHOH,151,1,1265,Correct,11,906
11,TWEZE,231,2,611,Correct,11,946
11,NANHN,222,2,1200,Correct,11,921
11,VQVWV,176,2,1071,Correct,11,655
11,ZRZRZ,15,2,749,Incorrect,11,819
11,VTVGV,111,3,1244,Correct,11,699
11,HWHVH,14,2,708,Correct,11,812
11,EHEHE,151,1,1133,Correct,11,860
11,VRVLV,161,2,1143,Correct,11,857
11,ACACA,151,1,683,Correct,11,661
11,WBTBW,223,1,628,Correct,11,938
11,UTUTU,12,3,966,Correct,11,736
12,O,5,3,1560,New Target,12,905
12,UXULU,161,2,951,Correct,12,938
12,MUMDM,162,2,670,Correct,12,712
12,VLVLV,151,1,1598,Correct,12,808
12,BDBHB,161,2,788,Correct,12,914
12,KEKEK,151,1,1055,Correct,12,713
12,WKWKW,152,1,682,Correct,12,903
12,AWAWA,153,1,931,Correct,12,877
12,EVEVE,154,1,1211,Correct,12,743
12,PHPOP,72,3,1151,Correct,12,949
12,WXWAW,14,2,1195,Correct,12,769
12,PWPHP,162,2,995,Correct,12,850
12,ZTZTZ,191,,,Incorrect,12,826
12,HVHMH,16,2,653,Correct,12,872
12,DKDKD,151,1,1244,Correct,12,813
12,NPNPN,152,1,1018,Correct,12,717
12,ZRZNZ,161,2,699,Correct,12,894
12,OGCGC,221,1,1317,Correct,12,779
12,LFLFL,113,1,778,Correct,12,863
12,WXWXW,152,1,933,Correct,12,799
12,KPKPK,153,1,1213,Correct,12,694
12,FRFKF,161,2,649,Correct,12,734
12,EOEOE,8,3,757,Correct,12,831
12,GEGEG,13,2,753,Incorrect,12,750
12,LKLBO,235,2,681,Correct,12,851
12,MLMZM,222,2,954,Correct,12,678
12,ASACA,162,2,800,Correct,12,781
12,LOLOL,9,1,927,Incorrect,12,660
12,XLXLX,13,1,743,Correct,12,755
12,WHWHW,152,1,612,Correct,12,787
12,ETETE,192,1,487,Correct,12,673
12,OXGZG,231,2,623,Correct,12,747
12,CZCZC,113,2,787,Incorrect,12,699
12,LGLGL,152,3,1220,Incorrect,12,659
12,VLVPV,161,2,884,Correct,12,668
12,UYUYO,225,1,996,Correct,12,950
12,SMSMS,113,1,1379,Correct,12,906
12,RTRTR,193,1,581,Correct,12,876
12,KVKHK,16,2,610,Correct,12,864
12,ROROR,101,3,707,Correct,12,807
12,PRPRP,13,1,692,Correct,12,651
12,LALHL,161,2,1060,Correct,12,719
12,PLPLP,151,1,887,Correct,12,688
12,CTCTC,194,1,679,Correct,12,923
12,XGXAX,16,2,731,Correct,12,671
12,NMNMN,151,1,628,Correct,12,838
12,HLHZH,161,2,675,Correct,12,906
12,YOYOY,11,3,704,Correct,12,796
12,PZOZP,223,2,840,Incorrect,12,893
12,EAEAE,113,1,1065,Correct,12,915
12,GXGVG,161,2,1062,Correct,12,891
12,HMHGH,162,2,855,Correct,12,753
12,GTGTG,195,1,939,Correct,12,863
12,LMLGL,16,2,782,Correct,12,869
12,ECEDE,162,2,678,Correct,12,829
12,PSPKP,163,2,627,Correct,12,802
12,MCOBM,233,2,1198,Correct,12,906
12,EMEME,113,1,1397,Correct,12,916
12,CTCRC,176,2,777,Correct,12,756
12,NSNSN,15,1,647,Correct,12,726
12,MWMVM,161,2,950,Correct,12,786
12,CPCOC,122,3,729,Correct,12,788
13,H,5,3,1248,New Target,13,870
13,VUVUV,151,1,981,Correct,13,751
13,YVYVY,152,1,646,Correct,13,803
13,XUXUX,153,1,675,Correct,13,897
13,NRNWN,161,2,608,Correct,13,787
13,MZMKM,162,2,1046,Correct,13,711
13,HLVLV,221,2,709,Incorrect,13,854
13,DXDGD,222,2,848,Correct,13,838
13,LHLAL,71,1,711,Incorrect,13,818
13,YMYFY,14,3,725,Incorrect,13,766
13,AOARA,171,2,720,Correct,13,907
13,ZKZAZ,16,2,839,Correct,13,880
13,RZRZR,151,1,768,Correct,13,736
13,NFNAN,161,2,540,Correct,13,785
13,KUKEK,162,2,541,Correct,13,828
13,XAXYX,163,2,976,Correct,13,858
13,LKLUL,164,2,1111,Correct,13,695
13,NLNLN,151,1,834,Correct,13,814
13,WDWOW,182,2,1356,Correct,13,765
13,EWEWE,15,1,605,Correct,13,883
13,VHVHV,8,3,1082,Correct,13,877
13,PVPVP,13,1,773,Correct,13,877
13,CRCSC,161,2,611,Correct,13,679
13,NWNWN,151,3,1287,Incorrect,13,709
13,SQSQS,152,1,584,Correct,13,944
13,AEASA,161,2,700,Correct,13,784
13,GOGOG,193,,,Incorrect,13,675
13,QGQGQ,15,1,1022,Correct,13,660
13,FMFMF,152,1,865,Correct,13,772
13,PFPFP,153,1,1438,Correct,13,661
13,SYSHS,92,3,1523,Correct,13,724
13,QGQKQ,14,2,1122,Correct,13,790
13,ELELH,225,1,1163,Correct,13,918
13,MRMRM,113,1,1172,Correct,13,870
13,GUGNG,161,2,833,Correct,13,728
13,ZOZOZ,194,1,988,Correct,13,758
13,EZEZE,15,1,1139,Correct,13,653
13,FHFKF,101,1,913,Incorrect,13,757
13,GSHLG,233,1,1005,Incorrect,13,654
13,FKFXF,222,1,834,Incorrect,13,679
13,DEDYD,162,2,648,Correct,13,892
13,UXUVU,163,2,584,Correct,13,817
13,MCMOM,185,2,1064,Correct,13,785
13,BXBUH,235,2,518,Correct,13,870
13,DMDMD,113,2,624,Incorrect,13,672
13,BXBDB,161,2,652,Correct,13,912
13,AVAVA,151,1,622,Correct,13,678
13,QUHUQ,223,2,649,Incorrect,13,916
13,BRBRB,113,1,936,Correct,13,756
13,ZHZHZ,11,1,537,Incorrect,13,885
13,VZVZV,13,1,1465,Correct,13,893
13,HBUQU,231,2,702,Correct,13,688
13,EUEUE,113,1,727,Correct,13,942
13,RQRDR,161,2,694,Correct,13,788
13,COCOC,196,1,753,Correct,13,847
13,VNVSV,16,2,736,Correct,13,709
13,WHWHW,12,3,684,Correct,13,807
14,G,5,3,1539,New Target,14,708
14,EBEBE,151,1,889,Correct,14,697
14,QPQUQ,161,2,652,Correct,14,852
14,XDXDX,151,1,1016,Correct,14,929
14,YXYXY,152,1,654,Correct,14,671
14,MBMBM,153,1,605,Correct,14,816
14,QMQKQ,161,2,689,Correct,14,700
14,EYETE,162,2,612,Correct,14,712
14,UKUKU,151,1,916,Correct,14,785
14,MPGPM,223,2,901,Incorrect,14,913
14,ANANA,113,1,682,Correct,14,848
14,UAUAU,152,2,674,Incorrect,14,922
14,ADASA,161,2,675,Correct,14,738
14,LKLGL,72,2,1552,Incorrect,14,859
14,UWUWU,13,1,798,Correct,14,715
14,MCMUM,161,2,838,Correct,14,852
14,YMYMY,151,1,1372,Correct,14,858
14,RHRWR,171,2,668,Correct,14,922
14,DUDCD,16,2,636,Correct,14,778
14,ASAGA,82,3,1097,Correct,14,891
14,DLDLD,13,1,829,Correct,14,652
14,ZXZDZ,161,2,721,Correct,14,900
14,ULUFU,162,2,687,Correct,14,771
14,DPDPG,225,2,864,Incorrect,14,694
14,KHKTK,172,2,1081,Correct,14,699
14,ZKZUZ,16,2,803,Correct,14,900
14,AKALA,162,2,684,Correct,14,805
14,CNCNC,151,2,635,Incorrect,14,691
14,PGPGP,9,1,923,Incorrect,14,861
14,UPUPU,13,1,750,Correct,14,876
14,FSGWF,233,2,552,Correct,14,858
14,CACVC,222,2,616,Correct,14,777
14,FTFTF,151,1,773,Correct,14,834
14,KFKCK,161,2,1034,Correct,14,946
14,ZEZHZ,183,2,616,Correct,14,883
14,NSNSN,15,1,743,Correct,14,807
14,ENENE,152,,,Incorrect,14,937
14,LXLWG,235,2,703,Correct,14,687
14,SMSUS,222,2,793,Correct,14,869
14,ZHZHZ,194,1,926,Correct,14,935
14,PFPFP,15,1,847,Correct,14,836
14,BABAB,152,1,921,Correct,14,758
14,XPXUX,161,,,Incorrect,14,757
14,ACACA,151,2,1176,Incorrect,14,885
14,RGRGR,10,3,1139,Correct,14,831
14,URURU,13,1,842,Correct,14,943
14,PKPTP,161,2,613,Correct,14,720
14,SGSGS,11,3,689,Correct,14,932
14,GZYVY,231,2,1443,Correct,14,651
14,UDUTU,222,2,869,Correct,14,735
14,VHVHV,195,1,745,Correct,14,933
14,LWLNL,16,2,682,Correct,14,686
14,GKPKP,221,1,1101,Correct,14,701
14,SQSPS,222,2,1152,Correct,14,706
14,WNWNW,151,2,751,Incorrect,14,731
14,MHMTM,176,2,875,Incorrect,14,749
14,RZRZR,15,1,758,Correct,14,672
14,CGCDC,121,2,1170,Incorrect,14,761
15,A,5,3,1650,New Target,15,790
15,WQWEW,161,2,908,Correct,15,701
15,RWRKR,162,2,558,Correct,15,901
15,YRYRY,151,1,977,Correct,15,773
15,XOXOX,152,2,998,Incorrect,15,698
15,QPQPQ,153,1,606,Correct,15,661
15,TDTDT,154,1,482,Correct,15,650
15,WXWBW,161,2,602,Correct,15,764
15,TATAT,7,1,519,Incorrect,15,869
15,MCMYM,14,2,572,Correct,15,778
15,SMSFS,162,2,888,Correct,15,930
15,ZLZMZ,163,1,622,Incorrect,15,819
15,VDVBV,164,1,559,Incorrect,15,788
15,XCXVX,165,2,706,Correct,15,731
15,LKLBA,235,2,1261,Correct,15,816
15,NDNDN,113,1,711,Correct,15,718
15,YGYGY,191,3,852,Incorrect,15,755
15,VLVLV,15,2,518,Incorrect,15,920
15,WQWQW,152,1,990,Correct,15,760
15,MAMOM,81,3,722,Correct,15,748
15,YZABY,233,2,956,Correct,15,920
15,CFCFC,113,1,732,Correct,15,895
15,UTULU,161,2,847,Correct,15,661
15,KPKUK,162,2,886,Correct,15,781
15,TCTQT,163,2,1308,Correct,15,745
15,FGFGF,192,1,897,Correct,15,789
15,RCRYR,16,2,647,Correct,15,840
15,KRKDK,162,2,957,Correct,15,656
15,CRCRC,151,1,1009,Correct,15,747
15,WOAOW,223,2,899,Incorrect,15,811
15,LPLWL,222,2,1055,Correct,15,697
15,DGDUD,173,2,1562,Correct,15,852
15,EMEZE,16,2,756,Correct,15,907
15,DADAD,9,3,555,Correct,15,910
15,WDWDW,13,1,784,Correct,15,739
15,AWQWQ,221,2,1311,Incorrect,15,677
15,TKTQT,222,2,1493,Correct,15,836
15,MTMFM,162,1,1506,Incorrect,15,902
15,KAKAK,10,3,925,Correct,15,838
15,BDBRB,14,2,754,Correct,15,836
15,QPQPQ,151,1,754,Correct,15,665
15,NDNDN,152,1,1478,Correct,15,678
15,QYQGQ,184,2,887,Correct,15,719
15,VPVPV,15,1,720,Correct,15,710
15,RDRDA,225,1,834,Correct,15,652
15,KWKOK,222,2,632,Correct,15,843
15,TPTPT,151,1,766,Correct,15,678
15,DCDCD,152,1,1261,Correct,15,668
15,OWOAO,112,3,1242,Correct,15,708
15,ZCZNZ,14,2,868,Correct,15,797
15,MYMGM,185,2,1052,Correct,15,740
15,ANLOL,231,2,809,Correct,15,861
15,DWDPD,222,2,881,Correct,15,790
15,YQYQY,151,1,907,Correct,15,713
15,LGLGL,196,1,659,Correct,15,846
15,VYVLV,16,2,795,Correct,15,918
15,MVMVM,151,1,1240,Correct,15,673
15,QMQMQ,152,1,727,Correct,15,670
15,SXSXS,153,1,1327,Correct,15,879
15,WAWAW,12,3,858,Correct,15,679
