Trial No,Stimulus,Trigger,Response,Response Time(ms),Correct,Block,Fixation Duration
Practice
OT Practice
1,SKSKS,15,,,False,0,655
1,DLDUD,16,2,1513,Correct,0,850
1,PDPGP,16,2,1076,Correct,0,736
1,MWMWM,15,1,781,Correct,0,913
1,FTFTF,15,1,1298,Correct,0,846
1,AXAMA,16,2,754,Correct,0,885
1,RYRGR,16,2,765,Correct,0,720
1,DODOD,15,1,615,Correct,0,763
1,QTQAQ,16,2,646,Correct,0,701
1,YEYEY,15,1,559,Correct,0,910
2,GYGDG,16,2,622,Correct,0,665
2,SWSWS,15,1,622,Correct,0,708
2,HLHUH,16,2,778,Correct,0,813
2,DEDED,15,1,622,Correct,0,908
2,ZPZOZ,16,2,519,Correct,0,905
2,ATATA,15,2,630,False,0,848
2,QOQOQ,15,1,900,Correct,0,775
2,FPFGF,16,2,552,Correct,0,723
2,TRTET,16,2,764,Correct,0,705
2,DQDQD,15,1,714,Correct,0,659
AT Practice
1,TKTKT,15,1,852,Correct,0,722
1,SLSUS,16,2,727,Correct,0,777
1,VZVGV,7,2,845,False,0,885
1,XWXZX,7,2,931,False,0,780
1,ATATA,15,1,655,Correct,0,942
1,HXZMH,16,2,671,Correct,0,690
1,TZTZT,7,3,646,Correct,0,941
1,UOUOU,15,1,705,Correct,0,797
1,ZTWAW,16,2,744,Correct,0,880
1,RZRER,7,2,752,False,0,782
2,JYJDJ,16,2,1115,Correct,0,707
2,DWDWD,15,1,679,Correct,0,708
2,GNGNG,7,3,591,Correct,0,826
2,NEZEZ,16,1,825,Correct,0,895
2,RNROR,7,3,730,Correct,0,869
2,QTQNQ,7,3,609,Correct,0,827
2,HOHON,15,1,1119,Correct,0,785
2,KPKGK,16,2,1194,Correct,0,785
2,DRDED,16,2,1007,Correct,0,821
2,LNLNL,7,3,605,Correct,0,772
4,GLGLG,15,1,1014,Correct,0,821
4,DTDID,16,2,945,Correct,0,896
4,SMSGS,16,2,799,Correct,0,824
4,ZFZYZ,7,3,1045,Correct,0,775
4,TSTFT,7,3,885,Correct,0,764
4,OFOFO,7,3,649,Correct,0,739
4,WYFGW,16,2,1032,Correct,0,682
4,WYWYW,15,2,736,False,0,866
4,MFMCM,7,3,798,Correct,0,689
4,HQHEH,16,2,1053,Correct,0,923
Trials
1,D,5,3,5129,New Target,1,732
1,BNBYB,161,2,1213,Correct,1,720
1,FBFBF,151,1,1587,Correct,1,882
1,RKRKR,152,1,982,Correct,1,664
1,QSQNQ,161,2,1196,Correct,1,684
1,CTCFC,162,,,Incorrect,1,727
1,PDPDP,7,3,1237,Correct,1,859
1,OPOFO,14,2,985,Correct,1,884
1,HLHNH,162,2,1289,Correct,1,830
1,MFMFM,151,1,848,Correct,1,804
1,BTBTB,152,1,1201,Correct,1,944
1,MCMPD,235,2,767,Correct,1,667
1,BMBFB,222,2,828,Correct,1,789
1,NTNZN,162,,,Incorrect,1,823
1,MXMRM,163,2,680,Correct,1,933
1,APABA,164,2,692,Correct,1,802
1,FMDMF,223,3,965,Incorrect,1,779
1,QPQPQ,113,1,1310,Correct,1,656
1,VQVMV,161,2,935,Correct,1,782
1,RERPR,162,2,1004,Correct,1,736
1,KVKVK,151,1,1087,Correct,1,771
1,AKAHA,161,2,806,Correct,1,936
1,VDVDV,8,3,787,Correct,1,657
1,DUGUG,221,1,964,Correct,1,658
1,AFAFA,113,1,1051,Correct,1,698
1,GYGYG,152,1,1045,Correct,1,895
1,VXVSV,161,2,782,Correct,1,670
1,DOWGW,231,2,836,Correct,1,884
1,QYQYQ,113,1,1191,Correct,1,898
1,ODONO,91,3,835,Correct,1,797
1,MSMSM,13,1,887,Correct,1,913
1,GYGYG,152,1,1230,Correct,1,734
1,UMUMU,153,1,1034,Correct,1,682
1,BZBZB,154,1,1049,Correct,1,823
1,NTNBN,161,2,1258,Correct,1,753
1,GNDYG,233,2,956,Correct,1,937
1,OCOSO,222,,,Incorrect,1,884
1,BHBFB,162,2,1220,Correct,1,936
1,QCQBQ,163,2,1254,Correct,1,947
1,LQLQL,151,1,985,Correct,1,885
1,ZDZDZ,10,3,855,Correct,1,943
1,QNQZQ,14,2,731,Correct,1,880
1,CSCYC,162,2,887,Correct,1,752
1,RCRLR,163,2,636,Correct,1,853
1,FRFRF,151,1,926,Correct,1,817
1,WFWFW,152,1,1284,Correct,1,727
1,QOQLQ,161,1,1092,Incorrect,1,933
1,AWAQA,162,2,1071,Correct,1,872
1,EAEAE,151,1,1284,Correct,1,654
1,AGAUA,161,2,889,Correct,1,801
1,YMYMY,151,1,940,Correct,1,913
1,XQXQX,152,1,1380,Correct,1,737
1,SHSGS,161,2,760,Correct,1,795
1,PDPDP,11,3,854,Correct,1,700
1,ZGZGZ,13,2,1503,Incorrect,1,720
1,OXOXO,152,1,1145,Correct,1,935
1,LYLYL,153,1,1003,Correct,1,678
1,NKNKD,225,1,1021,Correct,1,844
1,GNGNG,113,1,877,Correct,1,820
1,OYOBO,161,2,808,Correct,1,744
1,SOSOS,151,1,864,Correct,1,825
1,VHVHV,152,1,1011,Correct,1,880
1,OKOXO,161,2,1088,Correct,1,928
1,EZEZE,151,1,1123,Correct,1,716
1,LDLDL,12,3,700,Correct,1,855
2,U,5,3,7571,New Target,2,729
2,BVBEB,161,2,1245,Correct,2,941
2,FBFBF,151,1,1239,Correct,2,804
2,RFRFR,152,1,1102,Correct,2,880
2,NBNKN,161,2,1129,Correct,2,860
2,MKMNM,162,,,Incorrect,2,739
2,QXQXQ,151,1,738,Correct,2,880
2,MQMYM,161,2,924,Correct,2,888
2,TGTPT,162,2,813,Correct,2,926
2,XOXOX,151,,,Incorrect,2,803
2,CUCUC,7,1,1007,Incorrect,2,865
2,RFRFR,13,1,1491,Correct,2,686
2,VYVSV,161,3,702,Incorrect,2,879
2,VDVDV,191,,,Incorrect,2,851
2,GKGQG,15,2,1400,Correct,2,711
2,SCSCS,151,1,1062,Correct,2,909
2,CTCUC,82,2,1255,Incorrect,2,766
2,RCRCR,13,1,991,Correct,2,799
2,BOBXB,161,2,847,Correct,2,871
2,FMFAF,162,2,852,Correct,2,837
2,BEBAB,163,2,1398,Correct,2,948
2,PWPWP,151,1,962,Correct,2,937
2,UQCKC,231,2,1177,Correct,2,667
2,OCOCO,113,1,1030,Correct,2,735
2,TNTNT,152,1,1082,Correct,2,691
2,QCQGQ,161,2,1452,Correct,2,696
2,WVWVW,151,1,1263,Correct,2,794
2,TQTQT,152,1,1180,Correct,2,673
2,FOFOF,225,1,714,Correct,2,726
2,WVWFW,222,2,1297,Correct,2,931
2,SWSWS,151,,,Incorrect,2,908
2,FYFCF,161,,,Incorrect,2,804
2,SUSWS,91,2,1511,Incorrect,2,879
2,CACHC,14,,,Incorrect,2,903
2,VDVKV,172,,,Incorrect,2,925
2,YCYCY,15,,,Incorrect,2,920
2,NMNTN,161,,,Incorrect,2,690
2,XOUKX,233,2,923,Correct,2,691
2,BPBPB,113,1,1170,Correct,2,712
2,MRMRM,152,1,1216,Correct,2,753
2,XMXMX,153,1,919,Correct,2,870
2,AUAHA,101,,,Incorrect,2,859
2,XKXEU,235,2,690,Correct,2,880
2,TFTFT,113,1,859,Correct,2,945
2,MDMDM,193,,,Incorrect,2,788
2,WYWMW,16,3,1235,Incorrect,2,679
2,AZUZA,223,1,1355,Correct,2,864
2,KEKHK,222,2,1267,Correct,2,745
2,LALAL,151,1,1212,Correct,2,694
2,CWCDC,184,2,823,Incorrect,2,815
2,SGSTS,16,2,1364,Correct,2,655
2,PXPXP,151,1,1323,Correct,2,778
2,GRGYG,161,3,1137,Incorrect,2,740
2,PUPOP,111,2,1202,Incorrect,2,650
2,RNRNR,14,1,968,Correct,2,870
2,KDKDK,195,1,749,Correct,2,731
2,KTKTK,15,1,1042,Correct,2,919
2,OROKO,161,2,917,Correct,2,745
2,UNANA,221,1,861,Correct,2,686
2,TATAT,113,1,1457,Correct,2,841
2,AWAWA,152,1,1076,Incorrect,2,804
2,RDRDR,196,1,964,Correct,2,819
2,FCFCF,15,1,1219,Correct,2,851
2,ZMZMZ,152,1,1580,Correct,2,823
2,BUBUB,12,1,795,Incorrect,2,663
3,E,5,3,6963,New Target,3,788
3,YZYZY,151,1,1011,Correct,3,941
3,VFVNV,161,2,839,Correct,3,708
3,KAKAK,151,1,1068,Correct,3,842
3,TKTKT,152,1,705,Correct,3,654
3,WHWTW,161,2,738,Correct,3,694
3,QEQFQ,71,3,1361,Correct,3,701
3,XNXNX,13,1,1066,Correct,3,724
3,TXTXT,152,1,957,Correct,3,662
3,GLGNG,161,2,948,Correct,3,762
3,CUCTC,171,2,1379,Correct,3,939
3,FAFQF,16,2,1370,Correct,3,726
3,ZLZLZ,151,1,1021,Correct,3,823
3,YZYZY,152,1,927,Correct,3,783
3,CYCYC,153,,,Incorrect,3,709
3,HUHUH,192,1,772,Correct,3,804
3,OSORO,16,2,985,Correct,3,867
3,YOYOY,151,,,Incorrect,3,716
3,CECEC,8,3,1339,Correct,3,804
3,VNENV,223,3,941,Incorrect,3,920
3,KQKFK,222,2,966,Correct,3,723
3,XLXLE,225,1,905,Correct,3,748
3,QFQUQ,183,2,849,Correct,3,761
3,SWSLS,16,2,835,Correct,3,880
3,NBNPN,162,2,1193,Correct,3,840
3,SGSGS,151,1,915,Correct,3,808
3,FBFBF,152,1,812,Correct,3,692
3,PFPFP,153,1,912,Correct,3,881
3,AGASA,161,2,763,Correct,3,718
3,KEKEK,9,3,1064,Correct,3,755
3,CWCOC,14,2,954,Correct,3,722
3,HXHXH,151,1,940,Correct,3,864
3,NUNZN,174,2,1085,Correct,3,875
3,QMQVQ,16,2,927,Correct,3,695
3,SQSQS,151,1,983,Correct,3,740
3,ERNFN,231,2,852,Incorrect,3,865
3,AQANA,222,2,958,Correct,3,788
3,OBOEO,102,3,962,Correct,3,742
3,SYSXS,14,2,1012,Correct,3,880
3,QBQHQ,162,2,564,Correct,3,802
3,XQXQX,151,1,839,Correct,3,830
3,KUKFK,175,2,1421,Correct,3,893
3,RKRKR,15,1,1177,Correct,3,928
3,GFGFG,152,1,854,Correct,3,780
3,YBYVY,161,2,1074,Correct,3,655
3,SPSTS,162,2,693,Correct,3,733
3,AQAQA,151,1,865,Correct,3,812
3,EPVPV,221,1,887,Correct,3,817
3,CQCEC,112,3,945,Correct,3,669
3,RFRCR,14,2,1466,Correct,3,662
3,CPCVC,162,2,1002,Correct,3,822
3,RXRCR,163,2,684,Correct,3,807
3,TNTLT,164,2,662,Correct,3,889
3,BSBSB,151,1,871,Correct,3,774
3,ZBZBZ,152,1,883,Correct,3,656
3,OYOUO,186,2,920,Correct,3,791
3,AKAOA,16,2,682,Correct,3,890
3,YQEWY,233,2,1420,Correct,3,701
3,ZMZMZ,113,1,896,Correct,3,791
3,SWSTS,161,2,981,Correct,3,845
3,MFMQE,235,2,880,Correct,3,909
3,RSRLR,222,2,611,Correct,3,907
3,QEQWQ,121,3,911,Correct,3,872
4,K,5,3,11037,New Target,4,745
4,CACHC,161,2,1069,Correct,4,854
4,RWRCR,162,2,888,Correct,4,922
4,FOFVF,163,2,888,Correct,4,919
4,LGLGL,151,1,799,Correct,4,799
4,PLPLP,152,1,1355,Correct,4,759
4,NPNPN,153,1,779,Correct,4,920
4,SGSZS,161,2,916,Correct,4,833
4,DNDMD,162,2,981,Correct,4,853
4,OCOAK,235,2,882,Correct,4,938
4,VYVYV,113,1,861,Correct,4,679
4,RLRLR,152,1,1142,Correct,4,665
4,DKDKD,7,3,771,Correct,4,820
4,ZLZLZ,13,1,1042,Correct,4,672
4,FZFZF,152,1,853,Correct,4,694
4,CFCFC,153,1,697,Correct,4,941
4,OZOZO,154,1,786,Correct,4,850
4,XEXEX,191,1,1144,Correct,4,906
4,NVNFN,16,2,1046,Correct,4,729
4,AYAYA,151,1,1267,Correct,4,924
4,BNBVB,161,2,820,Correct,4,925
4,AHKXA,233,2,841,Correct,4,949
4,WFWFW,113,1,787,Correct,4,814
4,SNSNS,152,1,801,Correct,4,668
4,FKFMF,81,3,989,Correct,4,725
4,DZDYD,14,2,789,Correct,4,676
4,GXGDG,162,2,851,Correct,4,676
4,AYAYK,225,1,1052,Correct,4,817
4,FPFGF,222,2,885,Correct,4,910
4,WRWRW,151,1,898,Correct,4,654
4,YPYEY,182,2,1172,Correct,4,943
4,SQSQS,15,1,794,Correct,4,914
4,WZWPW,161,2,1127,Correct,4,712
4,CKCKC,9,1,1063,Incorrect,4,733
4,BWBVB,14,,,Incorrect,4,758
4,HMHMH,151,1,942,Correct,4,935
4,VEVNV,173,2,1061,Correct,4,747
4,GMGVG,16,2,854,Correct,4,734
4,XHXKX,102,3,828,Correct,4,855
4,QXQRQ,14,2,888,Correct,4,696
4,LQLQL,151,1,770,Correct,4,726
4,ALELA,223,1,1488,Correct,4,695
4,TPTKT,222,3,1070,Incorrect,4,857
4,GEGEG,194,1,818,Correct,4,696
4,ZNZNZ,15,1,880,Correct,4,662
4,YZYZY,152,1,711,Correct,4,663
4,SYSYS,153,1,669,Correct,4,712
4,ZSZSZ,221,1,1056,Correct,4,897
4,LALGL,222,2,1172,Correct,4,728
4,CYCTC,162,,,Incorrect,4,851
4,WEWEW,195,1,714,Correct,4,855
4,CHCSC,16,2,1177,Correct,4,809
4,GWGXG,162,2,808,Correct,4,907
4,FGFGF,151,1,733,Correct,4,823
4,QWQKQ,112,3,1012,Correct,4,714
4,OQOFO,14,2,858,Correct,4,751
4,PMPEP,186,2,674,Correct,4,950
4,WBWPW,16,2,903,Correct,4,790
4,KCDHD,231,2,703,Correct,4,864
4,RSRWR,222,2,802,Correct,4,860
4,HGHGH,151,1,790,Correct,4,696
4,SKSKS,12,3,868,Correct,4,874
5,L,5,3,8736,New Target,5,772
5,PDPDP,151,1,879,Correct,5,688
5,WAWAW,152,1,1301,Correct,5,932
5,HWHWH,153,1,965,Correct,5,771
5,SHSHS,154,1,700,Correct,5,808
5,BRBWB,161,2,866,Correct,5,838
5,FPFBF,162,2,852,Correct,5,700
5,GAGAG,151,1,806,Correct,5,661
5,QVQGQ,161,2,790,Correct,5,844
5,CLCLC,7,,,Incorrect,5,823
5,XWXWX,13,1,950,Correct,5,871
5,AUAUA,152,,,Incorrect,5,672
5,CKCKC,191,1,1112,Correct,5,812
5,FNFCF,16,2,894,Correct,5,804
5,UHUQU,162,2,876,Correct,5,821
5,FZFZF,151,1,707,Correct,5,856
5,THLHT,223,1,1038,Correct,5,728
5,CUCLC,82,3,991,Correct,5,903
5,BSBSB,13,1,910,Correct,5,677
5,FDFBF,161,2,953,Correct,5,866
5,LXRXR,221,1,744,Correct,5,688
5,ZOZNZ,222,2,1190,Correct,5,882
5,UZUZU,151,1,748,Correct,5,762
5,AQATA,161,2,1111,Correct,5,918
5,UNUPU,162,2,971,Correct,5,908
5,RVRKR,182,2,,Correct,5,675
5,URURU,15,1,700,Correct,5,697
5,VLVLV,9,3,1004,Correct,5,804
5,DXDVD,14,2,1277,Correct,5,666
5,PZPZP,151,1,797,Correct,5,865
5,LXUMU,231,2,891,Correct,5,720
5,AKADA,173,2,694,Incorrect,5,826
5,HYHYH,15,1,950,Correct,5,947
5,AVAVA,152,1,917,Correct,5,654
5,TUTUT,153,1,680,Correct,5,685
5,XYXWX,161,2,830,Correct,5,805
5,TKTDT,174,2,1069,Correct,5,781
5,NXNYN,16,2,854,Correct,5,701
5,USUCU,162,2,701,Correct,5,831
5,ZMZMZ,151,1,930,Correct,5,892
5,WRWAW,161,2,1324,Correct,5,853
5,GWGXG,162,2,914,Correct,5,852
5,MUMYL,235,2,938,Correct,5,908
5,CNCNC,113,1,864,Correct,5,699
5,RLRLR,10,3,1344,Correct,5,663
5,UAUWU,14,2,695,Correct,5,913
5,FXLRF,233,2,793,Correct,5,829
5,PFPFP,113,1,950,Correct,5,946
5,HPHPH,152,,,Incorrect,5,800
5,GKGKG,195,1,1027,Correct,5,798
5,ZUZTZ,16,2,969,Correct,5,798
5,AVASA,162,,,Incorrect,5,863
5,PRPRP,151,1,960,Correct,5,867
5,YPYPY,152,1,879,Correct,5,668
5,ZLZOZ,111,2,1215,Incorrect,5,813
5,WMWSW,14,2,972,Correct,5,896
5,RZRXR,162,2,822,Correct,5,777
5,QWQWQ,151,1,731,Correct,5,699
5,ZKZKZ,196,1,1261,Correct,5,854
5,CVCVL,225,2,,Correct,5,905
5,NMNMN,113,1,1213,Correct,5,708
5,TRTGT,161,2,1585,Correct,5,768
5,CTCTC,151,1,1542,Correct,5,717
5,RKRLR,122,3,1097,Correct,5,832
6,B,5,3,18403,New Target,6,812
6,YMYGY,161,2,1172,Correct,6,919
6,HUHRH,162,2,1187,Correct,6,841
6,WHWHW,151,1,1041,Correct,6,914
6,MGMRM,161,2,891,Correct,6,796
6,ZVZWZ,162,2,1051,Correct,6,733
6,RCRTR,163,2,724,Correct,6,823
6,DSDRD,164,2,933,Correct,6,845
6,VTBDV,233,2,709,Correct,6,684
6,DSDHD,222,2,886,Correct,6,841
6,QEQEQ,151,1,1015,Correct,6,719
6,XOXQX,161,2,1092,Correct,6,666
6,RARBR,72,2,862,Incorrect,6,669
6,GMGMG,13,1,1055,Correct,6,762
6,ELERE,171,2,934,Correct,6,765
6,HZHUH,16,2,839,Correct,6,742
6,RHRVR,162,2,767,Correct,6,926
6,YBYBY,8,3,878,Correct,6,939
6,PYPVP,14,,,Incorrect,6,725
6,TLTLT,192,1,850,Correct,6,737
6,QTQTQ,15,1,754,Correct,6,790
6,NXNVN,161,2,884,Correct,6,801
6,QNQNQ,151,1,1266,Correct,6,703
6,FUFHF,161,2,770,Correct,6,841
6,YVYFB,235,2,728,Incorrect,6,730
6,WQWSW,222,2,1070,Correct,6,690
6,HNHLH,193,2,1287,Incorrect,6,670
6,OSOTO,16,2,1127,Correct,6,829
6,GWGOG,162,2,865,Correct,6,670
6,UBUBU,9,3,1092,Correct,6,659
6,CWCWC,13,1,1152,Correct,6,719
6,OCOEO,161,2,1495,Correct,6,749
6,MNMNM,151,1,1021,Correct,6,725
6,XLXLX,194,1,1553,Correct,6,880
6,AYAYA,15,1,1564,Correct,6,708
6,FUFAF,161,,,Incorrect,6,831
6,ANAQA,162,2,660,Correct,6,703
6,BUPWP,231,2,745,Correct,6,794
6,WSWSW,113,1,881,Correct,6,763
6,FRFRF,152,1,1312,Correct,6,677
6,AUAUA,153,1,730,Correct,6,911
6,GMGCG,161,2,993,Correct,6,668
6,HLHWH,175,2,1400,Correct,6,806
6,PQBQP,223,1,869,Correct,6,750
6,AZABA,102,3,1520,Correct,6,771
6,CWCVC,14,2,749,Correct,6,656
6,FAFAF,151,1,1014,Correct,6,759
6,VMVSV,161,2,670,Correct,6,713
6,GBGBG,11,3,1016,Correct,6,710
6,FOFNF,14,2,766,Correct,6,840
6,DSDSD,151,1,719,Correct,6,908
6,YDYDY,152,1,792,Correct,6,666
6,FOFOF,153,1,1053,Correct,6,694
6,CHCHB,225,1,1134,Correct,6,945
6,ZCZCZ,113,1,1027,Correct,6,779
6,DZDGD,161,2,1069,Correct,6,742
6,MLMEM,176,2,1133,Correct,6,865
6,PXPXP,15,1,1531,Correct,6,759
6,QYQYQ,152,1,814,Correct,6,779
6,GRGCG,161,2,758,Correct,6,905
6,QVQVQ,151,1,764,Correct,6,706
6,XYXNX,161,2,723,Correct,6,663
6,BHMHM,221,1,1060,Correct,6,944
6,CBCBC,12,3,1240,Correct,6,869
7,W,5,3,8479,New Target,7,697
7,QKQKQ,151,1,980,Correct,7,890
7,DUDQD,161,2,892,Correct,7,801
7,OKOKO,151,1,793,Correct,7,789
7,EOEOE,152,1,749,Correct,7,759
7,URUPU,161,2,1149,Correct,7,902
7,GMGAG,162,2,815,Correct,7,829
7,HVWDH,233,2,984,Correct,7,879
7,MHMHM,113,1,1157,Correct,7,679
7,YXYVY,161,2,653,Correct,7,730
7,FNFNF,151,1,1539,Correct,7,737
7,AWAWA,7,1,919,Incorrect,7,765
7,ZAZAZ,13,1,946,Correct,7,924
7,OYOYO,152,1,778,Correct,7,864
7,SQSQS,153,1,764,Correct,7,785
7,OSOSO,154,1,703,Correct,7,779
7,FCFBF,181,2,802,Correct,7,866
7,EUEUE,15,1,807,Correct,7,656
7,CYCGC,161,2,764,Correct,7,763
7,SZSUS,162,2,617,Correct,7,920
7,OFOFO,151,1,1048,Correct,7,682
7,RVRUR,161,2,1007,Correct,7,719
7,ZBZBZ,192,1,777,Correct,7,737
7,UCUTU,16,2,883,Correct,7,916
7,NWNWN,8,3,1455,Correct,7,887
7,XNXUX,14,2,1307,Correct,7,674
7,CXCNC,162,2,1171,Correct,7,890
7,AUAUW,225,1,937,Correct,7,767
7,HEHEH,113,1,1376,Correct,7,860
7,UFWFU,223,1,875,Correct,7,772
7,HVHEH,222,2,729,Correct,7,792
7,YBYBY,193,1,643,Correct,7,687
7,OYOYO,15,1,683,Correct,7,822
7,TMTWT,91,3,1242,Correct,7,842
7,HTHTH,13,1,780,Correct,7,791
7,UHUHU,152,,,Incorrect,7,793
7,EVEBE,184,2,1391,Incorrect,7,946
7,HZHMH,16,2,775,Correct,7,800
7,VHVCV,162,2,1062,Correct,7,934
7,WAGDG,231,2,795,Correct,7,921
7,PFPFP,113,1,908,Correct,7,753
7,OQOQO,152,1,985,Correct,7,764
7,TWTWT,10,3,1253,Correct,7,795
7,VKVDV,14,2,799,Correct,7,920
7,WPAPA,221,1,651,Correct,7,842
7,HBHBH,195,1,1125,Correct,7,744
7,ZMZAZ,16,2,714,Correct,7,742
7,SYSYS,151,1,970,Correct,7,863
7,FZFXF,161,2,977,Correct,7,942
7,SMSMS,151,1,856,Correct,7,774
7,XOXOX,152,1,798,Correct,7,658
7,FWFWF,11,3,1188,Correct,7,691
7,ENEBE,186,2,1106,Correct,7,925
7,ZVZGZ,16,2,689,Correct,7,928
7,EZEZE,151,1,676,Correct,7,775
7,TOTEW,235,2,712,Correct,7,881
7,PDPDP,113,1,697,Correct,7,916
7,TKTWT,122,3,1078,Correct,7,900
8,M,5,3,6694,New Target,8,705
8,VYVNV,161,2,1558,Correct,8,901
8,KLKTK,162,2,1344,Correct,8,723
8,NQNQN,151,1,749,Correct,8,695
8,VHVEV,161,2,647,Correct,8,677
8,XNXNM,225,3,687,Incorrect,8,714
8,USUVU,222,,,Incorrect,8,722
8,KRKZK,162,2,778,Correct,8,841
8,TMTET,71,3,1184,Correct,8,676
8,GFGFG,13,1,742,Correct,8,679
8,OPODO,161,2,728,Correct,8,765
8,KCKCK,151,,,Incorrect,8,768
8,VTVTV,152,1,1109,Correct,8,778
8,LSLSL,153,1,1490,Correct,8,916
8,DLDLD,154,1,649,Correct,8,743
8,NYNYN,155,1,886,Correct,8,759
8,DCMAD,233,2,675,Correct,8,775
8,TDTDT,113,1,666,Correct,8,849
8,GVGRG,161,2,672,Correct,8,658
8,ZUZUZ,151,1,1042,Correct,8,864
8,OGOVO,161,2,653,Correct,8,748
8,PWPTP,171,1,1458,Incorrect,8,722
8,KLKDM,235,2,1265,Correct,8,764
8,SMSMS,8,3,1084,Correct,8,839
8,PRPSP,14,2,1347,Correct,8,788
8,DVDYD,162,2,880,Correct,8,772
8,PXPMP,92,3,1008,Correct,8,741
8,GDGLG,14,2,844,Correct,8,717
8,SWSWS,192,2,1440,Incorrect,8,907
8,GDGLG,16,2,840,Correct,8,892
8,MTCYC,231,2,1290,Correct,8,750
8,GSGSG,113,1,809,Correct,8,770
8,YQYTY,161,2,817,Correct,8,913
8,ZLZPZ,162,2,883,Correct,8,689
8,HZHZH,151,1,859,Correct,8,897
8,MSOSO,221,1,1053,Correct,8,720
8,HWHWH,193,2,1462,Incorrect,8,919
8,PYPAP,16,2,953,Correct,8,900
8,SPSVS,162,2,817,Correct,8,703
8,XLXLX,151,1,1078,Correct,8,790
8,YMYMY,10,3,881,Correct,8,771
8,HYHYH,13,1,1200,Correct,8,762
8,OWOGO,174,,,Incorrect,8,891
8,PHPOP,16,2,1132,Correct,8,837
8,NPNSN,162,2,1018,Correct,8,899
8,HVMVH,223,1,982,Correct,8,673
8,THTFT,222,2,1491,Correct,8,790
8,STSTS,151,1,862,Correct,8,654
8,AGAMA,112,,,Incorrect,8,686
8,PEPEP,13,1,999,Correct,8,839
8,ZWZWZ,195,,,Incorrect,8,911
8,ODOZO,16,2,706,Correct,8,652
8,LRLOL,162,2,856,Correct,8,810
8,GZGZG,151,1,992,Correct,8,875
8,TGTGT,152,1,651,Correct,8,868
8,CUCSC,161,2,801,Correct,8,754
8,SCSCS,151,2,1159,Incorrect,8,950
8,AWAWA,196,1,1345,Correct,8,681
8,NLNLN,15,1,1261,Correct,8,727
8,VNVNV,152,2,1037,Incorrect,8,832
8,GMGMG,12,3,1167,Correct,8,940
9,S,5,3,9137,New Target,9,911
9,NBNBN,151,,,Incorrect,9,830
9,KVKZK,161,2,792,Correct,9,754
9,LBLBL,151,1,1034,Correct,9,822
9,XLXLX,152,1,821,Correct,9,659
9,ZXZXZ,153,1,811,Correct,9,669
9,KNKZK,161,2,950,Correct,9,898
9,TQTAT,162,2,977,Correct,9,700
9,CLCUC,163,2,736,Correct,9,755
9,ZCZFZ,164,2,654,Correct,9,945
9,NSNSN,7,3,935,Correct,9,668
9,HGHGH,13,1,831,Correct,9,913
9,THTDT,161,2,623,Correct,9,830
9,VMVMV,191,1,1321,Correct,9,671
9,CVCDC,16,2,660,Correct,9,802
9,ZAZRZ,162,2,750,Correct,9,768
9,XTXZX,163,2,587,Correct,9,836
9,OXOXO,151,1,1062,Correct,9,882
9,DCDSD,82,3,634,Correct,9,686
9,PQPDP,14,2,845,Correct,9,929
9,ZMZMZ,192,1,737,Incorrect,9,798
9,BEBEB,15,1,945,Correct,9,786
9,FCFCF,152,1,680,Correct,9,934
9,YAYBY,161,2,1150,Correct,9,669
9,KNKVK,162,2,781,Correct,9,707
9,SEPCP,231,2,924,Correct,9,780
9,OPOPO,113,1,727,Correct,9,799
9,XMXMX,193,1,1226,Correct,9,682
9,KEKEK,15,1,656,Correct,9,685
9,USUSU,9,3,660,Correct,9,825
9,YHSHY,223,1,898,Correct,9,667
9,UPUPU,113,1,808,Correct,9,943
9,XZXZX,152,1,817,Correct,9,935
9,KGKXK,161,2,805,Correct,9,674
9,QEQPQ,162,2,1019,Correct,9,658
9,NUNUS,225,1,895,Correct,9,852
9,BXBXB,113,1,712,Correct,9,888
9,SQHQH,221,1,1221,Correct,9,656
9,ACACA,113,1,1027,Correct,9,715
9,KMKBK,174,2,653,Correct,9,838
9,EGSVE,233,2,576,Correct,9,857
9,HYHYH,113,1,1247,Correct,9,790
9,LULUL,152,1,743,Correct,9,946
9,AEAEA,153,1,677,Correct,9,909
9,TXTST,102,3,1274,Correct,9,834
9,FDFCF,14,2,697,Correct,9,780
9,KVKVK,151,1,1116,Correct,9,745
9,UBUCU,161,2,655,Correct,9,894
9,GAGMG,185,2,674,Correct,9,796
9,UXUGU,16,2,941,Correct,9,700
9,HOHOH,151,1,677,Correct,9,803
9,QUQTS,235,2,899,Correct,9,884
9,YZYZY,113,,,Incorrect,9,815
9,BSBSB,11,3,1160,Correct,9,713
9,FEFEF,13,,,Incorrect,9,666
9,GMGMG,196,1,673,Correct,9,684
9,TGTXT,16,2,651,Correct,9,770
9,LSLFL,121,3,1121,Correct,9,803
10,Q,5,3,5254,New Target,10,788
10,ZHZOZ,161,2,937,Correct,10,694
10,RZRZR,151,1,618,Correct,10,946
10,BFBFB,152,1,686,Correct,10,704
10,GBGBG,153,1,656,Correct,10,743
10,OGOXO,161,2,998,Correct,10,854
10,UEQOU,233,2,1421,Correct,10,800
10,BOBRB,222,2,1239,Correct,10,748
10,DYDVD,162,2,875,Correct,10,674
10,COCOC,151,2,731,Incorrect,10,789
10,YZYQY,72,3,1119,Correct,10,818
10,FHFWF,14,2,1238,Correct,10,698
10,ANANQ,225,1,1317,Correct,10,745
10,ZAZAZ,113,1,785,Correct,10,892
10,ERESE,181,2,1539,Incorrect,10,668
10,XTXOX,16,2,813,Correct,10,666
10,NXNXN,151,1,702,Correct,10,806
10,OVOZO,161,2,727,Correct,10,655
10,WUWOW,162,2,738,Correct,10,664
10,FWFVF,163,2,833,Correct,10,873
10,NSNKN,172,2,1237,Incorrect,10,792
10,VWVNV,16,2,729,Correct,10,702
10,XZXZX,151,1,880,Correct,10,841
10,VQVQV,8,,,Incorrect,10,915
10,GYGPG,14,2,961,Correct,10,657
10,OBOSO,183,2,1020,Correct,10,752
10,YUYUY,15,1,703,Correct,10,940
10,NDNQN,92,3,806,Correct,10,741
10,FCFHF,14,2,1235,Correct,10,807
10,EFEFE,151,1,1014,Correct,10,710
10,NSNSN,194,1,803,Correct,10,662
10,YPYFY,16,2,804,Correct,10,826
10,ZKZKZ,151,1,742,Correct,10,651
10,QZQDR,231,2,649,Correct,10,878
10,AOAHA,222,2,1264,Correct,10,825
10,BGBGB,151,1,733,Correct,10,715
10,HQHQH,10,3,1188,Correct,10,831
10,UHUBU,14,2,626,Correct,10,835
10,KRKSK,185,2,735,Correct,10,694
10,TOTOT,15,1,803,Correct,10,793
10,APAPA,152,1,750,Correct,10,924
10,VDVYV,161,2,861,Correct,10,943
10,FOFTF,162,2,809,Correct,10,774
10,QVXVX,221,1,929,Correct,10,922
10,GHGRG,222,2,723,Correct,10,728
10,LFLFL,151,1,699,Correct,10,688
10,HLHLH,152,1,959,Correct,10,691
10,KWQWK,223,1,717,Correct,10,671
10,YQYQY,11,3,657,Correct,10,903
10,ADADA,13,1,1015,Correct,10,730
10,OGOAO,161,2,1561,Correct,10,934
10,EOEFE,162,2,796,Correct,10,917
10,USUSU,196,1,867,Correct,10,834
10,VFVAQ,235,2,786,Correct,10,889
10,DZDXD,222,2,824,Correct,10,697
10,HVHDH,162,2,824,Correct,10,797
10,DWDWD,151,1,738,Correct,10,868
10,GBGBG,152,1,1015,Correct,10,802
10,AOADA,161,2,693,Correct,10,947
10,GQGQG,12,3,1041,Correct,10,675
11,T,5,3,5354,New Target,11,733
11,KEKEK,151,1,1411,Correct,11,817
11,LBLBL,152,1,1251,Correct,11,818
11,HEHVH,161,2,803,Correct,11,662
11,FRFOF,162,2,773,Correct,11,840
11,EBEBE,151,1,713,Correct,11,692
11,HTHTH,7,3,1002,Correct,11,890
11,MAMDM,14,2,1185,Correct,11,697
11,VOVOV,151,1,1493,Correct,11,916
11,XQXQX,191,1,1358,Correct,11,688
11,PBPAP,16,2,900,Correct,11,895
11,MXMLM,162,2,1099,Correct,11,853
11,TCNCN,221,1,989,Correct,11,930
11,OBONO,222,2,937,Correct,11,740
11,RCROR,162,2,1010,Correct,11,817
11,PBPRT,235,2,783,Correct,11,763
11,WFWVW,222,2,788,Correct,11,756
11,LTLUL,81,2,822,Incorrect,11,777
11,ZDZPZ,14,2,1531,Correct,11,741
11,NCNQN,182,2,871,Correct,11,898
11,XZXNX,16,2,720,Correct,11,942
11,GOGOG,151,1,1061,Correct,11,756
11,DFDFD,152,2,913,Incorrect,11,926
11,VWTRV,233,2,1113,Correct,11,736
11,CFCVC,222,2,1085,Correct,11,779
11,PAPAP,151,1,954,Correct,11,901
11,EQEYE,173,2,1145,Correct,11,783
11,DNDED,16,2,765,Correct,11,715
11,PTPTP,9,3,622,Correct,11,694
11,ZCZCZ,13,1,744,Correct,11,726
11,MZMZM,152,1,1033,Correct,11,817
11,ULUVU,161,2,930,Correct,11,764
11,BRBGB,162,2,1344,Correct,11,702
11,MLMLT,225,1,926,Correct,11,733
11,GQGQG,194,1,1213,Correct,11,826
11,HGHGH,15,1,776,Correct,11,902
11,RVRBR,161,2,636,Correct,11,824
11,ZOZDZ,162,2,798,Correct,11,796
11,VYVYV,151,1,1407,Correct,11,933
11,RVRVR,152,1,773,Correct,11,803
11,OTOTO,10,3,713,Correct,11,819
11,PXPXP,13,1,788,Correct,11,937
11,MCMCM,152,1,740,Correct,11,794
11,YUYUY,153,1,829,Correct,11,673
11,DYDYD,154,1,703,Correct,11,676
11,WDWDW,155,1,591,Correct,11,882
11,DYDQD,185,2,840,Correct,11,910
11,KDKNK,16,2,822,Correct,11,823
11,HOHOH,151,1,1309,Correct,11,936
11,TWEZE,231,2,746,Correct,11,861
11,NANHN,222,2,942,Correct,11,748
11,VQVWV,176,2,611,Correct,11,932
11,ZRZRZ,15,1,1096,Correct,11,923
11,VTVGV,111,3,1065,Correct,11,797
11,HWHVH,14,2,737,Correct,11,901
11,EHEHE,151,1,751,Correct,11,934
11,VRVLV,161,2,890,Correct,11,927
11,ACACA,151,1,839,Correct,11,784
11,WBTBW,223,1,887,Correct,11,867
11,UTUTU,12,3,865,Correct,11,914
12,O,5,3,5942,New Target,12,817
12,UXULU,161,2,1266,Correct,12,883
12,MUMDM,162,2,996,Correct,12,663
12,VLVLV,151,1,934,Correct,12,887
12,BDBHB,161,2,621,Correct,12,950
12,KEKEK,151,1,859,Correct,12,659
12,WKWKW,152,1,813,Correct,12,701
12,AWAWA,153,1,1434,Correct,12,930
12,EVEVE,154,1,678,Correct,12,716
12,PHPOP,72,,,Incorrect,12,768
12,WXWAW,14,2,1009,Correct,12,780
12,PWPHP,162,2,1187,Correct,12,850
12,ZTZTZ,191,1,983,Correct,12,728
12,HVHMH,16,2,799,Correct,12,857
12,DKDKD,151,,,Incorrect,12,882
12,NPNPN,152,1,1103,Correct,12,797
12,ZRZNZ,161,2,1242,Correct,12,690
12,OGCGC,221,1,871,Correct,12,895
12,LFLFL,113,1,1010,Correct,12,849
12,WXWXW,152,1,1466,Correct,12,930
12,KPKPK,153,1,716,Correct,12,746
12,FRFKF,161,2,866,Correct,12,930
12,EOEOE,8,3,1264,Correct,12,720
12,GEGEG,13,1,664,Correct,12,700
12,LKLBO,235,2,787,Correct,12,690
12,MLMZM,222,2,979,Correct,12,771
12,ASACA,162,2,785,Correct,12,767
12,LOLOL,9,3,907,Correct,12,736
12,XLXLX,13,,,Incorrect,12,688
12,WHWHW,152,1,,Correct,12,655
12,ETETE,192,1,1335,Correct,12,650
12,OXGZG,231,2,932,Correct,12,720
12,CZCZC,113,1,945,Correct,12,709
12,LGLGL,152,1,735,Correct,12,803
12,VLVPV,161,2,990,Correct,12,910
12,UYUYO,225,1,945,Correct,12,910
12,SMSMS,113,1,1098,Correct,12,794
12,RTRTR,193,1,727,Correct,12,684
12,KVKHK,16,2,779,Correct,12,751
12,ROROR,101,3,939,Correct,12,891
12,PRPRP,13,2,1235,Incorrect,12,822
12,LALHL,161,2,806,Correct,12,687
12,PLPLP,151,1,1147,Correct,12,729
12,CTCTC,194,1,1351,Correct,12,834
12,XGXAX,16,2,1576,Correct,12,772
12,NMNMN,151,,,Incorrect,12,938
12,HLHZH,161,2,741,Correct,12,792
12,YOYOY,11,3,701,Correct,12,750
12,PZOZP,223,,,Incorrect,12,816
12,EAEAE,113,1,888,Correct,12,912
12,GXGVG,161,2,713,Correct,12,741
12,HMHGH,162,2,717,Correct,12,930
12,GTGTG,195,1,687,Correct,12,820
12,LMLGL,16,2,1150,Correct,12,856
12,ECEDE,162,,,Incorrect,12,718
12,PSPKP,163,2,910,Correct,12,725
12,MCOBM,233,2,1389,Correct,12,779
12,EMEME,113,1,1111,Correct,12,848
12,CTCRC,176,2,926,Correct,12,720
12,NSNSN,15,1,934,Correct,12,874
12,MWMVM,161,2,975,Correct,12,870
12,CPCOC,122,3,1539,Correct,12,934
13,H,5,3,5849,New Target,13,810
13,VUVUV,151,1,816,Correct,13,736
13,YVYVY,152,1,643,Correct,13,701
13,XUXUX,153,1,1110,Correct,13,856
13,NRNWN,161,2,655,Correct,13,773
13,MZMKM,162,2,966,Correct,13,704
13,HLVLV,221,1,910,Correct,13,747
13,DXDGD,222,2,650,Correct,13,793
13,LHLAL,71,3,973,Correct,13,907
13,YMYFY,14,2,909,Correct,13,684
13,AOARA,171,2,1307,Correct,13,679
13,ZKZAZ,16,2,764,Correct,13,728
13,RZRZR,151,1,779,Correct,13,872
13,NFNAN,161,2,1590,Correct,13,885
13,KUKEK,162,2,732,Correct,13,722
13,XAXYX,163,2,977,Correct,13,724
13,LKLUL,164,2,653,Correct,13,776
13,NLNLN,151,,,Incorrect,13,767
13,WDWOW,182,2,981,Correct,13,878
13,EWEWE,15,1,692,Correct,13,671
13,VHVHV,8,3,1402,Correct,13,695
13,PVPVP,13,1,1491,Correct,13,864
13,CRCSC,161,2,1069,Correct,13,655
13,NWNWN,151,1,1197,Correct,13,940
13,SQSQS,152,1,1291,Correct,13,911
13,AEASA,161,2,1134,Correct,13,711
13,GOGOG,193,1,1234,Correct,13,771
13,QGQGQ,15,1,1125,Correct,13,786
13,FMFMF,152,,,Incorrect,13,802
13,PFPFP,153,1,1023,Correct,13,744
13,SYSHS,92,2,806,Incorrect,13,678
13,QGQKQ,14,2,838,Correct,13,855
13,ELELH,225,1,1272,Correct,13,707
13,MRMRM,113,1,,Correct,13,914
13,GUGNG,161,2,858,Correct,13,656
13,ZOZOZ,194,,,Incorrect,13,845
13,EZEZE,15,1,778,Correct,13,737
13,FHFKF,101,3,1426,Correct,13,706
13,GSHLG,233,2,794,Correct,13,849
13,FKFXF,222,2,1002,Correct,13,700
13,DEDYD,162,2,1026,Correct,13,800
13,UXUVU,163,2,762,Correct,13,821
13,MCMOM,185,2,949,Correct,13,930
13,BXBUH,235,2,749,Correct,13,894
13,DMDMD,113,1,783,Correct,13,881
13,BXBDB,161,2,1167,Correct,13,823
13,AVAVA,151,1,1206,Correct,13,747
13,QUHUQ,223,1,784,Correct,13,761
13,BRBRB,113,1,790,Correct,13,777
13,ZHZHZ,11,1,789,Incorrect,13,945
13,VZVZV,13,1,1030,Correct,13,722
13,HBUQU,231,2,1463,Correct,13,923
13,EUEUE,113,1,711,Correct,13,694
13,RQRDR,161,2,927,Correct,13,702
13,COCOC,196,1,769,Correct,13,707
13,VNVSV,16,2,662,Correct,13,802
13,WHWHW,12,3,839,Correct,13,941
14,G,5,3,6625,New Target,14,899
14,EBEBE,151,1,1436,Correct,14,818
14,QPQUQ,161,2,1354,Correct,14,679
14,XDXDX,151,1,866,Correct,14,818
14,YXYXY,152,,,Incorrect,14,670
14,MBMBM,153,1,737,Correct,14,893
14,QMQKQ,161,2,936,Correct,14,670
14,EYETE,162,2,1056,Correct,14,877
14,UKUKU,151,1,903,Correct,14,745
14,MPGPM,223,1,1461,Correct,14,698
14,ANANA,113,1,1193,Correct,14,847
14,UAUAU,152,1,1213,Correct,14,914
14,ADASA,161,2,892,Correct,14,782
14,LKLGL,72,,,Incorrect,14,714
14,UWUWU,13,1,781,Correct,14,899
14,MCMUM,161,2,1050,Correct,14,755
14,YMYMY,151,1,872,Correct,14,717
14,RHRWR,171,2,1267,Correct,14,857
14,DUDCD,16,2,1121,Correct,14,728
14,ASAGA,82,,,Incorrect,14,826
14,DLDLD,13,2,838,Incorrect,14,944
14,ZXZDZ,161,2,1040,Correct,14,864
14,ULUFU,162,2,709,Correct,14,902
14,DPDPG,225,1,720,Correct,14,691
14,KHKTK,172,2,937,Correct,14,924
14,ZKZUZ,16,2,897,Correct,14,934
14,AKALA,162,2,1485,Correct,14,947
14,CNCNC,151,1,879,Correct,14,896
14,PGPGP,9,3,994,Correct,14,689
14,UPUPU,13,1,1442,Correct,14,881
14,FSGWF,233,2,690,Correct,14,704
14,CACVC,222,2,981,Correct,14,769
14,FTFTF,151,1,1459,Correct,14,713
14,KFKCK,161,2,1202,Correct,14,947
14,ZEZHZ,183,2,782,Correct,14,685
14,NSNSN,15,1,848,Correct,14,672
14,ENENE,152,1,784,Correct,14,850
14,LXLWG,235,2,764,Correct,14,786
14,SMSUS,222,2,962,Correct,14,679
14,ZHZHZ,194,,,Incorrect,14,734
14,PFPFP,15,1,1326,Correct,14,885
14,BABAB,152,1,1116,Correct,14,785
14,XPXUX,161,2,1541,Correct,14,685
14,ACACA,151,1,833,Correct,14,682
14,RGRGR,10,3,1041,Correct,14,673
14,URURU,13,1,829,Correct,14,819
14,PKPTP,161,2,688,Correct,14,726
14,SGSGS,11,3,897,Correct,14,888
14,GZYVY,231,2,754,Correct,14,719
14,UDUTU,222,2,656,Correct,14,828
14,VHVHV,195,2,1006,Incorrect,14,670
14,LWLNL,16,2,736,Correct,14,888
14,GKPKP,221,1,791,Correct,14,659
14,SQSPS,222,2,1244,Correct,14,795
14,WNWNW,151,1,848,Correct,14,698
14,MHMTM,176,2,1345,Incorrect,14,693
14,RZRZR,15,1,829,Correct,14,831
14,CGCDC,121,3,794,Correct,14,798
15,A,5,3,8764,New Target,15,696
15,WQWEW,161,2,897,Correct,15,786
15,RWRKR,162,2,1020,Correct,15,798
15,YRYRY,151,1,659,Correct,15,802
15,XOXOX,152,1,868,Correct,15,944
15,QPQPQ,153,1,698,Correct,15,677
15,TDTDT,154,1,587,Correct,15,749
15,WXWBW,161,2,824,Correct,15,699
15,TATAT,7,3,1115,Correct,15,662
15,MCMYM,14,2,734,Correct,15,842
15,SMSFS,162,2,806,Correct,15,656
15,ZLZMZ,163,2,908,Correct,15,687
15,VDVBV,164,2,778,Correct,15,712
15,XCXVX,165,2,1004,Correct,15,900
15,LKLBA,235,2,665,Correct,15,671
15,NDNDN,113,1,1197,Correct,15,840
15,YGYGY,191,1,881,Correct,15,795
15,VLVLV,15,1,955,Correct,15,833
15,WQWQW,152,1,627,Correct,15,732
15,MAMOM,81,3,1075,Correct,15,660
15,YZABY,233,2,1224,Correct,15,758
15,CFCFC,113,1,795,Correct,15,795
15,UTULU,161,2,912,Correct,15,788
15,KPKUK,162,2,853,Correct,15,928
15,TCTQT,163,2,1008,Correct,15,874
15,FGFGF,192,1,1382,Correct,15,871
15,RCRYR,16,2,930,Correct,15,696
15,KRKDK,162,2,1203,Correct,15,690
15,CRCRC,151,,,Incorrect,15,936
15,WOAOW,223,1,1365,Correct,15,807
15,LPLWL,222,2,839,Correct,15,944
15,DGDUD,173,,,Incorrect,15,714
15,EMEZE,16,2,1360,Correct,15,747
15,DADAD,9,3,955,Correct,15,908
15,WDWDW,13,2,1006,Incorrect,15,820
15,AWQWQ,221,2,1504,Incorrect,15,685
15,TKTQT,222,2,1029,Correct,15,779
15,MTMFM,162,2,979,Correct,15,699
15,KAKAK,10,3,973,Correct,15,762
15,BDBRB,14,2,858,Correct,15,792
15,QPQPQ,151,1,888,Correct,15,695
15,NDNDN,152,1,1206,Correct,15,895
15,QYQGQ,184,2,726,Correct,15,782
15,VPVPV,15,1,912,Correct,15,672
15,RDRDA,225,1,766,Correct,15,815
15,KWKOK,222,2,900,Correct,15,684
15,TPTPT,151,1,801,Correct,15,702
15,DCDCD,152,1,1139,Correct,15,748
15,OWOAO,112,3,1084,Correct,15,682
15,ZCZNZ,14,2,944,Correct,15,871
15,MYMGM,185,2,887,Correct,15,939
15,ANLOL,231,2,1279,Correct,15,863
15,DWDPD,222,2,866,Correct,15,730
15,YQYQY,151,1,726,Correct,15,713
15,LGLGL,196,1,633,Correct,15,694
15,VYVLV,16,2,993,Correct,15,821
15,MVMVM,151,1,1063,Correct,15,950
15,QMQMQ,152,1,749,Correct,15,797
15,SXSXS,153,1,802,Correct,15,719
15,WAWAW,12,3,1006,Correct,15,881
