Trial No,Stimulus,Trigger,Response,Response Time(ms),Correct,Block,Fixation Duration
Practice
OT Practice
1,SKSKS,15,1,632,Correct,0,732
1,DLDUD,16,2,632,Correct,0,697
1,PDPGP,16,2,816,Correct,0,880
1,MWMWM,15,1,458,Correct,0,712
1,FTFTF,15,2,443,False,0,840
1,AXAMA,16,2,624,Correct,0,792
1,RYRGR,16,2,617,Correct,0,870
1,DODOD,15,1,534,Correct,0,761
1,QTQAQ,16,2,534,Correct,0,820
1,YEYEY,15,1,449,Correct,0,868
2,GYGDG,16,2,580,Correct,0,870
2,SWSWS,15,1,504,Correct,0,669
2,HLHUH,16,2,556,Correct,0,772
2,DEDED,15,1,716,Correct,0,796
2,ZPZOZ,16,2,535,Correct,0,761
2,ATATA,15,1,455,Correct,0,773
2,QOQOQ,15,1,471,Correct,0,867
2,FPFGF,16,2,627,Correct,0,896
2,TRTET,16,2,508,Correct,0,857
2,DQDQD,15,1,721,Correct,0,678
4,PLPLP,15,1,697,Correct,0,786
4,ATAIA,16,2,544,Correct,0,884
4,SKSGS,16,2,604,Correct,0,904
4,ZYZYZ,15,1,715,Correct,0,784
4,QSQSQ,15,1,511,Correct,0,897
4,TZTDT,16,2,550,Correct,0,677
4,JYJGJ,16,2,657,Correct,0,934
4,DYDYD,15,1,462,Correct,0,736
4,LTLCL,16,2,508,Correct,0,883
4,FQFEF,16,2,527,Correct,0,774
AT Practice
1,TKTKT,15,1,1012,Correct,0,846
1,SLSUS,16,2,519,Correct,0,665
1,VZVGV,7,3,764,Correct,0,653
1,XWXZX,7,2,713,False,0,680
1,ATATA,15,1,796,Correct,0,937
1,HXZMH,16,2,580,Correct,0,796
1,TZTZT,7,3,463,Correct,0,899
1,UOUOU,15,1,590,Correct,0,908
1,ZTWAW,16,2,476,Correct,0,833
1,RZRER,7,3,528,Correct,0,732
2,JYJDJ,16,2,791,Correct,0,721
2,DWDWD,15,1,777,Correct,0,887
2,GNGNG,7,1,1178,False,0,896
2,NEZEZ,16,1,1053,Correct,0,935
2,RNROR,7,3,651,Correct,0,779
2,QTQNQ,7,3,728,Correct,0,782
2,HOHON,15,1,869,Correct,0,719
2,KPKGK,16,2,807,Correct,0,848
2,DRDED,16,2,976,Correct,0,716
2,LNLNL,7,3,759,Correct,0,677
4,GLGLG,15,1,1057,Correct,0,916
4,DTDID,16,2,621,Correct,0,758
4,SMSGS,16,2,863,Correct,0,673
4,ZFZYZ,7,3,767,Correct,0,861
4,TSTFT,7,3,867,Correct,0,893
4,OFOFO,7,3,687,Correct,0,939
4,WYFGW,16,2,660,Correct,0,901
4,WYWYW,15,1,432,Correct,0,781
4,MFMCM,7,3,669,Correct,0,919
4,HQHEH,16,2,835,Correct,0,906
Trials
1,D,5,3,10827,New Target,1,887
1,BNBYB,161,2,990,Correct,1,868
1,FBFBF,151,1,724,Correct,1,720
1,RKRKR,152,1,830,Correct,1,865
1,QSQNQ,161,2,883,Correct,1,887
1,CTCFC,162,2,849,Correct,1,659
1,PDPDP,7,3,577,Correct,1,936
1,OPOFO,14,2,733,Correct,1,918
1,HLHNH,162,2,824,Correct,1,832
1,MFMFM,151,3,852,Incorrect,1,719
1,BTBTB,152,1,929,Correct,1,699
1,MCMPD,235,2,937,Correct,1,777
1,BMBFB,222,2,832,Correct,1,764
1,NTNZN,162,2,1015,Correct,1,756
1,MXMRM,163,2,745,Correct,1,820
1,APABA,164,2,1106,Correct,1,885
1,FMDMF,223,1,805,Correct,1,665
1,QPQPQ,113,1,814,Correct,1,840
1,VQVMV,161,2,1192,Correct,1,749
1,RERPR,162,2,822,Correct,1,668
1,KVKVK,151,1,827,Correct,1,913
1,AKAHA,161,2,903,Correct,1,686
1,VDVDV,8,1,527,Incorrect,1,720
1,DUGUG,221,2,687,Incorrect,1,869
1,AFAFA,113,1,860,Correct,1,823
1,GYGYG,152,1,724,Correct,1,814
1,VXVSV,161,2,748,Correct,1,931
1,DOWGW,231,2,1145,Correct,1,776
1,QYQYQ,113,1,793,Correct,1,698
1,ODONO,91,3,815,Correct,1,905
1,MSMSM,13,1,681,Correct,1,752
1,GYGYG,152,1,682,Correct,1,722
1,UMUMU,153,1,747,Correct,1,723
1,BZBZB,154,1,723,Correct,1,850
1,NTNBN,161,2,945,Correct,1,742
1,GNDYG,233,2,1002,Correct,1,729
1,OCOSO,222,2,924,Correct,1,828
1,BHBFB,162,2,1088,Correct,1,860
1,QCQBQ,163,2,874,Correct,1,907
1,LQLQL,151,1,930,Correct,1,743
1,ZDZDZ,10,3,1556,Correct,1,815
1,QNQZQ,14,2,1370,Correct,1,715
1,CSCYC,162,2,847,Correct,1,877
1,RCRLR,163,2,911,Correct,1,831
1,FRFRF,151,1,1358,Correct,1,657
1,WFWFW,152,1,1323,Correct,1,723
1,QOQLQ,161,2,862,Correct,1,665
1,AWAQA,162,2,1004,Correct,1,870
1,EAEAE,151,1,1074,Correct,1,849
1,AGAUA,161,2,925,Correct,1,736
1,YMYMY,151,1,1039,Correct,1,949
1,XQXQX,152,1,760,Correct,1,873
1,SHSGS,161,2,779,Correct,1,672
1,PDPDP,11,3,771,Correct,1,723
1,ZGZGZ,13,1,757,Correct,1,680
1,OXOXO,152,1,1147,Correct,1,731
1,LYLYL,153,1,754,Correct,1,672
1,NKNKD,225,1,1079,Correct,1,734
1,GNGNG,113,1,814,Correct,1,933
1,OYOBO,161,2,1192,Correct,1,875
1,SOSOS,151,1,910,Correct,1,652
1,VHVHV,152,1,861,Correct,1,667
1,OKOXO,161,2,716,Correct,1,831
1,EZEZE,151,1,1284,Correct,1,687
1,LDLDL,12,3,707,Correct,1,904
2,U,5,3,3829,New Target,2,728
2,BVBEB,161,2,878,Correct,2,792
2,FBFBF,151,1,856,Correct,2,885
2,RFRFR,152,1,828,Correct,2,747
2,NBNKN,161,2,781,Correct,2,777
2,MKMNM,162,2,1008,Correct,2,750
2,QXQXQ,151,1,729,Correct,2,748
2,MQMYM,161,2,847,Correct,2,682
2,TGTPT,162,2,817,Correct,2,801
2,XOXOX,151,1,729,Correct,2,673
2,CUCUC,7,3,688,Correct,2,681
2,RFRFR,13,1,710,Correct,2,807
2,VYVSV,161,2,645,Correct,2,783
2,VDVDV,191,1,,Correct,2,833
2,GKGQG,15,2,1016,Correct,2,690
2,SCSCS,151,1,824,Correct,2,949
2,CTCUC,82,3,753,Correct,2,884
2,RCRCR,13,1,790,Correct,2,787
2,BOBXB,161,2,663,Correct,2,779
2,FMFAF,162,2,749,Correct,2,726
2,BEBAB,163,2,1127,Correct,2,761
2,PWPWP,151,1,711,Correct,2,917
2,UQCKC,231,2,789,Correct,2,942
2,OCOCO,113,1,648,Correct,2,693
2,TNTNT,152,1,744,Correct,2,692
2,QCQGQ,161,2,797,Correct,2,773
2,WVWVW,151,1,987,Correct,2,769
2,TQTQT,152,1,695,Correct,2,680
2,FOFOF,225,1,675,Correct,2,668
2,WVWFW,222,2,1005,Correct,2,679
2,SWSWS,151,1,643,Correct,2,886
2,FYFCF,161,2,629,Correct,2,880
2,SUSWS,91,2,591,Incorrect,2,726
2,CACHC,14,2,712,Correct,2,825
2,VDVKV,172,2,821,Correct,2,914
2,YCYCY,15,1,696,Correct,2,715
2,NMNTN,161,2,627,Correct,2,684
2,XOUKX,233,2,1243,Correct,2,768
2,BPBPB,113,1,1079,Correct,2,838
2,MRMRM,152,1,772,Correct,2,697
2,XMXMX,153,1,708,Correct,2,724
2,AUAHA,101,3,872,Correct,2,860
2,XKXEU,235,2,1081,Correct,2,757
2,TFTFT,113,1,686,Correct,2,860
2,MDMDM,193,1,611,Correct,2,787
2,WYWMW,16,2,701,Correct,2,695
2,AZUZA,223,1,1171,Correct,2,757
2,KEKHK,222,2,682,Correct,2,753
2,LALAL,151,1,764,Correct,2,720
2,CWCDC,184,2,890,Incorrect,2,921
2,SGSTS,16,2,885,Correct,2,861
2,PXPXP,151,1,674,Correct,2,927
2,GRGYG,161,2,876,Correct,2,671
2,PUPOP,111,3,832,Correct,2,839
2,RNRNR,14,1,758,Correct,2,734
2,KDKDK,195,1,712,Correct,2,893
2,KTKTK,15,1,792,Correct,2,871
2,OROKO,161,2,850,Correct,2,676
2,UNANA,221,1,929,Correct,2,787
2,TATAT,113,1,602,Correct,2,869
2,AWAWA,152,1,681,Incorrect,2,652
2,RDRDR,196,1,704,Correct,2,684
2,FCFCF,15,1,560,Correct,2,855
2,ZMZMZ,152,1,679,Correct,2,901
2,BUBUB,12,1,602,Incorrect,2,919
3,E,5,3,4097,New Target,3,840
3,YZYZY,151,1,829,Correct,3,868
3,VFVNV,161,2,655,Correct,3,662
3,KAKAK,151,1,813,Correct,3,768
3,TKTKT,152,1,1043,Correct,3,823
3,WHWTW,161,2,710,Correct,3,919
3,QEQFQ,71,3,833,Correct,3,737
3,XNXNX,13,1,849,Correct,3,801
3,TXTXT,152,1,703,Correct,3,836
3,GLGNG,161,2,773,Correct,3,771
3,CUCTC,171,2,696,Correct,3,800
3,FAFQF,16,2,1063,Correct,3,940
3,ZLZLZ,151,1,871,Correct,3,905
3,YZYZY,152,1,1346,Correct,3,802
3,CYCYC,153,1,854,Correct,3,651
3,HUHUH,192,1,589,Correct,3,914
3,OSORO,16,2,792,Correct,3,773
3,YOYOY,151,1,639,Correct,3,658
3,CECEC,8,3,772,Correct,3,934
3,VNENV,223,1,1007,Correct,3,884
3,KQKFK,222,2,808,Correct,3,770
3,XLXLE,225,1,940,Correct,3,653
3,QFQUQ,183,2,1245,Correct,3,731
3,SWSLS,16,2,692,Correct,3,945
3,NBNPN,162,2,855,Correct,3,828
3,SGSGS,151,1,924,Correct,3,748
3,FBFBF,152,1,808,Correct,3,712
3,PFPFP,153,1,666,Correct,3,799
3,AGASA,161,2,693,Correct,3,698
3,KEKEK,9,3,858,Correct,3,941
3,CWCOC,14,2,1252,Correct,3,859
3,HXHXH,151,1,884,Correct,3,846
3,NUNZN,174,2,790,Correct,3,679
3,QMQVQ,16,2,753,Correct,3,761
3,SQSQS,151,1,641,Correct,3,917
3,ERNFN,231,2,743,Incorrect,3,736
3,AQANA,222,2,889,Correct,3,874
3,OBOEO,102,3,999,Correct,3,685
3,SYSXS,14,2,886,Correct,3,767
3,QBQHQ,162,2,797,Correct,3,867
3,XQXQX,151,1,828,Correct,3,860
3,KUKFK,175,2,1307,Correct,3,699
3,RKRKR,15,1,1384,Correct,3,825
3,GFGFG,152,1,985,Correct,3,695
3,YBYVY,161,2,858,Correct,3,879
3,SPSTS,162,2,1119,Correct,3,760
3,AQAQA,151,1,1072,Correct,3,862
3,EPVPV,221,1,1027,Correct,3,843
3,CQCEC,112,3,980,Correct,3,668
3,RFRCR,14,2,1267,Correct,3,734
3,CPCVC,162,2,913,Correct,3,766
3,RXRCR,163,2,822,Correct,3,894
3,TNTLT,164,2,892,Correct,3,735
3,BSBSB,151,1,1129,Correct,3,858
3,ZBZBZ,152,1,812,Correct,3,793
3,OYOUO,186,2,1054,Correct,3,766
3,AKAOA,16,2,1030,Correct,3,883
3,YQEWY,233,2,964,Correct,3,911
3,ZMZMZ,113,1,744,Correct,3,885
3,SWSTS,161,2,641,Correct,3,817
3,MFMQE,235,2,1022,Correct,3,861
3,RSRLR,222,2,749,Correct,3,687
3,QEQWQ,121,3,716,Correct,3,835
4,K,5,3,4273,New Target,4,855
4,CACHC,161,2,694,Correct,4,651
4,RWRCR,162,2,606,Correct,4,719
4,FOFVF,163,2,735,Correct,4,867
4,LGLGL,151,1,651,Correct,4,661
4,PLPLP,152,1,720,Correct,4,759
4,NPNPN,153,1,956,Correct,4,677
4,SGSZS,161,2,734,Correct,4,709
4,DNDMD,162,2,817,Correct,4,845
4,OCOAK,235,2,978,Correct,4,688
4,VYVYV,113,1,1214,Correct,4,785
4,RLRLR,152,1,590,Correct,4,762
4,DKDKD,7,3,874,Correct,4,742
4,ZLZLZ,13,1,742,Correct,4,941
4,FZFZF,152,1,757,Correct,4,784
4,CFCFC,153,1,597,Correct,4,856
4,OZOZO,154,1,586,Correct,4,938
4,XEXEX,191,1,1295,Correct,4,824
4,NVNFN,16,2,699,Correct,4,855
4,AYAYA,151,1,774,Correct,4,704
4,BNBVB,161,2,949,Correct,4,839
4,AHKXA,233,2,1375,Correct,4,787
4,WFWFW,113,1,728,Correct,4,828
4,SNSNS,152,1,609,Correct,4,703
4,FKFMF,81,3,958,Correct,4,716
4,DZDYD,14,2,804,Correct,4,797
4,GXGDG,162,2,867,Correct,4,802
4,AYAYK,225,1,852,Correct,4,762
4,FPFGF,222,2,1315,Correct,4,893
4,WRWRW,151,1,750,Correct,4,886
4,YPYEY,182,2,875,Correct,4,876
4,SQSQS,15,1,901,Correct,4,918
4,WZWPW,161,2,727,Correct,4,698
4,CKCKC,9,3,898,Correct,4,887
4,BWBVB,14,2,780,Correct,4,873
4,HMHMH,151,1,750,Correct,4,810
4,VEVNV,173,2,819,Correct,4,704
4,GMGVG,16,2,816,Correct,4,825
4,XHXKX,102,3,899,Correct,4,763
4,QXQRQ,14,2,857,Correct,4,897
4,LQLQL,151,1,812,Correct,4,764
4,ALELA,223,1,725,Correct,4,900
4,TPTKT,222,3,737,Incorrect,4,731
4,GEGEG,194,1,674,Correct,4,739
4,ZNZNZ,15,1,689,Correct,4,886
4,YZYZY,152,1,730,Correct,4,889
4,SYSYS,153,1,650,Correct,4,881
4,ZSZSZ,221,1,643,Correct,4,757
4,LALGL,222,2,732,Correct,4,728
4,CYCTC,162,2,743,Correct,4,933
4,WEWEW,195,1,615,Correct,4,844
4,CHCSC,16,2,1156,Correct,4,824
4,GWGXG,162,2,630,Correct,4,822
4,FGFGF,151,1,736,Correct,4,795
4,QWQKQ,112,3,673,Correct,4,766
4,OQOFO,14,2,778,Correct,4,691
4,PMPEP,186,2,767,Correct,4,759
4,WBWPW,16,2,807,Correct,4,735
4,KCDHD,231,2,649,Correct,4,666
4,RSRWR,222,2,954,Correct,4,868
4,HGHGH,151,2,1281,Incorrect,4,899
4,SKSKS,12,3,892,Correct,4,900
5,L,5,3,1863,New Target,5,848
5,PDPDP,151,1,770,Correct,5,658
5,WAWAW,152,1,806,Correct,5,748
5,HWHWH,153,1,947,Correct,5,868
5,SHSHS,154,1,882,Correct,5,748
5,BRBWB,161,2,698,Correct,5,866
5,FPFBF,162,2,804,Correct,5,718
5,GAGAG,151,1,689,Correct,5,839
5,QVQGQ,161,2,890,Correct,5,709
5,CLCLC,7,3,768,Correct,5,916
5,XWXWX,13,1,973,Correct,5,904
5,AUAUA,152,1,1061,Correct,5,948
5,CKCKC,191,2,1440,Incorrect,5,692
5,FNFCF,16,2,991,Correct,5,934
5,UHUQU,162,2,1080,Correct,5,837
5,FZFZF,151,1,780,Correct,5,907
5,THLHT,223,1,842,Correct,5,785
5,CUCLC,82,3,718,Correct,5,817
5,BSBSB,13,1,1067,Correct,5,912
5,FDFBF,161,2,801,Correct,5,814
5,LXRXR,221,1,808,Correct,5,673
5,ZOZNZ,222,2,692,Correct,5,883
5,UZUZU,151,,,Incorrect,5,708
5,AQATA,161,2,603,Correct,5,867
5,UNUPU,162,2,810,Correct,5,719
5,RVRKR,182,2,1014,Correct,5,928
5,URURU,15,1,1004,Correct,5,842
5,VLVLV,9,3,1000,Correct,5,715
5,DXDVD,14,2,690,Correct,5,715
5,PZPZP,151,1,680,Correct,5,912
5,LXUMU,231,2,765,Correct,5,685
5,AKADA,173,2,599,Incorrect,5,724
5,HYHYH,15,1,817,Correct,5,665
5,AVAVA,152,1,846,Correct,5,902
5,TUTUT,153,1,833,Correct,5,821
5,XYXWX,161,2,860,Correct,5,802
5,TKTDT,174,2,774,Correct,5,939
5,NXNYN,16,2,857,Correct,5,832
5,USUCU,162,2,916,Correct,5,761
5,ZMZMZ,151,1,765,Correct,5,872
5,WRWAW,161,2,959,Correct,5,813
5,GWGXG,162,2,762,Correct,5,801
5,MUMYL,235,2,988,Correct,5,771
5,CNCNC,113,1,732,Correct,5,690
5,RLRLR,10,3,763,Correct,5,873
5,UAUWU,14,2,593,Correct,5,700
5,FXLRF,233,2,823,Correct,5,923
5,PFPFP,113,1,883,Correct,5,839
5,HPHPH,152,1,902,Correct,5,812
5,GKGKG,195,1,1052,Correct,5,833
5,ZUZTZ,16,2,913,Correct,5,854
5,AVASA,162,2,657,Correct,5,693
5,PRPRP,151,1,982,Correct,5,900
5,YPYPY,152,1,559,Correct,5,814
5,ZLZOZ,111,3,713,Correct,5,676
5,WMWSW,14,2,723,Correct,5,691
5,RZRXR,162,2,645,Correct,5,750
5,QWQWQ,151,1,769,Correct,5,755
5,ZKZKZ,196,1,884,Correct,5,857
5,CVCVL,225,1,950,Incorrect,5,675
5,NMNMN,113,1,875,Correct,5,859
5,TRTGT,161,2,1037,Correct,5,705
5,CTCTC,151,1,666,Correct,5,839
5,RKRLR,122,3,1003,Correct,5,888
6,B,5,3,6327,New Target,6,852
6,YMYGY,161,2,744,Correct,6,770
6,HUHRH,162,2,543,Correct,6,727
6,WHWHW,151,1,1013,Correct,6,796
6,MGMRM,161,2,551,Correct,6,914
6,ZVZWZ,162,2,733,Correct,6,926
6,RCRTR,163,2,707,Correct,6,837
6,DSDRD,164,2,775,Correct,6,737
6,VTBDV,233,2,586,Correct,6,655
6,DSDHD,222,2,655,Correct,6,834
6,QEQEQ,151,1,664,Correct,6,735
6,XOXQX,161,2,772,Correct,6,737
6,RARBR,72,3,616,Correct,6,752
6,GMGMG,13,1,748,Correct,6,933
6,ELERE,171,2,608,Correct,6,738
6,HZHUH,16,2,900,Correct,6,820
6,RHRVR,162,2,957,Correct,6,941
6,YBYBY,8,3,751,Correct,6,665
6,PYPVP,14,2,601,Correct,6,651
6,TLTLT,192,1,613,Correct,6,789
6,QTQTQ,15,1,879,Correct,6,722
6,NXNVN,161,2,794,Correct,6,752
6,QNQNQ,151,1,589,Correct,6,769
6,FUFHF,161,2,756,Correct,6,823
6,YVYFB,235,2,844,Incorrect,6,733
6,WQWSW,222,2,702,Correct,6,810
6,HNHLH,193,2,766,Incorrect,6,856
6,OSOTO,16,2,737,Correct,6,808
6,GWGOG,162,2,779,Correct,6,949
6,UBUBU,9,3,782,Correct,6,787
6,CWCWC,13,3,829,Incorrect,6,932
6,OCOEO,161,2,688,Correct,6,704
6,MNMNM,151,1,762,Correct,6,950
6,XLXLX,194,1,847,Correct,6,852
6,AYAYA,15,1,700,Correct,6,899
6,FUFAF,161,2,686,Correct,6,859
6,ANAQA,162,2,668,Correct,6,918
6,BUPWP,231,2,977,Correct,6,816
6,WSWSW,113,1,575,Correct,6,712
6,FRFRF,152,1,788,Correct,6,876
6,AUAUA,153,1,888,Correct,6,798
6,GMGCG,161,2,763,Correct,6,660
6,HLHWH,175,2,706,Correct,6,674
6,PQBQP,223,1,739,Correct,6,826
6,AZABA,102,3,545,Correct,6,913
6,CWCVC,14,2,715,Correct,6,891
6,FAFAF,151,1,621,Correct,6,815
6,VMVSV,161,2,980,Correct,6,683
6,GBGBG,11,3,764,Correct,6,921
6,FOFNF,14,2,592,Correct,6,672
6,DSDSD,151,1,744,Correct,6,908
6,YDYDY,152,1,883,Correct,6,893
6,FOFOF,153,1,571,Correct,6,946
6,CHCHB,225,2,658,Incorrect,6,827
6,ZCZCZ,113,1,938,Correct,6,677
6,DZDGD,161,2,729,Correct,6,749
6,MLMEM,176,2,733,Correct,6,790
6,PXPXP,15,1,679,Correct,6,668
6,QYQYQ,152,1,639,Correct,6,845
6,GRGCG,161,2,692,Correct,6,731
6,QVQVQ,151,1,588,Correct,6,697
6,XYXNX,161,2,732,Correct,6,675
6,BHMHM,221,1,736,Correct,6,809
6,CBCBC,12,3,626,Correct,6,840
7,W,5,3,2075,New Target,7,683
7,QKQKQ,151,1,753,Correct,7,872
7,DUDQD,161,2,686,Correct,7,819
7,OKOKO,151,1,545,Correct,7,874
7,EOEOE,152,1,735,Correct,7,775
7,URUPU,161,2,652,Correct,7,895
7,GMGAG,162,2,659,Correct,7,842
7,HVWDH,233,2,1219,Correct,7,837
7,MHMHM,113,1,838,Correct,7,731
7,YXYVY,161,2,1382,Correct,7,825
7,FNFNF,151,1,696,Correct,7,916
7,AWAWA,7,3,802,Correct,7,727
7,ZAZAZ,13,1,640,Correct,7,883
7,OYOYO,152,1,588,Correct,7,672
7,SQSQS,153,1,678,Correct,7,753
7,OSOSO,154,1,542,Correct,7,739
7,FCFBF,181,2,653,Correct,7,741
7,EUEUE,15,1,548,Correct,7,684
7,CYCGC,161,2,643,Correct,7,704
7,SZSUS,162,2,681,Correct,7,796
7,OFOFO,151,1,588,Correct,7,806
7,RVRUR,161,2,826,Correct,7,816
7,ZBZBZ,192,1,793,Correct,7,724
7,UCUTU,16,2,898,Correct,7,670
7,NWNWN,8,3,783,Correct,7,764
7,XNXUX,14,2,901,Correct,7,780
7,CXCNC,162,2,752,Correct,7,817
7,AUAUW,225,1,760,Correct,7,710
7,HEHEH,113,1,694,Correct,7,855
7,UFWFU,223,1,647,Correct,7,920
7,HVHEH,222,2,713,Correct,7,839
7,YBYBY,193,1,598,Correct,7,907
7,OYOYO,15,1,987,Correct,7,919
7,TMTWT,91,3,940,Correct,7,683
7,HTHTH,13,1,760,Correct,7,676
7,UHUHU,152,1,646,Correct,7,920
7,EVEBE,184,2,1059,Incorrect,7,722
7,HZHMH,16,2,1286,Correct,7,838
7,VHVCV,162,2,1088,Correct,7,846
7,WAGDG,231,2,1109,Correct,7,799
7,PFPFP,113,1,1005,Correct,7,810
7,OQOQO,152,1,998,Correct,7,738
7,TWTWT,10,3,831,Correct,7,773
7,VKVDV,14,2,865,Correct,7,734
7,WPAPA,221,1,784,Correct,7,720
7,HBHBH,195,1,527,Correct,7,905
7,ZMZAZ,16,2,829,Correct,7,743
7,SYSYS,151,1,1010,Correct,7,689
7,FZFXF,161,2,933,Correct,7,887
7,SMSMS,151,1,1298,Correct,7,837
7,XOXOX,152,1,712,Correct,7,897
7,FWFWF,11,3,878,Correct,7,687
7,ENEBE,186,2,851,Correct,7,747
7,ZVZGZ,16,2,939,Correct,7,882
7,EZEZE,151,1,786,Correct,7,914
7,TOTEW,235,2,886,Correct,7,687
7,PDPDP,113,1,1303,Correct,7,655
7,TKTWT,122,3,741,Correct,7,835
8,M,5,3,2164,New Target,8,722
8,VYVNV,161,2,1090,Correct,8,710
8,KLKTK,162,2,840,Correct,8,778
8,NQNQN,151,1,677,Correct,8,807
8,VHVEV,161,2,661,Correct,8,922
8,XNXNM,225,1,784,Correct,8,752
8,USUVU,222,2,654,Correct,8,902
8,KRKZK,162,2,737,Correct,8,787
8,TMTET,71,3,1031,Correct,8,787
8,GFGFG,13,,,Incorrect,8,860
8,OPODO,161,2,930,Correct,8,761
8,KCKCK,151,1,608,Correct,8,706
8,VTVTV,152,1,806,Correct,8,856
8,LSLSL,153,1,642,Correct,8,921
8,DLDLD,154,1,564,Correct,8,747
8,NYNYN,155,1,594,Correct,8,818
8,DCMAD,233,2,740,Correct,8,930
8,TDTDT,113,1,650,Correct,8,694
8,GVGRG,161,2,673,Correct,8,877
8,ZUZUZ,151,1,744,Correct,8,743
8,OGOVO,161,2,572,Correct,8,693
8,PWPTP,171,2,645,Correct,8,750
8,KLKDM,235,2,883,Correct,8,655
8,SMSMS,8,3,1104,Correct,8,748
8,PRPSP,14,2,953,Correct,8,661
8,DVDYD,162,2,618,Correct,8,652
8,PXPMP,92,3,726,Correct,8,694
8,GDGLG,14,2,648,Correct,8,759
8,SWSWS,192,1,1438,Correct,8,822
8,GDGLG,16,2,710,Correct,8,864
8,MTCYC,231,2,694,Correct,8,789
8,GSGSG,113,1,650,Correct,8,914
8,YQYTY,161,2,703,Correct,8,746
8,ZLZPZ,162,2,526,Correct,8,917
8,HZHZH,151,1,619,Correct,8,676
8,MSOSO,221,1,628,Correct,8,801
8,HWHWH,193,,,Incorrect,8,875
8,PYPAP,16,2,697,Correct,8,895
8,SPSVS,162,2,575,Correct,8,724
8,XLXLX,151,1,579,Correct,8,909
8,YMYMY,10,3,857,Correct,8,838
8,HYHYH,13,1,967,Correct,8,751
8,OWOGO,174,2,1125,Correct,8,793
8,PHPOP,16,2,805,Correct,8,906
8,NPNSN,162,2,898,Correct,8,937
8,HVMVH,223,1,925,Correct,8,940
8,THTFT,222,2,1010,Correct,8,944
8,STSTS,151,1,603,Correct,8,843
8,AGAMA,112,2,838,Incorrect,8,748
8,PEPEP,13,1,943,Correct,8,947
8,ZWZWZ,195,1,1278,Correct,8,764
8,ODOZO,16,2,670,Correct,8,654
8,LRLOL,162,2,754,Correct,8,858
8,GZGZG,151,1,707,Correct,8,811
8,TGTGT,152,1,668,Correct,8,768
8,CUCSC,161,2,641,Correct,8,834
8,SCSCS,151,1,536,Correct,8,838
8,AWAWA,196,1,888,Correct,8,932
8,NLNLN,15,1,720,Correct,8,909
8,VNVNV,152,1,787,Correct,8,922
8,GMGMG,12,3,896,Correct,8,770
9,S,5,3,3193,New Target,9,859
9,NBNBN,151,1,898,Correct,9,719
9,KVKZK,161,2,783,Correct,9,824
9,LBLBL,151,1,636,Correct,9,908
9,XLXLX,152,1,753,Correct,9,800
9,ZXZXZ,153,1,770,Correct,9,890
9,KNKZK,161,2,727,Correct,9,668
9,TQTAT,162,2,1032,Correct,9,809
9,CLCUC,163,2,863,Correct,9,884
9,ZCZFZ,164,2,884,Correct,9,903
9,NSNSN,7,3,1032,Correct,9,719
9,HGHGH,13,1,723,Correct,9,745
9,THTDT,161,2,716,Correct,9,894
9,VMVMV,191,1,1062,Correct,9,769
9,CVCDC,16,2,618,Correct,9,818
9,ZAZRZ,162,2,964,Correct,9,747
9,XTXZX,163,2,835,Correct,9,723
9,OXOXO,151,1,638,Correct,9,837
9,DCDSD,82,3,816,Correct,9,830
9,PQPDP,14,2,660,Correct,9,712
9,ZMZMZ,192,1,708,Incorrect,9,651
9,BEBEB,15,1,688,Correct,9,904
9,FCFCF,152,1,698,Correct,9,698
9,YAYBY,161,2,723,Correct,9,724
9,KNKVK,162,2,727,Correct,9,664
9,SEPCP,231,2,839,Correct,9,822
9,OPOPO,113,1,714,Correct,9,746
9,XMXMX,193,1,602,Correct,9,820
9,KEKEK,15,1,590,Correct,9,887
9,USUSU,9,3,813,Correct,9,682
9,YHSHY,223,1,748,Correct,9,782
9,UPUPU,113,1,619,Correct,9,836
9,XZXZX,152,1,625,Correct,9,815
9,KGKXK,161,2,649,Correct,9,710
9,QEQPQ,162,2,705,Correct,9,863
9,NUNUS,225,1,722,Correct,9,776
9,BXBXB,113,1,730,Correct,9,669
9,SQHQH,221,1,621,Correct,9,848
9,ACACA,113,1,640,Correct,9,934
9,KMKBK,174,2,630,Correct,9,680
9,EGSVE,233,2,713,Correct,9,931
9,HYHYH,113,1,717,Correct,9,808
9,LULUL,152,1,678,Correct,9,726
9,AEAEA,153,1,1066,Correct,9,798
9,TXTST,102,3,1184,Correct,9,842
9,FDFCF,14,1,849,Incorrect,9,854
9,KVKVK,151,1,809,Correct,9,881
9,UBUCU,161,2,647,Correct,9,833
9,GAGMG,185,2,770,Correct,9,750
9,UXUGU,16,2,892,Correct,9,934
9,HOHOH,151,1,721,Correct,9,665
9,QUQTS,235,2,833,Correct,9,819
9,YZYZY,113,1,759,Correct,9,662
9,BSBSB,11,1,794,Incorrect,9,826
9,FEFEF,13,1,887,Correct,9,883
9,GMGMG,196,1,673,Correct,9,863
9,TGTXT,16,2,619,Correct,9,790
9,LSLFL,121,3,841,Correct,9,655
10,Q,5,3,10085,New Target,10,869
10,ZHZOZ,161,2,880,Correct,10,935
10,RZRZR,151,1,713,Correct,10,912
10,BFBFB,152,1,765,Correct,10,747
10,GBGBG,153,1,713,Correct,10,950
10,OGOXO,161,2,782,Correct,10,769
10,UEQOU,233,2,1219,Correct,10,677
10,BOBRB,222,2,886,Correct,10,729
10,DYDVD,162,2,871,Correct,10,804
10,COCOC,151,1,928,Correct,10,818
10,YZYQY,72,3,667,Correct,10,890
10,FHFWF,14,2,646,Correct,10,741
10,ANANQ,225,1,818,Correct,10,681
10,ZAZAZ,113,1,666,Correct,10,939
10,ERESE,181,2,866,Incorrect,10,741
10,XTXOX,16,2,907,Correct,10,932
10,NXNXN,151,1,747,Correct,10,757
10,OVOZO,161,2,673,Correct,10,784
10,WUWOW,162,2,865,Correct,10,838
10,FWFVF,163,2,766,Correct,10,941
10,NSNKN,172,2,1139,Incorrect,10,706
10,VWVNV,16,2,1064,Correct,10,716
10,XZXZX,151,1,619,Correct,10,942
10,VQVQV,8,1,528,Incorrect,10,884
10,GYGPG,14,2,973,Correct,10,756
10,OBOSO,183,2,808,Correct,10,824
10,YUYUY,15,1,666,Correct,10,668
10,NDNQN,92,3,788,Correct,10,794
10,FCFHF,14,2,707,Correct,10,745
10,EFEFE,151,1,835,Correct,10,789
10,NSNSN,194,1,836,Correct,10,837
10,YPYFY,16,2,664,Correct,10,698
10,ZKZKZ,151,3,1091,Incorrect,10,940
10,QZQDR,231,2,1195,Correct,10,770
10,AOAHA,222,2,935,Correct,10,940
10,BGBGB,151,1,865,Correct,10,807
10,HQHQH,10,3,639,Correct,10,846
10,UHUBU,14,2,711,Correct,10,918
10,KRKSK,185,2,721,Correct,10,947
10,TOTOT,15,1,872,Correct,10,816
10,APAPA,152,1,918,Correct,10,729
10,VDVYV,161,2,710,Correct,10,727
10,FOFTF,162,2,688,Correct,10,885
10,QVXVX,221,1,703,Correct,10,652
10,GHGRG,222,2,611,Correct,10,660
10,LFLFL,151,1,652,Correct,10,863
10,HLHLH,152,1,799,Correct,10,882
10,KWQWK,223,1,738,Correct,10,714
10,YQYQY,11,3,902,Correct,10,700
10,ADADA,13,1,760,Correct,10,681
10,OGOAO,161,2,1180,Correct,10,746
10,EOEFE,162,2,1024,Correct,10,834
10,USUSU,196,1,790,Correct,10,778
10,VFVAQ,235,2,1205,Correct,10,858
10,DZDXD,222,2,712,Correct,10,702
10,HVHDH,162,2,875,Correct,10,907
10,DWDWD,151,1,1431,Correct,10,851
10,GBGBG,152,1,1377,Correct,10,772
10,AOADA,161,2,918,Correct,10,798
10,GQGQG,12,3,822,Correct,10,676
11,T,5,3,2320,New Target,11,874
11,KEKEK,151,1,1291,Correct,11,655
11,LBLBL,152,1,621,Correct,11,703
11,HEHVH,161,2,689,Correct,11,862
11,FRFOF,162,2,674,Correct,11,933
11,EBEBE,151,1,645,Correct,11,762
11,HTHTH,7,3,730,Correct,11,906
11,MAMDM,14,2,535,Correct,11,889
11,VOVOV,151,1,607,Correct,11,880
11,XQXQX,191,3,984,Incorrect,11,661
11,PBPAP,16,2,719,Correct,11,673
11,MXMLM,162,2,793,Correct,11,654
11,TCNCN,221,1,628,Correct,11,832
11,OBONO,222,2,616,Correct,11,768
11,RCROR,162,2,732,Correct,11,919
11,PBPRT,235,2,678,Correct,11,679
11,WFWVW,222,2,641,Correct,11,933
11,LTLUL,81,3,960,Correct,11,698
11,ZDZPZ,14,2,718,Correct,11,708
11,NCNQN,182,2,602,Correct,11,932
11,XZXNX,16,2,704,Correct,11,856
11,GOGOG,151,3,922,Incorrect,11,651
11,DFDFD,152,1,811,Correct,11,694
11,VWTRV,233,2,734,Correct,11,718
11,CFCVC,222,2,780,Correct,11,915
11,PAPAP,151,1,687,Correct,11,790
11,EQEYE,173,2,563,Correct,11,803
11,DNDED,16,2,618,Correct,11,855
11,PTPTP,9,3,720,Correct,11,908
11,ZCZCZ,13,1,654,Correct,11,760
11,MZMZM,152,1,961,Correct,11,820
11,ULUVU,161,2,753,Correct,11,805
11,BRBGB,162,3,1266,Incorrect,11,894
11,MLMLT,225,1,891,Correct,11,884
11,GQGQG,194,1,1020,Correct,11,848
11,HGHGH,15,1,1082,Correct,11,653
11,RVRBR,161,2,720,Correct,11,777
11,ZOZDZ,162,2,680,Correct,11,707
11,VYVYV,151,1,848,Correct,11,664
11,RVRVR,152,1,863,Correct,11,763
11,OTOTO,10,3,1333,Correct,11,726
11,PXPXP,13,1,728,Correct,11,877
11,MCMCM,152,1,620,Correct,11,751
11,YUYUY,153,1,641,Correct,11,889
11,DYDYD,154,1,679,Correct,11,858
11,WDWDW,155,1,531,Correct,11,863
11,DYDQD,185,2,849,Correct,11,871
11,KDKNK,16,2,715,Correct,11,871
11,HOHOH,151,1,666,Correct,11,919
11,TWEZE,231,2,670,Correct,11,839
11,NANHN,222,2,759,Correct,11,851
11,VQVWV,176,2,1046,Correct,11,792
11,ZRZRZ,15,1,730,Correct,11,894
11,VTVGV,111,3,823,Correct,11,934
11,HWHVH,14,2,979,Correct,11,858
11,EHEHE,151,1,806,Correct,11,853
11,VRVLV,161,2,648,Correct,11,836
11,ACACA,151,1,645,Correct,11,713
11,WBTBW,223,1,861,Correct,11,777
11,UTUTU,12,3,605,Correct,11,700
12,O,5,3,3338,New Target,12,888
12,UXULU,161,2,877,Correct,12,789
12,MUMDM,162,2,709,Correct,12,699
12,VLVLV,151,1,685,Correct,12,780
12,BDBHB,161,2,694,Correct,12,672
12,KEKEK,151,1,722,Correct,12,893
12,WKWKW,152,1,1047,Correct,12,810
12,AWAWA,153,1,698,Correct,12,853
12,EVEVE,154,1,849,Correct,12,858
12,PHPOP,72,3,1044,Correct,12,683
12,WXWAW,14,2,879,Correct,12,709
12,PWPHP,162,2,874,Correct,12,859
12,ZTZTZ,191,1,851,Correct,12,889
12,HVHMH,16,2,676,Correct,12,819
12,DKDKD,151,1,814,Correct,12,665
12,NPNPN,152,1,623,Correct,12,698
12,ZRZNZ,161,2,610,Correct,12,896
12,OGCGC,221,1,591,Correct,12,713
12,LFLFL,113,1,562,Correct,12,935
12,WXWXW,152,1,913,Correct,12,691
12,KPKPK,153,1,620,Correct,12,836
12,FRFKF,161,2,753,Correct,12,874
12,EOEOE,8,3,727,Correct,12,799
12,GEGEG,13,1,570,Correct,12,892
12,LKLBO,235,2,875,Correct,12,876
12,MLMZM,222,2,746,Correct,12,792
12,ASACA,162,2,653,Correct,12,797
12,LOLOL,9,3,658,Correct,12,752
12,XLXLX,13,1,820,Correct,12,936
12,WHWHW,152,1,696,Correct,12,687
12,ETETE,192,1,746,Correct,12,878
12,OXGZG,231,2,672,Correct,12,669
12,CZCZC,113,1,680,Correct,12,761
12,LGLGL,152,1,587,Correct,12,834
12,VLVPV,161,2,632,Correct,12,658
12,UYUYO,225,1,749,Correct,12,937
12,SMSMS,113,1,557,Correct,12,817
12,RTRTR,193,1,616,Correct,12,700
12,KVKHK,16,2,671,Correct,12,841
12,ROROR,101,3,761,Correct,12,687
12,PRPRP,13,1,938,Correct,12,738
12,LALHL,161,2,792,Correct,12,708
12,PLPLP,151,1,601,Correct,12,800
12,CTCTC,194,1,575,Correct,12,937
12,XGXAX,16,2,684,Correct,12,717
12,NMNMN,151,1,574,Correct,12,884
12,HLHZH,161,2,667,Correct,12,660
12,YOYOY,11,3,790,Correct,12,689
12,PZOZP,223,1,889,Correct,12,791
12,EAEAE,113,1,592,Correct,12,804
12,GXGVG,161,2,614,Correct,12,905
12,HMHGH,162,2,708,Correct,12,722
12,GTGTG,195,1,619,Correct,12,663
12,LMLGL,16,2,689,Correct,12,803
12,ECEDE,162,2,696,Correct,12,866
12,PSPKP,163,2,641,Correct,12,655
12,MCOBM,233,2,824,Correct,12,721
12,EMEME,113,1,747,Correct,12,698
12,CTCRC,176,2,643,Correct,12,755
12,NSNSN,15,1,849,Correct,12,938
12,MWMVM,161,2,659,Correct,12,762
12,CPCOC,122,3,779,Correct,12,744
13,H,5,3,1704,New Target,13,673
13,VUVUV,151,1,846,Correct,13,861
13,YVYVY,152,1,569,Correct,13,931
13,XUXUX,153,1,526,Correct,13,865
13,NRNWN,161,2,588,Correct,13,806
13,MZMKM,162,2,586,Correct,13,666
13,HLVLV,221,1,675,Correct,13,697
13,DXDGD,222,2,558,Correct,13,687
13,LHLAL,71,3,707,Correct,13,873
13,YMYFY,14,2,737,Correct,13,883
13,AOARA,171,2,1061,Correct,13,863
13,ZKZAZ,16,2,839,Correct,13,931
13,RZRZR,151,1,692,Correct,13,803
13,NFNAN,161,2,747,Correct,13,733
13,KUKEK,162,2,572,Correct,13,832
13,XAXYX,163,2,949,Correct,13,873
13,LKLUL,164,2,1183,Correct,13,791
13,NLNLN,151,1,618,Correct,13,656
13,WDWOW,182,2,629,Correct,13,839
13,EWEWE,15,1,646,Correct,13,892
13,VHVHV,8,3,587,Correct,13,904
13,PVPVP,13,1,732,Correct,13,853
13,CRCSC,161,2,683,Correct,13,670
13,NWNWN,151,1,861,Correct,13,813
13,SQSQS,152,1,537,Correct,13,806
13,AEASA,161,2,648,Correct,13,833
13,GOGOG,193,1,863,Correct,13,774
13,QGQGQ,15,1,600,Correct,13,930
13,FMFMF,152,1,577,Correct,13,857
13,PFPFP,153,1,819,Correct,13,834
13,SYSHS,92,3,790,Correct,13,858
13,QGQKQ,14,2,633,Correct,13,658
13,ELELH,225,1,608,Correct,13,887
13,MRMRM,113,1,663,Correct,13,815
13,GUGNG,161,2,677,Correct,13,924
13,ZOZOZ,194,1,633,Correct,13,804
13,EZEZE,15,1,791,Correct,13,685
13,FHFKF,101,3,728,Correct,13,824
13,GSHLG,233,2,1134,Correct,13,804
13,FKFXF,222,2,1100,Correct,13,909
13,DEDYD,162,2,822,Correct,13,799
13,UXUVU,163,2,1008,Correct,13,875
13,MCMOM,185,2,1028,Correct,13,935
13,BXBUH,235,2,917,Correct,13,941
13,DMDMD,113,1,756,Correct,13,678
13,BXBDB,161,2,695,Correct,13,844
13,AVAVA,151,1,727,Correct,13,923
13,QUHUQ,223,1,900,Correct,13,927
13,BRBRB,113,2,834,Incorrect,13,707
13,ZHZHZ,11,3,705,Correct,13,866
13,VZVZV,13,1,712,Correct,13,801
13,HBUQU,231,2,862,Correct,13,660
13,EUEUE,113,1,672,Correct,13,686
13,RQRDR,161,2,774,Correct,13,706
13,COCOC,196,1,820,Correct,13,949
13,VNVSV,16,2,895,Correct,13,938
13,WHWHW,12,3,793,Correct,13,825
14,G,5,3,1446,New Target,14,743
14,EBEBE,151,1,812,Correct,14,679
14,QPQUQ,161,2,749,Correct,14,699
14,XDXDX,151,1,611,Correct,14,753
14,YXYXY,152,1,813,Correct,14,746
14,MBMBM,153,1,566,Correct,14,916
14,QMQKQ,161,2,868,Correct,14,729
14,EYETE,162,2,711,Correct,14,745
14,UKUKU,151,1,662,Correct,14,936
14,MPGPM,223,1,713,Correct,14,839
14,ANANA,113,1,782,Correct,14,674
14,UAUAU,152,1,787,Correct,14,780
14,ADASA,161,2,666,Correct,14,676
14,LKLGL,72,2,669,Incorrect,14,794
14,UWUWU,13,1,728,Correct,14,830
14,MCMUM,161,2,680,Correct,14,873
14,YMYMY,151,1,651,Correct,14,868
14,RHRWR,171,2,1360,Correct,14,828
14,DUDCD,16,2,1243,Correct,14,814
14,ASAGA,82,3,812,Correct,14,821
14,DLDLD,13,1,800,Correct,14,689
14,ZXZDZ,161,2,637,Correct,14,880
14,ULUFU,162,2,712,Correct,14,775
14,DPDPG,225,1,824,Correct,14,940
14,KHKTK,172,2,658,Correct,14,834
14,ZKZUZ,16,2,794,Correct,14,760
14,AKALA,162,2,622,Correct,14,697
14,CNCNC,151,1,589,Correct,14,918
14,PGPGP,9,3,741,Correct,14,841
14,UPUPU,13,1,662,Correct,14,773
14,FSGWF,233,2,625,Correct,14,758
14,CACVC,222,2,627,Correct,14,949
14,FTFTF,151,1,634,Correct,14,789
14,KFKCK,161,2,640,Correct,14,821
14,ZEZHZ,183,2,1118,Correct,14,949
14,NSNSN,15,1,672,Correct,14,936
14,ENENE,152,1,591,Correct,14,927
14,LXLWG,235,2,648,Correct,14,717
14,SMSUS,222,2,994,Correct,14,764
14,ZHZHZ,194,1,865,Correct,14,650
14,PFPFP,15,1,750,Correct,14,739
14,BABAB,152,1,661,Correct,14,843
14,XPXUX,161,2,616,Correct,14,790
14,ACACA,151,1,705,Correct,14,717
14,RGRGR,10,3,761,Correct,14,698
14,URURU,13,1,595,Correct,14,947
14,PKPTP,161,2,650,Correct,14,815
14,SGSGS,11,3,896,Correct,14,910
14,GZYVY,231,2,1187,Correct,14,724
14,UDUTU,222,2,695,Correct,14,724
14,VHVHV,195,1,743,Correct,14,949
14,LWLNL,16,2,645,Correct,14,861
14,GKPKP,221,1,642,Correct,14,669
14,SQSPS,222,2,763,Correct,14,669
14,WNWNW,151,1,686,Correct,14,769
14,MHMTM,176,2,1061,Incorrect,14,899
14,RZRZR,15,1,683,Correct,14,652
14,CGCDC,121,3,725,Correct,14,724
15,A,5,3,2354,New Target,15,679
15,WQWEW,161,2,809,Correct,15,720
15,RWRKR,162,2,808,Correct,15,865
15,YRYRY,151,1,870,Correct,15,855
15,XOXOX,152,1,613,Correct,15,820
15,QPQPQ,153,1,529,Correct,15,729
15,TDTDT,154,1,523,Correct,15,898
15,WXWBW,161,2,544,Correct,15,920
15,TATAT,7,1,535,Incorrect,15,877
15,MCMYM,14,2,594,Correct,15,758
15,SMSFS,162,2,733,Correct,15,659
15,ZLZMZ,163,2,579,Correct,15,839
15,VDVBV,164,2,543,Correct,15,666
15,XCXVX,165,2,571,Correct,15,766
15,LKLBA,235,2,595,Correct,15,878
15,NDNDN,113,1,590,Correct,15,675
15,YGYGY,191,1,516,Correct,15,773
15,VLVLV,15,1,535,Correct,15,687
15,WQWQW,152,2,456,Incorrect,15,725
15,MAMOM,81,2,722,Incorrect,15,659
15,YZABY,233,2,985,Correct,15,861
15,CFCFC,113,1,644,Correct,15,667
15,UTULU,161,2,701,Correct,15,713
15,KPKUK,162,2,766,Correct,15,928
15,TCTQT,163,2,711,Correct,15,696
15,FGFGF,192,1,757,Correct,15,882
15,RCRYR,16,2,644,Correct,15,848
15,KRKDK,162,2,829,Correct,15,736
15,CRCRC,151,1,673,Correct,15,941
15,WOAOW,223,1,691,Correct,15,879
15,LPLWL,222,2,647,Correct,15,884
15,DGDUD,173,2,897,Correct,15,770
15,EMEZE,16,2,1280,Correct,15,814
15,DADAD,9,3,729,Correct,15,847
15,WDWDW,13,1,1128,Correct,15,926
15,AWQWQ,221,1,637,Correct,15,732
15,TKTQT,222,2,614,Correct,15,705
15,MTMFM,162,2,711,Correct,15,656
15,KAKAK,10,3,1239,Correct,15,829
15,BDBRB,14,2,647,Correct,15,689
15,QPQPQ,151,1,606,Correct,15,918
15,NDNDN,152,1,613,Correct,15,681
15,QYQGQ,184,2,594,Correct,15,785
15,VPVPV,15,1,605,Correct,15,742
15,RDRDA,225,1,642,Correct,15,893
15,KWKOK,222,2,673,Correct,15,906
15,TPTPT,151,1,558,Correct,15,716
15,DCDCD,152,1,611,Correct,15,850
15,OWOAO,112,3,948,Correct,15,897
15,ZCZNZ,14,2,608,Correct,15,843
15,MYMGM,185,2,739,Correct,15,894
15,ANLOL,231,2,1569,Correct,15,896
15,DWDPD,222,2,872,Correct,15,821
15,YQYQY,151,1,464,Correct,15,827
15,LGLGL,196,1,634,Correct,15,870
15,VYVLV,16,2,1095,Correct,15,664
15,MVMVM,151,2,1498,Incorrect,15,747
15,QMQMQ,152,1,610,Correct,15,841
15,SXSXS,153,1,573,Correct,15,732
15,WAWAW,12,3,645,Correct,15,790
