Trial No,Stimulus,Trigger,Response,Response Time(ms),Correct,Block,Fixation Duration
Practice
OT Practice
1,SKSKS,15,,,False,0,942
1,DLDUD,16,2,1103,Correct,0,667
1,PDPGP,16,1,694,False,0,847
1,MWMWM,15,1,705,Correct,0,774
1,FTFTF,15,1,670,Correct,0,708
1,AXAMA,16,1,712,False,0,769
1,RYRGR,16,2,802,Correct,0,840
1,DODOD,15,1,538,Correct,0,732
1,QTQAQ,16,1,780,False,0,778
1,YEYEY,15,1,724,Correct,0,737
2,GYGDG,16,2,741,Correct,0,783
2,SWSWS,15,1,590,Correct,0,743
2,HLHUH,16,2,896,Correct,0,749
2,DEDED,15,1,752,Correct,0,852
2,ZPZOZ,16,2,711,Correct,0,852
2,ATATA,15,1,562,Correct,0,733
2,QOQOQ,15,1,642,Correct,0,839
2,FPFGF,16,2,718,Correct,0,812
2,TRTET,16,2,667,Correct,0,677
2,DQDQD,15,1,609,Correct,0,877
4,PLPLP,15,2,605,False,0,696
4,ATAIA,16,2,685,Correct,0,765
4,SKSGS,16,2,778,Correct,0,735
4,ZYZYZ,15,1,738,Correct,0,715
4,QSQSQ,15,1,717,Correct,0,767
4,TZTDT,16,2,632,Correct,0,690
4,JYJGJ,16,1,676,False,0,752
4,DYDYD,15,1,763,Correct,0,918
4,LTLCL,16,2,824,Correct,0,695
4,FQFEF,16,2,761,Correct,0,948
AT Practice
1,TKTKT,15,1,825,Correct,0,922
1,SLSUS,16,2,779,Correct,0,910
1,VZVGV,7,3,793,Correct,0,669
1,XWXZX,7,2,640,False,0,712
1,ATATA,15,1,590,Correct,0,780
1,HXZMH,16,3,768,False,0,742
1,TZTZT,7,3,747,Correct,0,730
1,UOUOU,15,1,720,Correct,0,856
1,ZTWAW,16,2,654,Correct,0,650
1,RZRER,7,3,471,Correct,0,884
2,JYJDJ,16,2,785,Correct,0,777
2,DWDWD,15,1,700,Correct,0,709
2,GNGNG,7,3,563,Correct,0,930
2,NEZEZ,16,2,692,False,0,779
2,RNROR,7,3,711,Correct,0,664
2,QTQNQ,7,3,788,Correct,0,718
2,HOHON,15,1,686,Correct,0,731
2,KPKGK,16,2,775,Correct,0,786
2,DRDED,16,2,867,Correct,0,681
2,LNLNL,7,3,669,Correct,0,658
4,GLGLG,15,1,756,Correct,0,852
4,DTDID,16,2,685,Correct,0,756
4,SMSGS,16,2,742,Correct,0,845
4,ZFZYZ,7,3,576,Correct,0,722
4,TSTFT,7,3,672,Correct,0,790
4,OFOFO,7,1,630,False,0,866
4,WYFGW,16,2,705,Correct,0,861
4,WYWYW,15,3,526,False,0,761
4,MFMCM,7,3,688,Correct,0,767
4,HQHEH,16,2,733,Correct,0,758
Trials
1,D,5,3,8507,New Target,1,870
1,ZNZYZ,161,2,822,Correct,1,854
1,FZFZF,151,3,779,Incorrect,1,910
1,RKRKR,152,1,725,Correct,1,815
1,RXRNR,161,2,849,Correct,1,824
1,CNCFC,162,2,796,Correct,1,699
1,PDPDP,7,3,449,Correct,1,935
1,CPCFC,14,3,995,Incorrect,1,892
1,VLVNV,162,2,784,Correct,1,908
1,KFKFK,151,1,775,Correct,1,917
1,ZNZNZ,152,1,734,Correct,1,883
1,KCKPD,235,2,679,Correct,1,899
1,ZKZFZ,222,3,739,Incorrect,1,844
1,NRNZN,162,2,854,Correct,1,660
1,KXKRK,163,2,754,Correct,1,678
1,YPYZY,164,2,700,Correct,1,850
1,FKDKF,223,1,805,Correct,1,929
1,RPRPR,113,1,927,Correct,1,799
1,VRVKV,161,2,705,Correct,1,915
1,RFRPR,162,2,811,Correct,1,927
1,KVKVK,151,1,642,Correct,1,906
1,YKYVY,161,2,709,Correct,1,758
1,VDVDV,8,3,713,Correct,1,667
1,DVZVZ,221,2,630,Incorrect,1,723
1,YFYFY,113,1,626,Correct,1,938
1,ZYZYZ,152,1,702,Correct,1,920
1,VLVXV,161,2,686,Correct,1,744
1,DPXZX,231,1,777,Incorrect,1,836
1,RYRYR,113,1,787,Correct,1,797
1,PDPNP,91,3,767,Correct,1,765
1,KXKXK,13,1,587,Correct,1,740
1,ZYZYZ,152,1,619,Correct,1,820
1,VKVKV,153,1,617,Correct,1,818
1,YZYZY,154,1,584,Correct,1,821
1,NLNZN,161,2,696,Correct,1,839
1,ZNDYZ,233,2,724,Correct,1,880
1,PCPXP,222,2,641,Correct,1,727
1,ZVZFZ,162,2,596,Correct,1,724
1,RCRZR,163,2,617,Correct,1,699
1,LRLRL,151,1,1133,Correct,1,735
1,ZDZDZ,10,3,774,Correct,1,874
1,RNRZR,14,2,754,Correct,1,731
1,CXCYC,162,2,684,Correct,1,863
1,RCRLR,163,2,843,Correct,1,727
1,FRFRF,151,1,678,Correct,1,695
1,XFXFX,152,1,565,Correct,1,795
1,RPRLR,161,2,743,Correct,1,854
1,YXYRY,162,2,726,Correct,1,676
1,FYFYF,151,1,710,Correct,1,736
1,YZYVY,161,2,645,Correct,1,700
1,YKYKY,151,1,617,Correct,1,710
1,XRXRX,152,1,664,Correct,1,848
1,XVXZX,161,2,693,Correct,1,814
1,PDPDP,11,3,677,Correct,1,771
1,ZFZFZ,13,1,721,Correct,1,849
1,PXPXP,152,1,621,Correct,1,824
1,LYLYL,153,1,654,Correct,1,769
1,NKNKD,225,1,592,Correct,1,698
1,ZNZNZ,113,1,657,Correct,1,842
1,PYPZP,161,2,702,Correct,1,828
1,XPXPX,151,1,606,Correct,1,730
1,VLVLV,152,1,610,Correct,1,716
1,PKPXP,161,2,750,Correct,1,888
1,FZFZF,151,1,789,Correct,1,909
1,LDLDL,12,3,674,Correct,1,686
2,U,5,3,3581,New Target,2,684
2,ZVZFZ,161,2,719,Correct,2,758
2,FZFZF,151,1,633,Correct,2,841
2,RFRFR,152,1,699,Correct,2,721
2,NZNKN,161,2,830,Correct,2,667
2,FZFNF,162,2,745,Correct,2,708
2,RXRXR,151,1,597,Correct,2,745
2,KRKYK,161,2,617,Correct,2,757
2,NZNPN,162,2,681,Correct,2,800
2,XPXPX,151,1,581,Correct,2,872
2,CUCUC,7,1,634,Incorrect,2,697
2,RFRFR,13,1,984,Correct,2,874
2,VYVXV,161,2,711,Correct,2,883
2,VDVDV,191,1,771,Correct,2,893
2,ZKZRZ,15,2,751,Correct,2,775
2,XCXCX,151,1,606,Correct,2,708
2,CNCUC,82,3,717,Correct,2,816
2,RCRCR,13,1,666,Correct,2,720
2,ZPZXZ,161,2,966,Correct,2,909
2,FKFYF,162,2,821,Correct,2,874
2,ZFZYZ,163,2,1263,Correct,2,780
2,PXPXP,151,3,1077,Incorrect,2,890
2,URCKC,231,2,978,Correct,2,846
2,PCPCP,113,1,754,Correct,2,888
2,XNXNX,152,1,720,Correct,2,660
2,RCRZR,161,2,780,Correct,2,770
2,XVXVX,151,1,741,Correct,2,827
2,NRNRN,152,1,687,Correct,2,825
2,FPFPF,225,1,669,Correct,2,769
2,XVXFX,222,2,864,Correct,2,722
2,PRPRP,151,1,711,Correct,2,773
2,FYFCF,161,2,785,Correct,2,847
2,XUXFX,91,3,1044,Correct,2,939
2,CYCVC,14,2,1268,Correct,2,795
2,VDVKV,172,2,762,Correct,2,858
2,YCYCY,15,1,697,Correct,2,671
2,NKNLN,161,2,763,Correct,2,651
2,XPUKX,233,2,855,Correct,2,804
2,ZPZPZ,113,1,883,Correct,2,682
2,KRKRK,152,1,750,Correct,2,727
2,XKXKX,153,1,669,Correct,2,685
2,YUYVY,101,2,774,Incorrect,2,915
2,XKXFU,235,2,1155,Correct,2,797
2,NFNFN,113,1,1055,Correct,2,771
2,KDKDK,193,1,656,Correct,2,797
2,XYXKX,16,2,863,Correct,2,834
2,YZUZY,223,2,872,Incorrect,2,755
2,KFKVK,222,2,987,Correct,2,856
2,LYLYL,151,1,832,Correct,2,700
2,CXCDC,184,2,756,Incorrect,2,878
2,XZXNX,16,2,842,Correct,2,920
2,PXPXP,151,1,643,Correct,2,717
2,ZRZYZ,161,2,914,Correct,2,829
2,PUPYP,111,3,1015,Correct,2,845
2,RNRNR,14,1,970,Correct,2,787
2,KDKDK,195,1,657,Correct,2,655
2,KNKNK,15,1,715,Correct,2,895
2,PRPKP,161,2,873,Correct,2,769
2,UNYNY,221,1,739,Correct,2,731
2,NYNYN,113,2,780,Incorrect,2,832
2,YXYXY,152,1,834,Incorrect,2,940
2,RDRDR,196,1,842,Correct,2,823
2,FCFCF,15,1,590,Correct,2,872
2,ZKZKZ,152,1,620,Correct,2,895
2,ZUZUZ,12,3,495,Correct,2,753
3,E,5,3,1569,New Target,3,702
3,YZYZY,151,1,672,Correct,3,652
3,VFVNV,161,2,685,Correct,3,783
3,KYKYK,151,1,619,Correct,3,812
3,NKNKN,152,1,924,Correct,3,741
3,XVXNX,161,2,855,Correct,3,686
3,RERFR,71,3,831,Correct,3,824
3,XNXNX,13,1,646,Correct,3,860
3,NXNXN,152,1,835,Correct,3,899
3,ZLZNZ,161,2,828,Correct,3,763
3,CUCNC,171,2,991,Correct,3,927
3,FYFRF,16,2,687,Correct,3,882
3,ZLZLZ,151,1,905,Correct,3,909
3,YZYZY,152,1,770,Correct,3,750
3,CYCYC,153,1,764,Correct,3,843
3,VUVUV,192,1,649,Correct,3,751
3,PXPRP,16,2,697,Correct,3,766
3,YPYPY,151,1,887,Correct,3,745
3,CECEC,8,3,1000,Correct,3,905
3,VNENV,223,2,939,Incorrect,3,784
3,KRKFK,222,2,1104,Correct,3,781
3,XLXLE,225,1,737,Correct,3,747
3,RFRUR,183,2,977,Correct,3,665
3,XRXLX,16,2,739,Correct,3,767
3,NZNPN,162,2,957,Correct,3,892
3,XZXZX,151,1,868,Correct,3,694
3,FZFZF,152,1,761,Correct,3,831
3,PFPFP,153,1,1137,Correct,3,899
3,YZYXY,161,2,747,Correct,3,898
3,KEKEK,9,3,854,Correct,3,828
3,CXCPC,14,2,941,Correct,3,831
3,VXVXV,151,1,700,Correct,3,910
3,NUNZN,174,2,1085,Correct,3,724
3,RKRVR,16,2,903,Correct,3,905
3,XRXRX,151,1,697,Correct,3,860
3,ERNFN,231,2,1130,Incorrect,3,686
3,YRYNY,222,2,746,Correct,3,770
3,PZPEP,102,3,915,Correct,3,902
3,ZYZXZ,14,2,822,Correct,3,884
3,RZRVR,162,2,656,Correct,3,785
3,XRXRX,151,1,650,Correct,3,880
3,KUKFK,175,2,1286,Correct,3,860
3,RKRKR,15,1,664,Correct,3,934
3,ZFZFZ,152,1,1060,Correct,3,893
3,YZYVY,161,2,676,Correct,3,765
3,XPXNX,162,2,657,Correct,3,882
3,YRYRY,151,1,675,Correct,3,718
3,EPVPV,221,1,687,Correct,3,827
3,CRCEC,112,3,874,Correct,3,912
3,RFRCR,14,2,888,Correct,3,671
3,CPCVC,162,2,1054,Correct,3,784
3,RXRCR,163,2,841,Correct,3,895
3,VNVLV,164,2,737,Correct,3,783
3,ZXZXZ,151,1,650,Correct,3,900
3,ZCZCZ,152,1,780,Correct,3,751
3,PYPUP,186,2,725,Correct,3,807
3,YKYPY,16,2,769,Correct,3,805
3,YREXY,233,2,1082,Correct,3,837
3,ZKZKZ,113,1,902,Correct,3,852
3,XLXNX,161,2,663,Correct,3,915
3,KFKRE,235,2,676,Correct,3,826
3,RXRLR,222,2,514,Correct,3,793
3,RERXR,121,1,587,Incorrect,3,708
4,J,5,3,4005,New Target,4,760
4,CYCVC,161,2,1013,Correct,4,793
4,RXRCR,162,2,787,Correct,4,943
4,FPFVF,163,2,913,Correct,4,712
4,LZLZL,151,1,805,Correct,4,834
4,PLPLP,152,1,796,Correct,4,897
4,NPNPN,153,1,658,Correct,4,931
4,XZXZX,161,1,676,Incorrect,4,725
4,CNCKC,162,2,778,Correct,4,694
4,PCPYJ,235,2,1024,Correct,4,837
4,VYVYV,113,1,652,Correct,4,935
4,RLRLR,152,1,1030,Correct,4,919
4,CJCJC,7,3,841,Correct,4,725
4,ZLZLZ,13,1,646,Correct,4,718
4,FZFZF,152,1,629,Correct,4,788
4,CFCFC,153,1,531,Correct,4,891
4,PZPZP,154,1,674,Correct,4,916
4,XEXEX,191,1,691,Correct,4,708
4,NVNFN,16,2,821,Correct,4,687
4,KYKYK,151,1,643,Correct,4,714
4,ZNZVZ,161,2,724,Correct,4,708
4,YVJXY,233,2,997,Correct,4,662
4,XFXFX,113,1,677,Correct,4,896
4,XNXNX,152,1,660,Correct,4,757
4,FJFKF,81,3,881,Correct,4,897
4,CZCYC,14,2,733,Correct,4,653
4,ZXZCZ,162,2,731,Correct,4,795
4,RYRYJ,225,2,689,Incorrect,4,934
4,FPFZF,222,2,782,Correct,4,816
4,XRXRX,151,1,521,Correct,4,788
4,YPYEY,182,2,703,Correct,4,774
4,XRXRX,15,1,577,Correct,4,706
4,XZXPX,161,2,628,Correct,4,778
4,CJCJC,9,3,538,Correct,4,690
4,ZXZVZ,14,2,705,Correct,4,673
4,VKVKV,151,1,594,Correct,4,658
4,VEVNV,173,2,688,Correct,4,901
4,ZKZVZ,16,2,634,Correct,4,869
4,XVXJX,102,3,794,Correct,4,780
4,RXRVR,14,2,629,Correct,4,749
4,LRLRL,151,1,807,Correct,4,811
4,YNJNY,223,2,896,Incorrect,4,757
4,NPNJN,222,3,888,Incorrect,4,755
4,ZEZEZ,194,1,572,Correct,4,847
4,ZNZNZ,15,1,589,Correct,4,791
4,YZYZY,152,1,960,Correct,4,741
4,XYXYX,153,1,581,Correct,4,762
4,ZXZXZ,221,1,803,Correct,4,855
4,LYLZL,222,2,1439,Correct,4,720
4,CYCNC,162,2,815,Correct,4,841
4,XEXEX,195,1,637,Correct,4,686
4,CVCXC,16,2,599,Correct,4,893
4,ZPZXZ,162,2,787,Correct,4,881
4,FZFZF,151,1,587,Correct,4,820
4,RXRJR,112,3,766,Correct,4,753
4,PRPFP,14,1,685,Incorrect,4,660
4,PKPEP,186,2,841,Correct,4,842
4,XZXPX,16,2,1072,Correct,4,789
4,JCZVZ,231,2,747,Correct,4,859
4,RXRLR,222,2,755,Correct,4,892
4,VZVZV,151,1,749,Correct,4,857
4,XJXJX,12,3,746,Correct,4,784
5,I,5,3,1755,New Target,5,736
5,PCPCP,151,1,663,Correct,5,708
5,XYXYX,152,1,647,Correct,5,698
5,VXVXV,153,1,613,Correct,5,800
5,XVXVX,154,1,664,Correct,5,796
5,ZRZXZ,161,2,809,Correct,5,768
5,FPFZF,162,2,741,Correct,5,763
5,ZYZYZ,151,1,566,Correct,5,682
5,RVRZR,161,2,663,Correct,5,752
5,CICIC,7,3,785,Correct,5,920
5,XLXLX,13,1,576,Correct,5,655
5,YVYVY,152,1,773,Correct,5,670
5,CJCJC,191,3,700,Incorrect,5,916
5,FNFCF,16,2,804,Correct,5,859
5,PVPRP,162,2,779,Correct,5,811
5,FZFZF,151,1,638,Correct,5,948
5,NVIVN,223,1,1460,Correct,5,668
5,CVCIC,82,3,1272,Correct,5,735
5,ZXZXZ,13,1,819,Correct,5,698
5,FCFZF,161,2,707,Correct,5,671
5,IXRXR,221,1,912,Correct,5,810
5,ZPZNZ,222,2,953,Correct,5,724
5,VZVZV,151,1,683,Correct,5,859
5,YRYNY,161,2,920,Correct,5,771
5,VNVPV,162,2,717,Correct,5,810
5,RVRJR,182,,,Incorrect,5,688
5,VRVRV,15,1,659,Correct,5,906
5,VIVIV,9,3,701,Correct,5,881
5,CXCVC,14,2,886,Correct,5,875
5,PZPZP,151,1,558,Correct,5,780
5,IXVKV,231,2,1124,Correct,5,723
5,YJYCY,173,2,1164,Incorrect,5,906
5,VYVYV,15,1,597,Correct,5,886
5,YVYVY,152,1,593,Correct,5,908
5,NVNVN,153,1,895,Correct,5,901
5,XYXVX,161,2,948,Correct,5,853
5,NJNCN,174,2,998,Correct,5,851
5,NXNYN,16,2,777,Correct,5,734
5,VXVCV,162,2,638,Correct,5,926
5,ZKZKZ,151,1,687,Correct,5,756
5,XRXYX,161,2,637,Correct,5,781
5,ZCZXZ,162,2,576,Correct,5,654
5,KVKYI,235,2,721,Correct,5,756
5,CNCNC,113,1,994,Correct,5,651
5,RIRIR,10,3,664,Correct,5,668
5,VYVXV,14,2,629,Correct,5,794
5,FXIRF,233,2,1012,Correct,5,818
5,PFPFP,113,1,739,Correct,5,914
5,VPVPV,152,1,619,Correct,5,899
5,ZJZJZ,195,1,862,Correct,5,727
5,ZVZNZ,16,2,771,Correct,5,896
5,YVYXY,162,2,717,Correct,5,854
5,PRPRP,151,1,665,Correct,5,796
5,YPYPY,152,1,567,Correct,5,835
5,ZIZPZ,111,3,685,Correct,5,696
5,NKNXN,14,2,987,Correct,5,799
5,RZRXR,162,2,680,Correct,5,941
5,RXRXR,151,1,658,Correct,5,910
5,ZJZJZ,196,1,738,Correct,5,718
5,CVCVI,225,2,617,Correct,5,915
5,NKNKN,113,1,851,Correct,5,917
5,NRNZN,161,2,703,Correct,5,653
5,CNCNC,151,1,636,Correct,5,813
5,RFRIR,122,3,1004,Correct,5,793
6,B,5,3,1309,New Target,6,656
6,YKYZY,161,2,723,Correct,6,878
6,VCVRV,162,2,767,Correct,6,781
6,XVXVX,151,1,588,Correct,6,760
6,KZKRK,161,2,636,Correct,6,799
6,ZVZXZ,162,2,525,Correct,6,808
6,RCRNR,163,2,830,Correct,6,895
6,CXCRC,164,2,648,Correct,6,765
6,VNBCV,233,2,789,Correct,6,860
6,CXCVC,222,2,688,Correct,6,806
6,RFRFR,151,1,770,Correct,6,687
6,XPXRX,161,1,544,Incorrect,6,715
6,RYRBR,72,2,599,Incorrect,6,693
6,ZKZKZ,13,1,814,Correct,6,658
6,FIFRF,171,2,1144,Correct,6,801
6,VZVLV,16,2,675,Correct,6,811
6,RPRVR,162,2,769,Correct,6,855
6,YBYBY,8,3,507,Correct,6,769
6,PYPVP,14,2,657,Correct,6,793
6,NININ,192,1,1204,Correct,6,718
6,RNRNR,15,1,793,Correct,6,922
6,NXNVN,161,2,742,Correct,6,767
6,RNRNR,151,1,600,Correct,6,688
6,FRFVF,161,2,614,Correct,6,784
6,YVYFB,235,2,793,Incorrect,6,742
6,ZRZXZ,222,2,960,Correct,6,871
6,VNVIV,193,2,862,Incorrect,6,926
6,PXPNP,16,2,695,Correct,6,784
6,ZXZPZ,162,2,743,Correct,6,736
6,VBVBV,9,3,773,Correct,6,755
6,CXCXC,13,1,723,Correct,6,773
6,PCPFP,161,2,586,Correct,6,867
6,KNKNK,151,1,521,Correct,6,844
6,XIXIX,194,1,867,Correct,6,687
6,CYCYC,15,1,616,Correct,6,911
6,FVFYF,161,1,569,Incorrect,6,813
6,YNYRY,162,2,662,Correct,6,838
6,BVPXP,231,2,808,Correct,6,758
6,NXNXN,113,1,657,Correct,6,788
6,FRFRF,152,1,751,Correct,6,873
6,YVYVY,153,1,607,Correct,6,728
6,ZKZCZ,161,2,714,Correct,6,919
6,VIVXV,175,2,661,Correct,6,854
6,PRBRP,223,1,1153,Correct,6,896
6,YZYBY,102,2,626,Incorrect,6,665
6,CXCVC,14,2,683,Correct,6,931
6,FYFYF,151,1,602,Correct,6,759
6,VKVXV,161,2,703,Correct,6,660
6,ZBZBZ,11,3,578,Correct,6,667
6,FPFNF,14,2,874,Correct,6,650
6,CXCXC,151,1,669,Correct,6,926
6,YCYCY,152,1,562,Correct,6,652
6,FPFPF,153,1,548,Correct,6,805
6,CVCVB,225,1,572,Correct,6,693
6,ZCZCZ,113,1,572,Correct,6,854
6,CZCNC,161,2,735,Correct,6,793
6,KIKFK,176,2,678,Correct,6,915
6,PXPXP,15,1,527,Correct,6,932
6,RYRYR,152,1,631,Correct,6,655
6,ZRZCZ,161,2,920,Correct,6,849
6,RVRVR,151,1,649,Correct,6,819
6,XYXNX,161,2,683,Correct,6,724
6,BVKVK,221,2,558,Incorrect,6,655
6,CBCBC,12,3,740,Correct,6,667
7,W,5,3,1426,New Target,7,843
7,RKRKR,151,1,637,Correct,7,903
7,CVCRC,161,2,639,Correct,7,717
7,PKPKP,151,1,561,Correct,7,736
7,FPFPF,152,1,692,Correct,7,764
7,VRVPV,161,2,1108,Correct,7,734
7,ZKZYZ,162,2,1157,Correct,7,694
7,PVPCP,233,2,1006,Correct,7,903
7,KVKVK,113,1,655,Correct,7,774
7,YXYVY,161,2,648,Correct,7,919
7,FNFNF,151,1,616,Correct,7,771
7,YWYWY,7,3,636,Correct,7,720
7,ZYZYZ,13,1,767,Correct,7,733
7,PYPYP,152,1,590,Correct,7,713
7,XRXRX,153,1,569,Correct,7,941
7,PXPXP,154,1,599,Correct,7,910
7,FCFBF,181,2,826,Correct,7,693
7,FVFVF,15,1,601,Correct,7,664
7,CYCZC,161,2,716,Correct,7,755
7,XZXVX,162,2,758,Correct,7,941
7,PFPFP,151,1,699,Correct,7,905
7,RVRLR,161,2,610,Correct,7,933
7,ZBZBZ,192,1,583,Correct,7,666
7,VCVNV,16,2,1002,Correct,7,745
7,NWNWN,8,3,652,Correct,7,842
7,XNXVX,14,2,790,Correct,7,937
7,CXCNC,162,2,563,Correct,7,778
7,YVYVW,225,1,761,Correct,7,668
7,VFVFV,113,1,575,Correct,7,932
7,VFWFV,223,1,843,Correct,7,939
7,CVCFC,222,2,1089,Correct,7,848
7,YBYBY,193,1,603,Correct,7,946
7,PYPYP,15,1,605,Correct,7,799
7,NKNWN,91,2,652,Incorrect,7,895
7,VNVNV,13,1,807,Correct,7,944
7,RVRVR,152,1,652,Correct,7,873
7,FVFBF,184,2,825,Incorrect,7,886
7,VZVKV,16,2,739,Correct,7,724
7,VPVCV,162,2,927,Correct,7,756
7,WYZCZ,231,2,1086,Correct,7,946
7,PFPFP,113,1,556,Correct,7,858
7,PRPRP,152,1,657,Correct,7,705
7,NWNWN,10,3,703,Correct,7,790
7,VKVCV,14,2,930,Correct,7,650
7,WPYPY,221,1,566,Correct,7,804
7,VBVBV,195,1,1194,Correct,7,711
7,ZKZYZ,16,2,675,Correct,7,892
7,XYXYX,151,1,624,Correct,7,818
7,FZFXF,161,2,641,Correct,7,782
7,XKXKX,151,1,620,Correct,7,936
7,XPXPX,152,1,558,Correct,7,748
7,FWFWF,11,3,642,Correct,7,741
7,FNFBF,186,2,647,Correct,7,746
7,ZVZYZ,16,2,719,Correct,7,909
7,FZFZF,151,1,760,Correct,7,903
7,NPNFW,235,2,674,Correct,7,751
7,PCPCP,113,1,692,Correct,7,701
7,NKNWN,122,3,1124,Correct,7,788
8,M,5,3,2103,New Target,8,869
8,VYVNV,161,2,1030,Correct,8,809
8,KLKNK,162,2,899,Correct,8,926
8,NRNRN,151,1,731,Correct,8,803
8,VNVFV,161,2,779,Correct,8,696
8,XNXNM,225,1,698,Correct,8,731
8,CXCVC,222,2,621,Correct,8,691
8,KRKZK,162,2,765,Correct,8,829
8,NMNFN,71,3,526,Correct,8,678
8,ZFZFZ,13,1,482,Correct,8,757
8,YPYCY,161,2,629,Correct,8,922
8,KCKCK,151,1,581,Correct,8,739
8,VNVNV,152,1,516,Correct,8,879
8,LXLXL,153,1,467,Correct,8,938
8,CLCLC,154,2,425,Incorrect,8,825
8,NYNYN,155,1,717,Correct,8,924
8,LCMYL,233,2,734,Correct,8,690
8,NCNCN,113,1,537,Correct,8,831
8,ZVZRZ,161,2,541,Correct,8,724
8,ZVZVZ,151,1,546,Correct,8,749
8,PZPVP,161,1,455,Incorrect,8,702
8,PWPNP,171,3,477,Incorrect,8,811
8,KLKCM,235,2,794,Correct,8,693
8,XMXMX,8,3,739,Correct,8,750
8,PRPXP,14,2,684,Correct,8,892
8,CVCYC,162,2,665,Correct,8,787
8,PXPMP,92,3,856,Correct,8,715
8,ZCZLZ,14,2,895,Correct,8,912
8,XWXWX,192,1,1524,Correct,8,769
8,ZCZLZ,16,2,752,Correct,8,878
8,MNCYC,231,2,1174,Correct,8,948
8,ZXZXZ,113,1,752,Correct,8,866
8,YRYNY,161,2,630,Correct,8,944
8,ZLZPZ,162,2,617,Correct,8,718
8,VZVZV,151,1,550,Correct,8,842
8,MXPXP,221,2,1010,Incorrect,8,931
8,VWVWV,193,1,867,Correct,8,860
8,PYPYP,16,1,682,Incorrect,8,753
8,XPXVX,162,2,1079,Correct,8,821
8,XLXLX,151,1,538,Correct,8,732
8,YMYMY,10,3,907,Correct,8,847
8,VYVYV,13,1,993,Correct,8,854
8,PWPZP,174,2,782,Correct,8,902
8,PYPKP,16,2,643,Correct,8,946
8,NPNXN,162,2,739,Correct,8,791
8,KVKVK,223,1,738,Correct,8,772
8,NVNFN,222,2,671,Correct,8,849
8,XNXNX,151,1,574,Correct,8,685
8,YZYMY,112,3,867,Correct,8,830
8,PFPFP,13,1,567,Correct,8,851
8,ZWZWZ,195,1,1267,Correct,8,943
8,PCPZP,16,2,726,Correct,8,907
8,LRLPL,162,2,1266,Correct,8,808
8,CZCZC,151,1,667,Correct,8,703
8,NZNZN,152,1,1051,Correct,8,713
8,CVCXC,161,2,623,Correct,8,689
8,XCXCX,151,1,601,Correct,8,914
8,YWYWY,196,1,887,Correct,8,884
8,NLNLN,15,1,760,Correct,8,891
8,VNVNV,152,1,611,Correct,8,798
8,ZMZMZ,12,3,775,Correct,8,666
9,S,5,3,1071,New Target,9,851
9,NZNZN,151,1,803,Correct,9,678
9,KVKZK,161,2,803,Correct,9,868
9,LZLZL,151,1,537,Correct,9,832
9,XLXLX,152,1,503,Correct,9,750
9,ZXZXZ,153,1,516,Correct,9,795
9,KNKZK,161,2,841,Correct,9,679
9,NRNYN,162,2,682,Correct,9,886
9,CLCVC,163,2,848,Correct,9,860
9,ZCZFZ,164,2,668,Correct,9,664
9,NSNSN,7,3,916,Correct,9,789
9,VZVZV,13,1,559,Correct,9,922
9,NVNCN,161,2,1181,Correct,9,779
9,VMVMV,191,1,615,Correct,9,681
9,CVCXC,16,2,631,Correct,9,690
9,ZYZRZ,162,2,624,Correct,9,826
9,XNXZX,163,2,727,Correct,9,912
9,PXPXP,151,1,543,Correct,9,872
9,VCVSV,82,2,598,Incorrect,9,937
9,PRPCP,14,2,753,Correct,9,799
9,ZMZMZ,192,1,667,Incorrect,9,761
9,ZFZFZ,15,1,533,Correct,9,775
9,FCFCF,152,1,907,Correct,9,710
9,YLYZY,161,2,692,Correct,9,924
9,KNKVK,162,2,795,Correct,9,746
9,SFPCP,231,2,1079,Correct,9,726
9,RPRPR,113,1,571,Correct,9,868
9,XMXMX,193,1,541,Correct,9,742
9,KFKFK,15,1,658,Correct,9,665
9,VSVSV,9,3,717,Correct,9,760
9,YVSVY,223,1,1235,Correct,9,867
9,VPVPV,113,1,779,Correct,9,656
9,XZXZX,152,1,522,Correct,9,871
9,KZKXK,161,2,623,Correct,9,725
9,RFRPR,162,2,1013,Correct,9,921
9,NVNVS,225,1,913,Correct,9,736
9,ZXZXZ,113,1,732,Correct,9,891
9,SRVRV,221,1,664,Correct,9,677
9,YCYCY,113,1,613,Correct,9,681
9,KMKZK,174,2,684,Correct,9,932
9,FZSVF,233,2,1236,Correct,9,753
9,VYVYV,113,1,528,Correct,9,657
9,LVLVL,152,1,767,Correct,9,826
9,YFYFY,153,1,548,Correct,9,761
9,NXNSN,102,2,607,Incorrect,9,867
9,FNFCF,14,2,920,Correct,9,890
9,KVKVK,151,1,594,Correct,9,861
9,VZVCV,161,2,790,Correct,9,656
9,ZYZMZ,185,2,790,Correct,9,837
9,VXVZV,16,2,697,Correct,9,866
9,VPVPV,151,1,561,Correct,9,788
9,RVRNS,235,2,1011,Correct,9,724
9,YZYZY,113,1,719,Correct,9,831
9,ZSZSZ,11,3,756,Correct,9,890
9,FRFRF,13,1,645,Correct,9,909
9,ZMZMZ,196,1,623,Correct,9,900
9,NZNXN,16,2,758,Correct,9,828
9,LSLFL,121,3,812,Correct,9,889
10,Q,5,3,990,New Target,10,931
10,ZVZPZ,161,2,629,Correct,10,868
10,RZRZR,151,1,593,Correct,10,818
10,ZFZFZ,152,1,552,Correct,10,891
10,RZRZR,153,1,913,Correct,10,888
10,PZPXP,161,2,913,Correct,10,701
10,VFQPV,233,2,1058,Correct,10,799
10,ZPZRZ,222,1,524,Incorrect,10,875
10,CYCVC,162,2,715,Correct,10,763
10,CPCPC,151,1,738,Correct,10,776
10,YZYQY,72,3,943,Correct,10,661
10,FVFXF,14,2,656,Correct,10,738
10,YNYNQ,225,1,843,Correct,10,756
10,ZYZYZ,113,1,525,Correct,10,799
10,FRFSF,181,2,871,Incorrect,10,880
10,XNXPX,16,2,684,Correct,10,784
10,NXNXN,151,1,1024,Correct,10,853
10,PVPZP,161,2,1001,Correct,10,887
10,XVXPX,162,2,770,Correct,10,884
10,FXFVF,163,2,999,Correct,10,783
10,NSNKN,172,2,589,Incorrect,10,925
10,VXVNV,16,2,622,Correct,10,658
10,XZXZX,151,1,491,Correct,10,781
10,VQVQV,8,3,493,Correct,10,843
10,ZYZPZ,14,2,584,Correct,10,877
10,PZPSP,183,2,650,Correct,10,703
10,YVYVY,15,1,620,Correct,10,715
10,NCNQN,92,3,839,Correct,10,788
10,FCFVF,14,2,796,Correct,10,700
10,ZFZFZ,151,1,576,Correct,10,897
10,NSNSN,194,1,758,Correct,10,919
10,YPYFY,16,2,1029,Correct,10,943
10,ZKZKZ,151,2,653,Incorrect,10,905
10,QZRCR,231,2,1128,Correct,10,760
10,YPYVY,222,2,634,Correct,10,918
10,ZNZNZ,151,1,542,Correct,10,930
10,VQVQV,10,3,711,Correct,10,846
10,RVRZR,14,2,578,Correct,10,732
10,KRKSK,185,2,594,Correct,10,682
10,NPNPN,15,1,594,Correct,10,743
10,YPYPY,152,1,609,Correct,10,665
10,VCVYV,161,2,569,Correct,10,869
10,FPFNF,162,2,597,Correct,10,805
10,QVXVX,221,2,536,Incorrect,10,686
10,ZVZRZ,222,2,661,Correct,10,700
10,LFLFL,151,1,576,Correct,10,822
10,VLVLV,152,1,587,Correct,10,815
10,KXQXK,223,1,1205,Correct,10,869
10,YQYQY,11,3,733,Correct,10,687
10,YCYCY,13,1,613,Correct,10,771
10,PZPYP,161,2,645,Correct,10,666
10,LPLFL,162,2,634,Correct,10,657
10,VSVSV,196,1,532,Correct,10,795
10,VFVYQ,235,2,634,Correct,10,927
10,CZCXC,222,2,979,Correct,10,849
10,PVPCP,162,2,692,Correct,10,738
10,CXCXC,151,1,865,Correct,10,728
10,NZNZN,152,1,791,Correct,10,691
10,YPYCY,161,2,1081,Correct,10,786
10,ZQZQZ,12,3,703,Correct,10,876
11,T,5,3,1892,New Target,11,670
11,KFKFK,151,1,794,Correct,11,776
11,LZLZL,152,1,543,Correct,11,777
11,PFPVP,161,2,607,Correct,11,751
11,FRFPF,162,2,648,Correct,11,794
11,FZFZF,151,1,519,Correct,11,665
11,VTVTV,7,3,501,Correct,11,899
11,KYKCK,14,2,657,Correct,11,923
11,VPVPV,151,1,588,Correct,11,711
11,XQXQX,191,1,1159,Correct,11,864
11,PZPYP,16,2,644,Correct,11,679
11,KXKLK,162,2,642,Correct,11,688
11,TCNCN,221,1,891,Correct,11,760
11,PZPNP,222,2,813,Correct,11,885
11,RCRPR,162,2,825,Correct,11,935
11,PZPRT,235,2,710,Correct,11,908
11,XFXVX,222,2,806,Correct,11,658
11,LTLVL,81,3,884,Correct,11,928
11,ZCZPZ,14,2,933,Correct,11,789
11,NCNQN,182,2,756,Correct,11,849
11,XZXNX,16,2,583,Correct,11,844
11,ZPZPZ,151,1,471,Correct,11,779
11,CFCFC,152,1,485,Correct,11,855
11,VXTRV,233,2,899,Correct,11,888
11,CFCVC,222,2,626,Correct,11,802
11,PYPYP,151,2,667,Incorrect,11,827
11,FQFYF,173,2,1178,Correct,11,790
11,CNCFC,16,2,733,Correct,11,888
11,PTPTP,9,3,669,Correct,11,950
11,ZCZCZ,13,1,592,Correct,11,886
11,KZKZK,152,1,819,Correct,11,685
11,RLRVR,161,2,661,Correct,11,929
11,ZRZKZ,162,2,684,Correct,11,775
11,KLKLT,225,1,1048,Correct,11,836
11,ZQZQZ,194,1,490,Correct,11,929
11,VZVZV,15,1,625,Correct,11,662
11,RVRZR,161,2,634,Correct,11,811
11,ZPZCZ,162,2,711,Correct,11,776
11,VYVYV,151,1,482,Correct,11,668
11,RVRVR,152,1,809,Correct,11,678
11,PTPTP,10,1,452,Incorrect,11,934
11,PXPXP,13,1,540,Correct,11,681
11,KCKCK,152,1,617,Correct,11,790
11,YVYVY,153,1,565,Correct,11,777
11,CYCYC,154,1,479,Correct,11,896
11,XCXCX,155,1,469,Correct,11,703
11,CYCQC,185,2,1298,Correct,11,861
11,KCKNK,16,2,788,Correct,11,851
11,VPVPV,151,1,533,Correct,11,881
11,TXFZF,231,2,652,Correct,11,902
11,NYNVN,222,2,906,Correct,11,740
11,VQVXV,176,2,809,Correct,11,702
11,ZRZRZ,15,1,655,Correct,11,790
11,VTVZV,111,3,815,Correct,11,727
11,PXPVP,14,2,1361,Correct,11,898
11,FVFVF,151,1,896,Correct,11,800
11,VRVLV,161,2,611,Correct,11,791
11,YCYCY,151,1,544,Correct,11,717
11,XZTZX,223,1,590,Correct,11,785
11,VTVTV,12,3,924,Correct,11,869
12,O,5,3,1353,New Target,12,854
12,VXVLV,161,2,596,Correct,12,806
12,KVKCK,162,2,611,Correct,12,722
12,VLVLV,151,1,657,Correct,12,652
12,ZCZVZ,161,2,595,Correct,12,946
12,KFKFK,151,1,740,Correct,12,652
12,XKXKX,152,1,584,Correct,12,884
12,YXYXY,153,1,543,Correct,12,912
12,FVFVF,154,1,492,Correct,12,782
12,PVPOP,72,3,813,Correct,12,847
12,ZXZYZ,14,2,940,Correct,12,906
12,PXPVP,162,2,767,Correct,12,790
12,ZTZTZ,191,,,Incorrect,12,716
12,CVCKC,16,2,745,Correct,12,911
12,CKCKC,151,1,541,Correct,12,808
12,NPNPN,152,1,717,Correct,12,733
12,ZRZNZ,161,2,1219,Correct,12,843
12,OZCZC,221,1,616,Correct,12,843
12,LFLFL,113,1,516,Correct,12,755
12,CXCXC,152,1,537,Correct,12,934
12,KPKPK,153,1,519,Correct,12,839
12,FRFKF,161,2,968,Correct,12,687
12,FOFOF,8,1,501,Incorrect,12,826
12,ZFZFZ,13,1,759,Correct,12,774
12,LKLZO,235,2,734,Correct,12,779
12,KLKZK,222,2,741,Correct,12,693
12,YXYCY,162,2,899,Correct,12,665
12,LOLOL,9,3,776,Correct,12,679
12,XLXLX,13,1,666,Correct,12,836
12,XVXVX,152,1,615,Correct,12,713
12,FTFTF,192,1,764,Correct,12,930
12,OXNZN,231,2,705,Correct,12,835
12,CZCZC,113,1,779,Correct,12,759
12,LZLZL,152,1,511,Correct,12,777
12,VLVPV,161,2,834,Correct,12,740
12,VYVYO,225,2,756,Incorrect,12,725
12,XKXKX,113,1,571,Correct,12,843
12,RTRTR,193,1,637,Correct,12,698
12,KVKCK,16,2,717,Correct,12,685
12,ROROR,101,3,677,Correct,12,746
12,PRPRP,13,1,746,Correct,12,907
12,LYLVL,161,2,687,Correct,12,900
12,PLPLP,151,1,598,Correct,12,830
12,CTCTC,194,1,1105,Correct,12,867
12,XZXYX,16,2,834,Correct,12,657
12,NKNKN,151,1,1327,Correct,12,896
12,VLVZV,161,2,639,Correct,12,858
12,YOYOY,11,3,679,Correct,12,840
12,PZOZP,223,1,1405,Correct,12,847
12,FYFYF,113,1,795,Correct,12,716
12,ZXZVZ,161,2,686,Correct,12,824
12,VKVZV,162,2,649,Correct,12,818
12,ZTZTZ,195,1,674,Correct,12,807
12,LKLZL,16,2,635,Correct,12,764
12,KCKVK,162,2,601,Correct,12,706
12,PXPKP,163,1,549,Incorrect,12,788
12,KCOZK,233,2,1145,Correct,12,700
12,FKFKF,113,1,675,Correct,12,751
12,CTCRC,176,2,1086,Correct,12,786
12,NXNXN,15,1,1050,Correct,12,811
12,KXKVK,161,2,1026,Correct,12,897
12,CPCOC,122,3,1309,Correct,12,805
13,H,5,3,1764,New Target,13,751
13,VFVNV,151,2,1171,Incorrect,13,707
13,YVYVY,152,1,644,Correct,13,942
13,XVXVX,153,1,635,Correct,13,883
13,NRNXN,161,2,641,Correct,13,865
13,PZPKP,162,2,866,Correct,13,674
13,HLVLV,221,1,1430,Correct,13,827
13,CXCZC,222,2,1081,Correct,13,662
13,LHLYL,71,3,685,Correct,13,855
13,YKYFY,14,2,770,Correct,13,861
13,YOYRY,171,2,1459,Correct,13,829
13,ZKZYZ,16,2,674,Correct,13,818
13,RZRZR,151,1,757,Correct,13,921
13,NFNYN,161,2,1371,Correct,13,835
13,KVKFK,162,2,736,Correct,13,712
13,XFXYX,163,2,808,Correct,13,650
13,LKLVL,164,2,1171,Correct,13,677
13,NLNLN,151,1,638,Correct,13,693
13,XCXOX,182,2,1170,Correct,13,858
13,FXFXF,15,1,729,Correct,13,745
13,VHVHV,8,3,959,Correct,13,807
13,PVPVP,13,1,897,Correct,13,737
13,CRCXC,161,2,917,Correct,13,746
13,NXNXN,151,1,1029,Correct,13,783
13,XRXRX,152,1,645,Correct,13,701
13,YFYXY,161,2,1105,Correct,13,797
13,ZOZOZ,193,1,883,Correct,13,916
13,RZRZR,15,1,744,Correct,13,695
13,FKFKF,152,1,728,Correct,13,903
13,PFPFP,153,1,579,Correct,13,729
13,XYXHX,92,3,657,Correct,13,749
13,RZRKR,14,2,730,Correct,13,851
13,FLFLH,225,1,674,Correct,13,723
13,KRKRK,113,1,975,Correct,13,753
13,ZVZNZ,161,2,1466,Correct,13,862
13,ZOZOZ,194,1,994,Correct,13,900
13,FZFZF,15,1,670,Correct,13,813
13,FHFKF,101,3,1352,Correct,13,838
13,ZXHLZ,233,2,950,Correct,13,892
13,FKFXF,222,2,835,Correct,13,846
13,CFCYC,162,2,865,Correct,13,852
13,ZXZVZ,163,2,739,Correct,13,782
13,KCKOK,185,2,864,Correct,13,694
13,ZXZVH,235,2,626,Correct,13,728
13,CKCKC,113,1,977,Correct,13,717
13,ZXZCZ,161,2,602,Correct,13,942
13,YVYVY,151,1,615,Correct,13,689
13,RVHVR,223,2,902,Incorrect,13,717
13,ZRZRZ,113,1,642,Correct,13,924
13,ZHZHZ,11,3,736,Correct,13,809
13,VZVZV,13,1,722,Correct,13,890
13,HZVRV,231,2,703,Correct,13,713
13,FVFVF,113,1,766,Correct,13,672
13,RNRCR,161,2,907,Correct,13,658
13,COCOC,196,1,659,Correct,13,894
13,VNVXV,16,2,999,Correct,13,937
13,XHXHX,12,3,1090,Correct,13,901
14,G,5,3,1547,New Target,14,698
14,FZFZF,151,1,471,Correct,14,778
14,RPRVR,161,2,695,Correct,14,890
14,XCXCX,151,1,492,Correct,14,916
14,YXYXY,152,1,544,Correct,14,717
14,KZKZK,153,1,494,Correct,14,846
14,RYRKR,161,2,649,Correct,14,883
14,FYFNF,162,2,614,Correct,14,778
14,VKVKV,151,1,640,Correct,14,783
14,KPGPK,223,1,985,Correct,14,940
14,YNYNY,113,1,537,Correct,14,767
14,VYVYV,152,1,538,Correct,14,652
14,YCYXY,161,2,844,Correct,14,718
14,LKLGL,72,3,813,Correct,14,848
14,VXVXV,13,1,510,Correct,14,942
14,KCKVK,161,2,716,Correct,14,754
14,YKYKY,151,1,569,Correct,14,661
14,RHRXR,171,2,773,Correct,14,774
14,FVFCF,16,2,691,Correct,14,652
14,YXYGY,82,3,1021,Correct,14,792
14,CLCLC,13,1,746,Correct,14,783
14,ZXZCZ,161,2,1396,Correct,14,723
14,VLVFV,162,2,979,Correct,14,811
14,CPCPG,225,1,974,Correct,14,925
14,KHKNK,172,2,984,Correct,14,903
14,ZKZVZ,16,2,1095,Correct,14,687
14,YKYLY,162,2,865,Correct,14,781
14,CNCNC,151,1,754,Correct,14,924
14,PGPGP,9,3,1360,Correct,14,898
14,VPVPV,13,1,606,Correct,14,861
14,FXGRF,233,2,985,Correct,14,783
14,CYCVC,222,2,1309,Correct,14,670
14,FNFNF,151,1,696,Correct,14,939
14,KFKCK,161,2,945,Correct,14,729
14,ZFZHZ,183,2,822,Correct,14,669
14,NXNXN,15,1,876,Correct,14,784
14,FNFNF,152,1,660,Correct,14,660
14,LXLNG,235,2,956,Correct,14,861
14,XKXVX,222,2,734,Correct,14,734
14,ZHZHZ,194,1,792,Correct,14,717
14,PFPFP,15,1,689,Correct,14,698
14,ZYZYZ,152,1,793,Correct,14,792
14,XPXVX,161,2,730,Correct,14,917
14,YCYCY,151,1,566,Correct,14,732
14,RGRGR,10,3,596,Correct,14,775
14,VRVRV,13,1,557,Correct,14,826
14,PKPNP,161,2,717,Correct,14,742
14,XGXGX,11,3,757,Correct,14,744
14,GZYVY,231,2,687,Correct,14,711
14,VCVNV,222,2,812,Correct,14,692
14,VHVHV,195,1,1069,Correct,14,828
14,LXLNL,16,2,600,Correct,14,768
14,GKPKP,221,1,737,Correct,14,910
14,XRXPX,222,2,1123,Correct,14,853
14,XNXNX,151,1,673,Correct,14,752
14,KHKNK,176,2,940,Incorrect,14,660
14,RZRZR,15,1,562,Correct,14,728
14,CGCFC,121,3,1024,Correct,14,784
15,A,5,3,1260,New Target,15,850
15,XRXFX,161,2,758,Correct,15,712
15,RXRKR,162,2,990,Correct,15,692
15,YRYRY,151,1,573,Correct,15,776
15,XPXPX,152,1,647,Correct,15,805
15,RPRPR,153,1,534,Correct,15,765
15,NCNCN,154,1,549,Correct,15,754
15,RXRZR,161,2,832,Correct,15,939
15,NANAN,7,3,1072,Correct,15,888
15,KCKYK,14,2,1433,Correct,15,814
15,XKXFX,162,2,1463,Correct,15,660
15,ZLZKZ,163,2,948,Correct,15,837
15,VCVZV,164,2,1545,Correct,15,656
15,XCXVX,165,2,874,Correct,15,947
15,LKLZA,235,2,773,Correct,15,914
15,NCNCN,113,1,827,Correct,15,809
15,YGYGY,191,1,1323,Correct,15,901
15,VLVLV,15,1,615,Correct,15,850
15,XRXRX,152,1,533,Correct,15,739
15,KAKPK,81,3,874,Correct,15,675
15,YZAZY,233,1,986,Incorrect,15,786
15,CFCFC,113,1,978,Correct,15,923
15,VNVLV,161,2,627,Correct,15,781
15,KPKVK,162,2,1099,Correct,15,909
15,NCNRN,163,2,801,Correct,15,886
15,FGFGF,192,1,993,Correct,15,924
15,RCRYR,16,2,817,Correct,15,801
15,KRKCK,162,2,722,Correct,15,762
15,CRCRC,151,1,796,Correct,15,829
15,XPAPX,223,1,864,Correct,15,837
15,LPLXL,222,2,791,Correct,15,754
15,CGCVC,173,2,,Correct,15,945
15,FKFZF,16,2,975,Correct,15,693
15,CACAC,9,3,1003,Correct,15,789
15,XCXCX,13,1,716,Correct,15,678
15,AXRXR,221,1,615,Correct,15,742
15,NKNRN,222,2,897,Correct,15,934
15,KNKFK,162,2,661,Correct,15,706
15,KAKAK,10,3,657,Correct,15,732
15,ZCZRZ,14,2,668,Correct,15,846
15,RPRPR,151,1,585,Correct,15,742
15,NCNCN,152,1,624,Correct,15,823
15,RYRGR,184,2,535,Correct,15,899
15,VPVPV,15,1,584,Correct,15,783
15,RCRCA,225,1,551,Correct,15,713
15,KXKPK,222,2,578,Correct,15,903
15,NPNPN,151,1,595,Correct,15,662
15,YCYCY,152,1,576,Correct,15,839
15,PXPAP,112,3,854,Correct,15,877
15,ZCZNZ,14,2,992,Correct,15,659
15,KYKGK,185,2,766,Correct,15,753
15,ANLPL,231,2,897,Correct,15,865
15,CXCPC,222,2,656,Correct,15,802
15,YRYRY,151,1,663,Correct,15,844
15,LGLGL,196,1,484,Correct,15,664
15,VYVLV,16,2,853,Correct,15,855
15,KVKVK,151,1,1533,Correct,15,656
15,RKRKR,152,1,886,Correct,15,765
15,VXVXV,153,1,610,Correct,15,905
15,XAXAX,12,3,959,Correct,15,785
