Trial No,Stimulus,Trigger,Response,Response Time(ms),Correct,Block,Fixation Duration
Practice
OT Practice
1,SKSKS,15,,,False,0,809
1,DLDUD,16,,,False,0,741
1,PDPGP,16,2,1171,Correct,0,812
1,MWMWM,15,1,887,Correct,0,941
1,FTFTF,15,2,981,False,0,914
1,AXAMA,16,2,1395,Correct,0,815
1,RYRGR,16,2,895,Correct,0,876
1,DODOD,15,1,744,Correct,0,685
1,QTQAQ,16,2,926,Correct,0,908
1,YEYEY,15,1,796,Correct,0,838
2,GYGDG,16,2,1077,Correct,0,717
2,SWSWS,15,1,831,Correct,0,801
2,HLHUH,16,2,897,Correct,0,868
2,DEDED,15,1,647,Correct,0,723
2,ZPZOZ,16,2,846,Correct,0,906
2,ATATA,15,1,799,Correct,0,910
2,QOQOQ,15,1,1329,Correct,0,902
2,FPFGF,16,2,814,Correct,0,947
2,TRTET,16,2,783,Correct,0,875
2,DQDQD,15,1,1114,Correct,0,665
4,PLPLP,15,1,1289,Correct,0,681
4,ATAIA,16,2,776,Correct,0,908
4,SKSGS,16,,,False,0,812
4,ZYZYZ,15,1,1095,Correct,0,781
4,QSQSQ,15,1,837,Correct,0,756
4,TZTDT,16,2,1198,Correct,0,663
4,JYJGJ,16,2,1193,Correct,0,763
4,DYDYD,15,1,756,Correct,0,677
4,LTLCL,16,2,770,Correct,0,651
4,FQFEF,16,2,743,Correct,0,873
DT Practice
1,TKTKT,15,1,1224,Correct,0,688
1,SLSUS,16,2,992,Correct,0,682
1,VZVGV,7,[3],[980],False,0,811
1,XWXZX,7,,,False,0,852
1,ATATA,15,1,817,Correct,0,757
1,HXZMH,16,2,919,Correct,0,770
1,TZTZT,7,[1][3],[1256][1560],Correct,0,725
1,UOUOU,15,1,1010,Correct,0,740
1,ZTWAW,16,2,1548,Correct,0,908
1,RZRER,7,[1],[1442],False,0,745
2,JYJDJ,16,1,988,False,0,934
2,DWDWD,15,1,1047,Correct,0,942
2,GNGNG,7,[1],[801],False,0,910
2,NEZEZ,16,,,False,0,873
2,RNROR,7,[1],[1254],False,0,718
2,QTQNQ,7,[2],[1546],False,0,838
2,HOHON,15,1,1466,Correct,0,718
2,KPKGK,16,,,False,0,853
2,DRDED,16,,,False,0,701
2,LNLNL,7,,,False,0,932
4,GLGLG,15,1,857,Correct,0,816
4,DTDID,16,2,875,Correct,0,892
4,SMSGS,16,2,1280,Correct,0,739
4,ZFZYZ,7,[2],[1252],False,0,677
4,TSTFT,7,[2][3],[1062][1318],Correct,0,665
4,OFOFO,7,[1][3],[1074][1394],Correct,0,947
4,WYFGW,16,2,928,Correct,0,784
4,WYWYW,15,1,928,Correct,0,815
4,MFMCM,7,[2][2],[931][1539],False,0,807
4,HQHEH,16,1,1296,False,0,944
1,TKTKT,15,1,1190,Correct,0,740
1,SLSUS,16,2,1063,Correct,0,934
1,VZVGV,7,[2],[1244],False,0,703
1,XWXZX,7,[2][3],[1278][1566],Correct,0,949
1,ATATA,15,1,807,Correct,0,706
1,HXZMH,16,2,1283,Correct,0,654
1,TZTZT,7,[1][3],[857][1209],Correct,0,908
1,UOUOU,15,1,791,Correct,0,665
1,ZTWAW,16,2,1418,Correct,0,873
1,RZRER,7,[2],[1407],False,0,769
2,JYJDJ,16,,,False,0,880
2,DWDWD,15,1,857,Correct,0,769
2,GNGNG,7,[1][3],[1064][1288],Correct,0,849
2,NEZEZ,16,1,1356,Correct,0,742
2,RNROR,7,[2],[1346],False,0,856
2,QTQNQ,7,[2][3],[1163][1403],Correct,0,857
2,HOHON,15,1,849,Correct,0,738
2,KPKGK,16,2,1233,Correct,0,876
2,DRDED,16,1,1415,False,0,804
2,LNLNL,7,,,False,0,859
4,GLGLG,15,1,977,Correct,0,778
4,DTDID,16,2,733,Correct,0,903
4,SMSGS,16,2,873,Correct,0,732
4,ZFZYZ,7,[2][3],[889][1290],Correct,0,775
4,TSTFT,7,[2][3],[835][1123],Correct,0,817
4,OFOFO,7,[1][3],[972][1420],Correct,0,845
4,WYFGW,16,2,1234,Correct,0,775
4,WYWYW,15,1,813,Correct,0,676
4,MFMCM,7,[2][3],[924][1276],Correct,0,698
4,HQHEH,16,1,1170,False,0,938
Trials
1,D,5,3,18609,New Target,1,939
1,ZNZYZ,161,,,Incorrect,1,796
1,FZFZF,151,1,1355,Correct,1,746
1,RKRKR,152,1,1488,Correct,1,817
1,RXRNR,161,2,702,Correct,1,818
1,CNCFC,162,2,937,Correct,1,889
1,PDPDP,7,[1][1],[871][1303],Incorrect,1,930
1,CPCFC,14,2,1179,Correct,1,679
1,VLVNV,162,2,914,Correct,1,936
1,KFKFK,151,1,856,Correct,1,772
1,ZNZNZ,152,1,939,Correct,1,911
1,KCKPD,235,2,1571,Correct,1,669
1,ZKZFZ,222,2,1356,Correct,1,883
1,NRNZN,162,2,1094,Correct,1,734
1,KXKRK,163,2,770,Correct,1,770
1,YPYZY,164,2,799,Correct,1,756
1,FKDKF,223,,,Incorrect,1,801
1,RPRPR,113,1,1315,Correct,1,808
1,VRVKV,161,2,728,Correct,1,772
1,RFRPR,162,2,965,Correct,1,723
1,KVKVK,151,1,1141,Correct,1,908
1,YKYVY,161,2,755,Correct,1,763
1,VDVDV,8,[1][3],[723][995],Correct,1,778
1,DVZVZ,221,1,1408,Correct,1,723
1,YFYFY,113,1,679,Correct,1,671
1,ZYZYZ,152,1,623,Correct,1,934
1,VLVXV,161,2,718,Correct,1,817
1,DPXZX,231,2,1373,Correct,1,734
1,RYRYR,113,1,720,Correct,1,842
1,PDPNP,91,[2],[1234],Incorrect,1,683
1,KXKXK,13,1,1208,Correct,1,788
1,ZYZYZ,152,1,740,Correct,1,681
1,VKVKV,153,1,748,Correct,1,866
1,YZYZY,154,1,808,Correct,1,744
1,NLNZN,161,2,659,Correct,1,738
1,ZNDYZ,233,2,1170,Correct,1,785
1,PCPXP,222,2,1256,Correct,1,932
1,ZVZFZ,162,2,672,Correct,1,768
1,RCRZR,163,2,800,Correct,1,759
1,LRLRL,151,1,760,Correct,1,813
1,ZDZDZ,10,[1][3],[787][1107],Correct,1,870
1,RNRZR,14,2,723,Correct,1,929
1,CXCYC,162,2,819,Correct,1,734
1,RCRLR,163,2,698,Correct,1,832
1,FRFRF,151,1,885,Correct,1,824
1,XFXFX,152,1,680,Correct,1,856
1,RPRLR,161,2,806,Correct,1,767
1,YXYRY,162,2,655,Correct,1,798
1,FYFYF,151,2,769,Incorrect,1,731
1,YZYVY,161,1,1099,Incorrect,1,761
1,YKYKY,151,1,683,Correct,1,711
1,XRXRX,152,1,614,Correct,1,855
1,XVXZX,161,2,1114,Correct,1,713
1,PDPDP,11,[1][3],[814][1086],Correct,1,756
1,ZFZFZ,13,1,967,Correct,1,676
1,PXPXP,152,1,565,Correct,1,948
1,LYLYL,153,1,833,Correct,1,899
1,NKNKD,225,1,841,Correct,1,842
1,ZNZNZ,113,1,603,Correct,1,944
1,PYPZP,161,2,729,Correct,1,845
1,XPXPX,151,1,695,Correct,1,733
1,VLVLV,152,1,578,Correct,1,923
1,PKPXP,161,2,1077,Correct,1,739
1,FZFZF,151,1,532,Correct,1,801
1,LDLDL,12,[1][3],[694][982],Correct,1,724
2,U,5,3,3048,New Target,2,650
2,ZVZFZ,161,2,944,Correct,2,682
2,FZFZF,151,1,673,Correct,2,903
2,RFRFR,152,1,995,Correct,2,737
2,NZNKN,161,2,835,Correct,2,862
2,FZFNF,162,1,639,Incorrect,2,696
2,RXRXR,151,1,698,Correct,2,933
2,KRKYK,161,2,819,Correct,2,880
2,NZNPN,162,2,718,Correct,2,779
2,XPXPX,151,1,971,Correct,2,824
2,CUCUC,7,[1][3],[1251][1459],Correct,2,669
2,RFRFR,13,1,887,Correct,2,871
2,VYVXV,161,2,834,Correct,2,712
2,VDVDV,191,1,876,Correct,2,752
2,ZKZRZ,15,2,927,Correct,2,941
2,XCXCX,151,1,756,Correct,2,748
2,CNCUC,82,[2][3],[1088][1344],Correct,2,777
2,RCRCR,13,1,901,Correct,2,656
2,ZPZXZ,161,2,702,Correct,2,704
2,FKFYF,162,2,1099,Correct,2,837
2,ZFZYZ,163,2,789,Correct,2,916
2,PXPXP,151,1,816,Correct,2,767
2,URCKC,231,2,1383,Correct,2,786
2,PCPCP,113,1,904,Correct,2,897
2,XNXNX,152,1,654,Correct,2,836
2,RCRZR,161,2,492,Correct,2,772
2,XVXVX,151,1,717,Correct,2,922
2,NRNRN,152,1,556,Correct,2,744
2,FPFPF,225,1,576,Correct,2,737
2,XVXFX,222,2,694,Correct,2,672
2,PRPRP,151,1,693,Correct,2,741
2,FYFCF,161,2,688,Correct,2,856
2,XUXFX,91,[1][3],[834][1058],Incorrect,2,769
2,CYCVC,14,2,1001,Correct,2,800
2,VDVKV,172,1,879,Incorrect,2,678
2,YCYCY,15,1,630,Correct,2,787
2,NKNLN,161,2,533,Correct,2,869
2,XPUKX,233,2,1173,Correct,2,860
2,ZPZPZ,113,1,768,Correct,2,800
2,KRKRK,152,1,985,Correct,2,842
2,XKXKX,153,1,608,Correct,2,711
2,YUYVY,101,[2],[1493],Incorrect,2,701
2,XKXFU,235,2,1111,Correct,2,856
2,NFNFN,113,1,688,Correct,2,917
2,KDKDK,193,1,858,Correct,2,900
2,XYXKX,16,1,689,Incorrect,2,811
2,YZUZY,223,1,1137,Correct,2,760
2,KFKVK,222,2,706,Correct,2,664
2,LYLYL,151,1,788,Correct,2,658
2,CXCDC,184,2,736,Incorrect,2,732
2,XZXNX,16,2,667,Correct,2,827
2,PXPXP,151,1,964,Correct,2,900
2,ZRZYZ,161,2,668,Correct,2,668
2,PUPYP,111,[2],[1482],Incorrect,2,829
2,RNRNR,14,1,1215,Correct,2,830
2,KDKDK,195,1,724,Correct,2,939
2,KNKNK,15,1,575,Correct,2,821
2,PRPKP,161,2,748,Correct,2,929
2,UNYNY,221,1,1333,Correct,2,836
2,NYNYN,113,2,1003,Incorrect,2,748
2,YXYXY,152,1,990,Incorrect,2,780
2,RDRDR,196,1,622,Correct,2,891
2,FCFCF,15,1,640,Correct,2,704
2,ZKZKZ,152,1,591,Correct,2,784
2,ZUZUZ,12,[1][3],[564][804],Correct,2,743
3,E,5,3,6217,New Target,3,854
3,YZYZY,151,1,714,Correct,3,789
3,VFVNV,161,2,788,Correct,3,922
3,KYKYK,151,1,832,Correct,3,776
3,NKNKN,152,1,698,Correct,3,735
3,XVXNX,161,2,694,Correct,3,799
3,RERFR,71,[1][3],[880][1072],Incorrect,3,787
3,XNXNX,13,1,697,Correct,3,911
3,NXNXN,152,1,742,Correct,3,799
3,ZLZNZ,161,2,1005,Correct,3,946
3,CUCNC,171,2,1069,Correct,3,844
3,FYFRF,16,2,1069,Correct,3,805
3,ZLZLZ,151,1,690,Correct,3,659
3,YZYZY,152,1,1009,Correct,3,808
3,CYCYC,153,1,644,Correct,3,750
3,VUVUV,192,1,614,Correct,3,750
3,PXPRP,16,2,1091,Correct,3,831
3,YPYPY,151,1,722,Correct,3,738
3,CECEC,8,[1][3],[871][1143],Correct,3,780
3,VNENV,223,1,1383,Correct,3,738
3,KRKFK,222,2,744,Correct,3,868
3,XLXLE,225,1,850,Correct,3,843
3,RFRUR,183,2,1000,Correct,3,804
3,XRXLX,16,2,809,Correct,3,871
3,NZNPN,162,2,755,Correct,3,747
3,XZXZX,151,1,765,Correct,3,819
3,FZFZF,152,1,985,Correct,3,744
3,PFPFP,153,1,1049,Correct,3,859
3,YZYXY,161,2,701,Correct,3,693
3,KEKEK,9,[1][3],[863][1023],Correct,3,930
3,CXCPC,14,2,686,Correct,3,913
3,VXVXV,151,1,909,Correct,3,810
3,NUNZN,174,2,724,Correct,3,750
3,RKRVR,16,2,781,Correct,3,910
3,XRXRX,151,1,650,Correct,3,681
3,ERNFN,231,2,678,Incorrect,3,899
3,YRYNY,222,2,773,Correct,3,799
3,PZPEP,102,[1][2],[1012][1572],Incorrect,3,826
3,ZYZXZ,14,2,827,Correct,3,656
3,RZRVR,162,2,883,Correct,3,860
3,XRXRX,151,1,1050,Correct,3,746
3,KUKFK,175,2,1080,Correct,3,858
3,RKRKR,15,1,760,Correct,3,743
3,ZFZFZ,152,2,961,Incorrect,3,825
3,YZYVY,161,2,857,Correct,3,670
3,XPXNX,162,2,1040,Correct,3,854
3,YRYRY,151,1,716,Correct,3,847
3,EPVPV,221,1,1235,Correct,3,943
3,CRCEC,112,[2][3],[1321][1577],Correct,3,738
3,RFRCR,14,2,1184,Correct,3,853
3,CPCVC,162,2,1487,Correct,3,705
3,RXRCR,163,2,1072,Correct,3,822
3,VNVLV,164,1,618,Incorrect,3,950
3,ZXZXZ,151,1,735,Correct,3,652
3,ZCZCZ,152,1,730,Correct,3,818
3,PYPUP,186,2,811,Correct,3,720
3,YKYPY,16,2,938,Correct,3,662
3,YREXY,233,2,1330,Correct,3,701
3,ZKZKZ,113,1,730,Correct,3,687
3,XLXNX,161,2,770,Correct,3,925
3,KFKRE,235,2,924,Correct,3,763
3,RXRLR,222,2,652,Correct,3,915
3,RERXR,121,[2],[1147],Incorrect,3,756
4,J,5,3,13275,New Target,4,744
4,CYCVC,161,1,971,Incorrect,4,706
4,RXRCR,162,2,657,Correct,4,755
4,FPFVF,163,2,589,Correct,4,872
4,LZLZL,151,1,881,Correct,4,687
4,PLPLP,152,1,578,Correct,4,898
4,NPNPN,153,1,581,Correct,4,837
4,XZXZX,161,2,867,Correct,4,945
4,CNCKC,162,2,789,Correct,4,939
4,PCPYJ,235,2,1116,Correct,4,866
4,VYVYV,113,1,776,Correct,4,795
4,RLRLR,152,1,697,Correct,4,666
4,CJCJC,7,[1],[1307],Incorrect,4,726
4,ZLZLZ,13,1,637,Correct,4,840
4,FZFZF,152,1,712,Correct,4,932
4,CFCFC,153,1,530,Correct,4,836
4,PZPZP,154,1,518,Correct,4,779
4,XEXEX,191,1,637,Correct,4,695
4,NVNFN,16,2,733,Correct,4,818
4,KYKYK,151,1,629,Correct,4,901
4,ZNZVZ,161,2,804,Correct,4,838
4,YVJXY,233,2,1345,Correct,4,690
4,XFXFX,113,1,685,Correct,4,670
4,XNXNX,152,2,1017,Incorrect,4,844
4,FJFKF,81,[2],[880],Incorrect,4,781
4,CZCYC,14,2,973,Correct,4,863
4,ZXZCZ,162,2,783,Correct,4,878
4,RYRYJ,225,2,1366,Incorrect,4,927
4,FPFZF,222,2,1478,Correct,4,930
4,XRXRX,151,1,897,Correct,4,852
4,YPYEY,182,2,1073,Correct,4,943
4,XRXRX,15,1,786,Correct,4,757
4,XZXPX,161,2,748,Correct,4,795
4,CJCJC,9,[1][1],[899][1203],Incorrect,4,693
4,ZXZVZ,14,2,778,Correct,4,909
4,VKVKV,151,1,936,Correct,4,716
4,VEVNV,173,2,692,Correct,4,657
4,ZKZVZ,16,2,880,Correct,4,802
4,XVXJX,102,[1][3],[1144][1448],Incorrect,4,938
4,RXRVR,14,2,793,Correct,4,945
4,LRLRL,151,1,805,Correct,4,745
4,YNJNY,223,2,1048,Incorrect,4,949
4,NPNJN,222,2,1473,Correct,4,948
4,ZEZEZ,194,1,884,Correct,4,723
4,ZNZNZ,15,1,729,Correct,4,804
4,YZYZY,152,1,614,Correct,4,738
4,XYXYX,153,1,637,Correct,4,660
4,ZXZXZ,221,1,628,Correct,4,655
4,LYLZL,222,2,769,Correct,4,928
4,CYCNC,162,2,704,Correct,4,669
4,XEXEX,195,1,729,Correct,4,930
4,CVCXC,16,2,1126,Correct,4,796
4,ZPZXZ,162,2,1398,Correct,4,796
4,FZFZF,151,1,842,Correct,4,755
4,RXRJR,112,[2][2],[894][1566],Incorrect,4,820
4,PRPFP,14,,,Incorrect,4,862
4,PKPEP,186,2,1213,Correct,4,912
4,XZXPX,16,2,1461,Correct,4,870
4,JCZVZ,231,2,1418,Correct,4,682
4,RXRLR,222,2,1160,Correct,4,938
4,VZVZV,151,1,1592,Correct,4,677
4,XJXJX,12,[1][3],[941][1085],Correct,4,893
5,I,5,3,1648,New Target,5,818
5,PCPCP,151,1,678,Correct,5,819
5,XYXYX,152,1,615,Correct,5,698
5,VXVXV,153,1,728,Correct,5,718
5,XVXVX,154,1,1014,Correct,5,809
5,ZRZXZ,161,2,1085,Correct,5,695
5,FPFZF,162,2,797,Correct,5,761
5,ZYZYZ,151,1,658,Correct,5,909
5,RVRZR,161,2,690,Correct,5,754
5,CICIC,7,[1][3],[716][860],Correct,5,836
5,XLXLX,13,1,586,Correct,5,901
5,YVYVY,152,1,686,Correct,5,715
5,CJCJC,191,1,1024,Correct,5,717
5,FNFCF,16,2,848,Correct,5,796
5,PVPRP,162,2,812,Correct,5,705
5,FZFZF,151,1,600,Correct,5,673
5,NVIVN,223,2,1272,Incorrect,5,861
5,CVCIC,82,[2],[1421],Incorrect,5,650
5,ZXZXZ,13,1,746,Correct,5,812
5,FCFZF,161,2,837,Correct,5,784
5,IXRXR,221,1,1021,Correct,5,844
5,ZPZNZ,222,1,676,Incorrect,5,664
5,VZVZV,151,1,549,Correct,5,720
5,YRYNY,161,2,683,Correct,5,701
5,VNVPV,162,2,726,Correct,5,837
5,RVRJR,182,2,647,Correct,5,670
5,VRVRV,15,1,715,Correct,5,703
5,VIVIV,9,[1][3],[1127][1271],Correct,5,771
5,CXCVC,14,2,741,Correct,5,872
5,PZPZP,151,1,821,Correct,5,732
5,IXVKV,231,2,1235,Correct,5,709
5,YJYCY,173,2,873,Incorrect,5,852
5,VYVYV,15,1,722,Correct,5,772
5,YVYVY,152,1,652,Correct,5,835
5,NVNVN,153,1,1015,Correct,5,917
5,XYXVX,161,2,725,Correct,5,901
5,NJNCN,174,,,Incorrect,5,902
5,NXNYN,16,2,874,Correct,5,672
5,VXVCV,162,2,708,Correct,5,654
5,ZKZKZ,151,1,886,Correct,5,722
5,XRXYX,161,2,809,Correct,5,889
5,ZCZXZ,162,2,839,Correct,5,675
5,KVKYI,235,2,1332,Correct,5,683
5,CNCNC,113,1,806,Correct,5,866
5,RIRIR,10,[1][3],[932][1092],Correct,5,944
5,VYVXV,14,2,767,Correct,5,822
5,FXIRF,233,2,1060,Correct,5,919
5,PFPFP,113,1,628,Correct,5,863
5,VPVPV,152,1,577,Correct,5,884
5,ZJZJZ,195,1,767,Correct,5,870
5,ZVZNZ,16,2,990,Correct,5,777
5,YVYXY,162,2,777,Correct,5,936
5,PRPRP,151,1,878,Correct,5,923
5,YPYPY,152,1,712,Correct,5,732
5,ZIZPZ,111,[2][2],[658][1314],Incorrect,5,764
5,NKNXN,14,2,694,Correct,5,814
5,RZRXR,162,2,712,Correct,5,663
5,RXRXR,151,1,839,Correct,5,743
5,ZJZJZ,196,1,771,Correct,5,698
5,CVCVI,225,2,1464,Correct,5,933
5,NKNKN,113,1,807,Correct,5,838
5,NRNZN,161,2,945,Correct,5,740
5,CNCNC,151,1,742,Correct,5,840
5,RFRIR,122,[2],[939],Incorrect,5,816
6,B,5,3,1379,New Target,6,871
6,YKYZY,161,2,979,Correct,6,805
6,VCVRV,162,2,621,Correct,6,663
6,XVXVX,151,1,526,Correct,6,740
6,KZKRK,161,2,637,Correct,6,939
6,ZVZXZ,162,2,890,Correct,6,869
6,RCRNR,163,2,575,Correct,6,849
6,CXCRC,164,2,621,Correct,6,860
6,VNBCV,233,2,1130,Correct,6,829
6,CXCVC,222,2,726,Correct,6,784
6,RFRFR,151,1,1027,Correct,6,820
6,XPXRX,161,1,610,Incorrect,6,837
6,RYRBR,72,[2][3],[1086][1326],Correct,6,786
6,ZKZKZ,13,1,647,Correct,6,664
6,FIFRF,171,2,1474,Correct,6,929
6,VZVLV,16,2,967,Correct,6,662
6,RPRVR,162,2,693,Correct,6,883
6,YBYBY,8,[1][3],[724][900],Correct,6,744
6,PYPVP,14,2,1556,Correct,6,731
6,NININ,192,1,734,Correct,6,892
6,RNRNR,15,1,734,Correct,6,723
6,NXNVN,161,2,606,Correct,6,725
6,RNRNR,151,1,801,Correct,6,747
6,FRFVF,161,2,685,Correct,6,723
6,YVYFB,235,2,1089,Incorrect,6,679
6,ZRZXZ,222,2,812,Correct,6,856
6,VNVIV,193,2,693,Incorrect,6,862
6,PXPNP,16,2,590,Correct,6,861
6,ZXZPZ,162,2,574,Correct,6,835
6,VBVBV,9,[1][3],[788][996],Correct,6,694
6,CXCXC,13,1,753,Correct,6,774
6,PCPFP,161,2,576,Correct,6,744
6,KNKNK,151,1,613,Correct,6,717
6,XIXIX,194,1,722,Correct,6,865
6,CYCYC,15,1,523,Correct,6,841
6,FVFYF,161,2,771,Correct,6,708
6,YNYRY,162,2,697,Correct,6,888
6,BVPXP,231,2,617,Correct,6,810
6,NXNXN,113,1,601,Correct,6,715
6,FRFRF,152,1,954,Correct,6,751
6,YVYVY,153,1,578,Correct,6,673
6,ZKZCZ,161,2,587,Correct,6,654
6,VIVXV,175,2,600,Correct,6,927
6,PRBRP,223,2,1374,Incorrect,6,693
6,YZYBY,102,[2][2],[761][1465],Incorrect,6,811
6,CXCVC,14,2,801,Correct,6,678
6,FYFYF,151,2,619,Incorrect,6,786
6,VKVXV,161,2,1457,Correct,6,656
6,ZBZBZ,11,[1][3],[887][1047],Correct,6,744
6,FPFNF,14,2,719,Correct,6,697
6,CXCXC,151,1,682,Correct,6,818
6,YCYCY,152,1,598,Correct,6,848
6,FPFPF,153,1,730,Correct,6,764
6,CVCVB,225,1,792,Correct,6,758
6,ZCZCZ,113,1,644,Correct,6,780
6,CZCNC,161,2,1007,Correct,6,891
6,KIKFK,176,2,1047,Correct,6,677
6,PXPXP,15,1,819,Correct,6,894
6,RYRYR,152,1,863,Correct,6,722
6,ZRZCZ,161,2,1217,Correct,6,921
6,RVRVR,151,1,541,Correct,6,766
6,XYXNX,161,2,753,Correct,6,778
6,BVKVK,221,2,1103,Incorrect,6,721
6,CBCBC,12,[1][3],[1052][1260],Correct,6,791
7,W,5,3,1958,New Target,7,831
7,RKRKR,151,1,825,Correct,7,855
7,CVCRC,161,2,703,Correct,7,823
7,PKPKP,151,1,664,Correct,7,884
7,FPFPF,152,1,882,Correct,7,936
7,VRVPV,161,2,830,Correct,7,689
7,ZKZYZ,162,2,868,Correct,7,830
7,PVPCP,233,2,837,Correct,7,908
7,KVKVK,113,1,984,Correct,7,906
7,YXYVY,161,2,911,Correct,7,680
7,FNFNF,151,1,663,Correct,7,698
7,YWYWY,7,[1][3],[778][953],Correct,7,937
7,ZYZYZ,13,1,814,Correct,7,797
7,PYPYP,152,1,817,Correct,7,940
7,XRXRX,153,1,908,Correct,7,741
7,PXPXP,154,1,657,Correct,7,880
7,FCFBF,181,2,560,Correct,7,772
7,FVFVF,15,1,851,Correct,7,779
7,CYCZC,161,2,748,Correct,7,774
7,XZXVX,162,2,779,Correct,7,715
7,PFPFP,151,1,659,Correct,7,859
7,RVRLR,161,2,623,Correct,7,870
7,ZBZBZ,192,1,1234,Correct,7,740
7,VCVNV,16,2,697,Correct,7,813
7,NWNWN,8,[1][3],[1008][1136],Correct,7,819
7,XNXVX,14,2,641,Correct,7,674
7,CXCNC,162,2,994,Correct,7,808
7,YVYVW,225,2,953,Incorrect,7,687
7,VFVFV,113,1,749,Correct,7,803
7,VFWFV,223,2,1080,Incorrect,7,832
7,CVCFC,222,2,1125,Correct,7,823
7,YBYBY,193,1,880,Correct,7,872
7,PYPYP,15,1,938,Correct,7,660
7,NKNWN,91,[2][3],[823][951],Correct,7,912
7,VNVNV,13,1,1035,Correct,7,707
7,RVRVR,152,,,Incorrect,7,743
7,FVFBF,184,2,1210,Incorrect,7,840
7,VZVKV,16,2,838,Correct,7,752
7,VPVCV,162,2,908,Correct,7,900
7,WYZCZ,231,2,565,Correct,7,650
7,PFPFP,113,1,730,Correct,7,750
7,PRPRP,152,1,713,Correct,7,699
7,NWNWN,10,[1][3],[934][1142],Correct,7,855
7,VKVCV,14,2,626,Correct,7,669
7,WPYPY,221,1,706,Correct,7,762
7,VBVBV,195,1,540,Correct,7,848
7,ZKZYZ,16,2,657,Correct,7,718
7,XYXYX,151,1,828,Correct,7,857
7,FZFXF,161,2,807,Correct,7,731
7,XKXKX,151,1,672,Correct,7,725
7,XPXPX,152,1,609,Correct,7,712
7,FWFWF,11,[1][3],[774][950],Correct,7,673
7,FNFBF,186,2,788,Correct,7,732
7,ZVZYZ,16,2,844,Correct,7,902
7,FZFZF,151,1,688,Correct,7,900
7,NPNFW,235,2,920,Correct,7,946
7,PCPCP,113,1,1347,Correct,7,661
7,NKNWN,122,[2][3],[964][1252],Correct,7,768
8,M,5,3,3195,New Target,8,731
8,VYVNV,161,1,947,Incorrect,8,827
8,KLKNK,162,2,956,Correct,8,707
8,NRNRN,151,,,Incorrect,8,855
8,VNVFV,161,2,1205,Correct,8,930
8,XNXNM,225,1,1054,Correct,8,872
8,CXCVC,222,2,751,Correct,8,805
8,KRKZK,162,2,744,Correct,8,906
8,NMNFN,71,[2],[1352],Incorrect,8,806
8,ZFZFZ,13,1,918,Correct,8,800
8,YPYCY,161,2,1509,Correct,8,920
8,KCKCK,151,,,Incorrect,8,882
8,VNVNV,152,1,1277,Correct,8,749
8,LXLXL,153,,,Incorrect,8,707
8,CLCLC,154,1,727,Correct,8,769
8,NYNYN,155,2,824,Incorrect,8,693
8,LCMYL,233,2,847,Correct,8,870
8,NCNCN,113,1,780,Correct,8,691
8,ZVZRZ,161,2,774,Correct,8,749
8,ZVZVZ,151,1,829,Correct,8,934
8,PZPVP,161,2,1139,Correct,8,915
8,PWPNP,171,2,936,Correct,8,928
8,KLKCM,235,2,968,Correct,8,950
8,XMXMX,8,[1],[862],Incorrect,8,829
8,PRPXP,14,2,928,Correct,8,783
8,CVCYC,162,2,1333,Correct,8,722
8,PXPMP,92,[2],[1257],Incorrect,8,766
8,ZCZLZ,14,2,1347,Correct,8,717
8,XWXWX,192,1,1076,Correct,8,933
8,ZCZLZ,16,2,525,Correct,8,905
8,MNCYC,231,2,1130,Correct,8,924
8,ZXZXZ,113,1,1227,Correct,8,701
8,YRYNY,161,2,615,Correct,8,692
8,ZLZPZ,162,2,761,Correct,8,762
8,VZVZV,151,1,775,Correct,8,713
8,MXPXP,221,2,512,Incorrect,8,827
8,VWVWV,193,1,551,Correct,8,738
8,PYPYP,16,1,604,Incorrect,8,784
8,XPXVX,162,2,617,Correct,8,911
8,XLXLX,151,1,621,Correct,8,675
8,YMYMY,10,[1],[666],Incorrect,8,917
8,VYVYV,13,1,603,Correct,8,860
8,PWPZP,174,2,718,Correct,8,675
8,PYPKP,16,2,670,Correct,8,682
8,NPNXN,162,2,637,Correct,8,752
8,KVKVK,223,1,896,Correct,8,749
8,NVNFN,222,2,1267,Correct,8,839
8,XNXNX,151,1,1024,Correct,8,674
8,YZYMY,112,[2][2],[640][1408],Incorrect,8,916
8,PFPFP,13,2,574,Incorrect,8,701
8,ZWZWZ,195,1,544,Correct,8,803
8,PCPZP,16,2,569,Correct,8,713
8,LRLPL,162,2,798,Correct,8,697
8,CZCZC,151,1,615,Correct,8,807
8,NZNZN,152,1,614,Correct,8,767
8,CVCXC,161,2,628,Correct,8,871
8,XCXCX,151,1,595,Correct,8,817
8,YWYWY,196,1,576,Correct,8,947
8,NLNLN,15,1,773,Correct,8,709
8,VNVNV,152,1,541,Correct,8,895
8,ZMZMZ,12,[2][2],[818][1345],Incorrect,8,909
9,S,5,3,4984,New Target,9,693
9,NZNZN,151,1,955,Correct,9,711
9,KVKZK,161,2,625,Correct,9,763
9,LZLZL,151,1,671,Correct,9,885
9,XLXLX,152,1,721,Correct,9,699
9,ZXZXZ,153,1,628,Correct,9,722
9,KNKZK,161,2,674,Correct,9,844
9,NRNYN,162,2,734,Correct,9,863
9,CLCVC,163,2,920,Correct,9,881
9,ZCZFZ,164,2,762,Correct,9,879
9,NSNSN,7,[1][1],[700][1196],Incorrect,9,835
9,VZVZV,13,1,632,Correct,9,748
9,NVNCN,161,2,619,Correct,9,722
9,VMVMV,191,1,813,Correct,9,758
9,CVCXC,16,2,692,Correct,9,831
9,ZYZRZ,162,2,644,Correct,9,755
9,XNXZX,163,2,680,Correct,9,734
9,PXPXP,151,2,512,Incorrect,9,933
9,VCVSV,82,[2][3],[896][1024],Correct,9,701
9,PRPCP,14,2,599,Correct,9,660
9,ZMZMZ,192,1,649,Incorrect,9,801
9,ZFZFZ,15,1,579,Correct,9,892
9,FCFCF,152,1,582,Correct,9,811
9,YLYZY,161,2,692,Correct,9,843
9,KNKVK,162,2,704,Correct,9,865
9,SFPCP,231,2,1192,Correct,9,941
9,RPRPR,113,1,1159,Correct,9,723
9,XMXMX,193,1,706,Correct,9,788
9,KFKFK,15,1,596,Correct,9,653
9,VSVSV,9,[1][3],[842][1050],Correct,9,914
9,YVSVY,223,1,1269,Correct,9,877
9,VPVPV,113,1,576,Correct,9,762
9,XZXZX,152,1,773,Correct,9,749
9,KZKXK,161,2,1133,Correct,9,875
9,RFRPR,162,2,893,Correct,9,683
9,NVNVS,225,2,863,Incorrect,9,853
9,ZXZXZ,113,1,755,Correct,9,910
9,SRVRV,221,1,1450,Correct,9,902
9,YCYCY,113,1,709,Correct,9,899
9,KMKZK,174,2,835,Correct,9,830
9,FZSVF,233,2,1305,Correct,9,866
9,VYVYV,113,1,675,Correct,9,726
9,LVLVL,152,2,863,Incorrect,9,810
9,YFYFY,153,1,727,Correct,9,745
9,NXNSN,102,[2][3],[1149][1469],Correct,9,689
9,FNFCF,14,2,763,Correct,9,928
9,KVKVK,151,1,802,Correct,9,943
9,VZVCV,161,2,637,Correct,9,691
9,ZYZMZ,185,2,667,Correct,9,872
9,VXVZV,16,2,667,Correct,9,732
9,VPVPV,151,1,746,Correct,9,862
9,RVRNS,235,2,795,Correct,9,655
9,YZYZY,113,1,678,Correct,9,750
9,ZSZSZ,11,[1][3],[899][1059],Correct,9,850
9,FRFRF,13,1,846,Correct,9,704
9,ZMZMZ,196,1,643,Correct,9,831
9,NZNXN,16,2,879,Correct,9,878
9,LSLFL,121,[2],[802],Incorrect,9,884
10,Q,5,3,9860,New Target,10,901
10,ZVZPZ,161,2,787,Correct,10,679
10,RZRZR,151,2,551,Incorrect,10,928
10,ZFZFZ,152,1,749,Correct,10,719
10,RZRZR,153,1,617,Correct,10,799
10,PZPXP,161,2,652,Correct,10,709
10,VFQPV,233,2,570,Correct,10,852
10,ZPZRZ,222,2,1025,Correct,10,695
10,CYCVC,162,2,912,Correct,10,852
10,CPCPC,151,1,698,Correct,10,699
10,YZYQY,72,[2][3],[818][978],Correct,10,750
10,FVFXF,14,2,754,Correct,10,943
10,YNYNQ,225,2,927,Incorrect,10,747
10,ZYZYZ,113,1,677,Correct,10,737
10,FRFSF,181,2,881,Incorrect,10,843
10,XNXPX,16,2,746,Correct,10,704
10,NXNXN,151,1,677,Correct,10,850
10,PVPZP,161,2,995,Correct,10,860
10,XVXPX,162,2,660,Correct,10,847
10,FXFVF,163,2,807,Correct,10,729
10,NSNKN,172,2,588,Incorrect,10,910
10,VXVNV,16,2,859,Correct,10,929
10,XZXZX,151,1,915,Correct,10,800
10,VQVQV,8,[1][3],[573][765],Correct,10,792
10,ZYZPZ,14,2,730,Correct,10,851
10,PZPSP,183,2,641,Correct,10,937
10,YVYVY,15,1,589,Correct,10,867
10,NCNQN,92,[2][12],[1012][1108],Incorrect,10,747
10,FCFVF,14,2,696,Correct,10,780
10,ZFZFZ,151,1,645,Correct,10,784
10,NSNSN,194,1,998,Correct,10,736
10,YPYFY,16,2,779,Correct,10,765
10,ZKZKZ,151,1,663,Correct,10,682
10,QZRCR,231,2,1287,Correct,10,787
10,YPYVY,222,2,724,Correct,10,652
10,ZNZNZ,151,1,608,Correct,10,821
10,VQVQV,10,[1][3],[701][829],Correct,10,861
10,RVRZR,14,2,638,Correct,10,898
10,KRKSK,185,2,688,Correct,10,688
10,NPNPN,15,1,684,Correct,10,866
10,YPYPY,152,1,618,Correct,10,847
10,VCVYV,161,2,656,Correct,10,687
10,FPFNF,162,2,772,Correct,10,673
10,QVXVX,221,2,815,Incorrect,10,795
10,ZVZRZ,222,2,632,Correct,10,800
10,LFLFL,151,1,846,Correct,10,699
10,VLVLV,152,1,616,Correct,10,746
10,KXQXK,223,2,858,Incorrect,10,737
10,YQYQY,11,[1][3],[780][1148],Correct,10,810
10,YCYCY,13,1,838,Correct,10,900
10,PZPYP,161,2,906,Correct,10,871
10,LPLFL,162,,,Incorrect,10,861
10,VSVSV,196,1,596,Correct,10,946
10,VFVYQ,235,2,813,Correct,10,668
10,CZCXC,222,2,761,Correct,10,652
10,PVPCP,162,2,949,Correct,10,830
10,CXCXC,151,1,836,Correct,10,942
10,NZNZN,152,1,670,Correct,10,689
10,YPYCY,161,2,738,Correct,10,712
10,ZQZQZ,12,[1][3],[532][564],Correct,10,860
11,T,5,3,3579,New Target,11,865
11,KFKFK,151,1,874,Correct,11,837
11,LZLZL,152,1,997,Correct,11,727
11,PFPVP,161,2,721,Correct,11,925
11,FRFPF,162,2,682,Correct,11,903
11,FZFZF,151,1,949,Correct,11,904
11,VTVTV,7,[1][1],[617][857],Incorrect,11,759
11,KYKCK,14,2,570,Correct,11,820
11,VPVPV,151,1,778,Correct,11,823
11,XQXQX,191,1,744,Correct,11,717
11,PZPYP,16,2,627,Correct,11,785
11,KXKLK,162,2,902,Correct,11,727
11,TCNCN,221,2,1034,Incorrect,11,791
11,PZPNP,222,2,839,Correct,11,870
11,RCRPR,162,2,1215,Correct,11,742
11,PZPRT,235,2,810,Correct,11,757
11,XFXVX,222,2,598,Correct,11,730
11,LTLVL,81,[2][3],[1116][1339],Correct,11,883
11,ZCZPZ,14,2,751,Correct,11,893
11,NCNQN,182,2,732,Correct,11,723
11,XZXNX,16,2,808,Correct,11,770
11,ZPZPZ,151,1,639,Correct,11,855
11,CFCFC,152,1,667,Correct,11,915
11,VXTRV,233,2,677,Correct,11,854
11,CFCVC,222,2,818,Correct,11,813
11,PYPYP,151,1,824,Correct,11,861
11,FQFYF,173,2,546,Correct,11,778
11,CNCFC,16,1,592,Incorrect,11,890
11,PTPTP,9,[1][3],[741][853],Correct,11,887
11,ZCZCZ,13,1,834,Correct,11,679
11,KZKZK,152,1,741,Correct,11,882
11,RLRVR,161,2,675,Correct,11,744
11,ZRZKZ,162,2,1226,Correct,11,932
11,KLKLT,225,1,1070,Correct,11,915
11,ZQZQZ,194,1,599,Correct,11,928
11,VZVZV,15,1,627,Correct,11,885
11,RVRZR,161,2,743,Correct,11,689
11,ZPZCZ,162,2,689,Correct,11,883
11,VYVYV,151,1,689,Correct,11,773
11,RVRVR,152,1,946,Correct,11,739
11,PTPTP,10,[2][3],[654][926],Incorrect,11,738
11,PXPXP,13,1,764,Correct,11,655
11,KCKCK,152,1,632,Correct,11,757
11,YVYVY,153,1,589,Correct,11,722
11,CYCYC,154,1,513,Correct,11,737
11,XCXCX,155,1,566,Correct,11,828
11,CYCQC,185,2,628,Correct,11,888
11,KCKNK,16,2,739,Correct,11,789
11,VPVPV,151,1,641,Correct,11,720
11,TXFZF,231,2,669,Correct,11,901
11,NYNVN,222,2,1143,Correct,11,929
11,VQVXV,176,2,644,Correct,11,770
11,ZRZRZ,15,1,833,Correct,11,899
11,VTVZV,111,[1][3],[854][982],Incorrect,11,760
11,PXPVP,14,2,1081,Correct,11,788
11,FVFVF,151,1,927,Correct,11,654
11,VRVLV,161,2,666,Correct,11,688
11,YCYCY,151,1,687,Correct,11,672
11,XZTZX,223,1,796,Correct,11,755
11,VTVTV,12,[1][3],[782][942],Correct,11,864
12,O,5,3,16660,New Target,12,788
12,VXVLV,161,2,490,Correct,12,711
12,KVKCK,162,2,579,Correct,12,701
12,VLVLV,151,1,547,Correct,12,841
12,ZCZVZ,161,2,577,Correct,12,904
12,KFKFK,151,1,658,Correct,12,838
12,XKXKX,152,1,637,Correct,12,920
12,YXYXY,153,1,571,Correct,12,871
12,FVFVF,154,1,554,Correct,12,870
12,PVPOP,72,[2][3],[863][1151],Correct,12,678
12,ZXZYZ,14,2,757,Correct,12,765
12,PXPVP,162,2,579,Correct,12,735
12,ZTZTZ,191,1,632,Correct,12,780
12,CVCKC,16,2,666,Correct,12,752
12,CKCKC,151,1,934,Correct,12,842
12,NPNPN,152,1,615,Correct,12,901
12,ZRZNZ,161,2,727,Correct,12,830
12,OZCZC,221,1,1248,Correct,12,884
12,LFLFL,113,1,598,Correct,12,796
12,CXCXC,152,1,545,Correct,12,939
12,KPKPK,153,1,644,Correct,12,871
12,FRFKF,161,2,801,Correct,12,851
12,FOFOF,8,[1][3],[862][990],Correct,12,936
12,ZFZFZ,13,1,572,Correct,12,876
12,LKLZO,235,2,1135,Correct,12,782
12,KLKZK,222,2,747,Correct,12,763
12,YXYCY,162,2,747,Correct,12,650
12,LOLOL,9,[1][3],[642][801],Correct,12,922
12,XLXLX,13,1,617,Correct,12,680
12,XVXVX,152,1,717,Correct,12,664
12,FTFTF,192,1,527,Correct,12,681
12,OXNZN,231,2,801,Correct,12,878
12,CZCZC,113,1,671,Correct,12,704
12,LZLZL,152,1,600,Correct,12,943
12,VLVPV,161,2,709,Correct,12,915
12,VYVYO,225,1,980,Correct,12,749
12,XKXKX,113,1,1001,Correct,12,711
12,RTRTR,193,1,686,Correct,12,737
12,KVKCK,16,2,857,Correct,12,906
12,ROROR,101,[1][3],[899][1027],Correct,12,807
12,PRPRP,13,1,627,Correct,12,945
12,LYLVL,161,2,1180,Correct,12,949
12,PLPLP,151,1,679,Correct,12,753
12,CTCTC,194,1,619,Correct,12,675
12,XZXYX,16,2,765,Correct,12,766
12,NKNKN,151,1,901,Correct,12,819
12,VLVZV,161,2,552,Correct,12,893
12,YOYOY,11,[1][3],[610][706],Correct,12,669
12,PZOZP,223,2,787,Incorrect,12,798
12,FYFYF,113,1,687,Correct,12,763
12,ZXZVZ,161,2,750,Correct,12,733
12,VKVZV,162,2,696,Correct,12,816
12,ZTZTZ,195,1,679,Correct,12,771
12,LKLZL,16,2,663,Correct,12,756
12,KCKVK,162,2,652,Correct,12,657
12,PXPKP,163,2,617,Correct,12,862
12,KCOZK,233,2,899,Correct,12,922
12,FKFKF,113,1,772,Correct,12,898
12,CTCRC,176,2,572,Correct,12,877
12,NXNXN,15,1,911,Correct,12,738
12,KXKVK,161,2,713,Correct,12,651
12,CPCOC,122,[2],[1272],Incorrect,12,848
13,H,5,3,1215,New Target,13,950
13,VFVNV,151,2,511,Incorrect,13,901
13,YVYVY,152,1,764,Correct,13,924
13,XVXVX,153,2,552,Incorrect,13,757
13,NRNXN,161,2,669,Correct,13,725
13,PZPKP,162,2,555,Correct,13,776
13,HLVLV,221,2,1005,Incorrect,13,828
13,CXCZC,222,2,828,Correct,13,853
13,LHLYL,71,[1][1],[686][1214],Incorrect,13,802
13,YKYFY,14,2,1082,Correct,13,790
13,YOYRY,171,2,890,Correct,13,784
13,ZKZYZ,16,2,740,Correct,13,720
13,RZRZR,151,1,782,Correct,13,872
13,NFNYN,161,2,699,Correct,13,689
13,KVKFK,162,2,682,Correct,13,807
13,XFXYX,163,2,924,Correct,13,659
13,LKLVL,164,2,700,Correct,13,911
13,NLNLN,151,1,874,Correct,13,720
13,XCXOX,182,2,674,Correct,13,774
13,FXFXF,15,2,1331,Incorrect,13,746
13,VHVHV,8,[1][1],[692][1204],Incorrect,13,895
13,PVPVP,13,1,553,Correct,13,750
13,CRCXC,161,2,751,Correct,13,666
13,NXNXN,151,2,784,Incorrect,13,663
13,XRXRX,152,1,804,Correct,13,935
13,YFYXY,161,2,957,Correct,13,834
13,ZOZOZ,193,,,Incorrect,13,910
13,RZRZR,15,1,650,Correct,13,693
13,FKFKF,152,1,700,Correct,13,768
13,PFPFP,153,1,1093,Correct,13,859
13,XYXHX,92,[2],[1309],Incorrect,13,846
13,RZRKR,14,2,917,Correct,13,912
13,FLFLH,225,1,990,Correct,13,713
13,KRKRK,113,1,993,Correct,13,778
13,ZVZNZ,161,2,887,Correct,13,691
13,ZOZOZ,194,1,865,Correct,13,668
13,FZFZF,15,1,682,Correct,13,770
13,FHFKF,101,[2],[785],Incorrect,13,739
13,ZXHLZ,233,2,1264,Correct,13,748
13,FKFXF,222,2,840,Correct,13,916
13,CFCYC,162,2,588,Correct,13,844
13,ZXZVZ,163,2,609,Correct,13,711
13,KCKOK,185,2,808,Correct,13,681
13,ZXZVH,235,2,896,Correct,13,868
13,CKCKC,113,1,935,Correct,13,748
13,ZXZCZ,161,2,679,Correct,13,888
13,YVYVY,151,1,833,Correct,13,948
13,RVHVR,223,2,976,Incorrect,13,656
13,ZRZRZ,113,1,1332,Correct,13,814
13,ZHZHZ,11,[1][3],[643][787],Correct,13,813
13,VZVZV,13,1,751,Correct,13,701
13,HZVRV,231,2,921,Correct,13,770
13,FVFVF,113,1,912,Correct,13,715
13,RNRCR,161,2,647,Correct,13,734
13,COCOC,196,1,950,Correct,13,826
13,VNVXV,16,2,811,Correct,13,762
13,XHXHX,12,[1][3],[697][969],Correct,13,724
14,G,5,3,14473,New Target,14,836
14,FZFZF,151,1,707,Correct,14,948
14,RPRVR,161,2,492,Correct,14,887
14,XCXCX,151,1,659,Correct,14,746
14,YXYXY,152,1,590,Correct,14,899
14,KZKZK,153,1,575,Correct,14,801
14,RYRKR,161,2,700,Correct,14,923
14,FYFNF,162,2,718,Correct,14,698
14,VKVKV,151,1,684,Correct,14,847
14,KPGPK,223,2,583,Incorrect,14,782
14,YNYNY,113,1,618,Correct,14,812
14,VYVYV,152,1,555,Correct,14,754
14,YCYXY,161,2,875,Correct,14,843
14,LKLGL,72,[2],[751],Incorrect,14,920
14,VXVXV,13,1,613,Correct,14,724
14,KCKVK,161,2,567,Correct,14,792
14,YKYKY,151,1,623,Correct,14,652
14,RHRXR,171,2,714,Correct,14,938
14,FVFCF,16,2,745,Correct,14,727
14,YXYGY,82,[2],[583],Incorrect,14,916
14,CLCLC,13,1,576,Correct,14,872
14,ZXZCZ,161,2,718,Correct,14,903
14,VLVFV,162,2,623,Correct,14,659
14,CPCPG,225,2,1309,Incorrect,14,818
14,KHKNK,172,2,866,Correct,14,834
14,ZKZVZ,16,2,548,Correct,14,904
14,YKYLY,162,2,584,Correct,14,747
14,CNCNC,151,1,1000,Correct,14,825
14,PGPGP,9,[1],[864],Incorrect,14,839
14,VPVPV,13,1,633,Correct,14,880
14,FXGRF,233,2,942,Correct,14,653
14,CYCVC,222,1,853,Incorrect,14,727
14,FNFNF,151,1,603,Correct,14,850
14,KFKCK,161,2,742,Correct,14,919
14,ZFZHZ,183,2,985,Correct,14,670
14,NXNXN,15,1,1060,Correct,14,946
14,FNFNF,152,1,631,Correct,14,769
14,LXLNG,235,2,709,Correct,14,798
14,XKXVX,222,2,673,Correct,14,874
14,ZHZHZ,194,1,738,Correct,14,653
14,PFPFP,15,1,736,Correct,14,729
14,ZYZYZ,152,2,713,Incorrect,14,839
14,XPXVX,161,2,603,Correct,14,669
14,YCYCY,151,1,678,Correct,14,919
14,RGRGR,10,[1],[681],Incorrect,14,792
14,VRVRV,13,1,699,Correct,14,666
14,PKPNP,161,2,1096,Correct,14,776
14,XGXGX,11,[1][3],[666][778],Correct,14,654
14,GZYVY,231,2,1228,Correct,14,834
14,VCVNV,222,2,772,Correct,14,858
14,VHVHV,195,1,751,Correct,14,798
14,LXLNL,16,2,671,Correct,14,667
14,GKPKP,221,2,573,Incorrect,14,803
14,XRXPX,222,1,803,Incorrect,14,705
14,XNXNX,151,1,587,Correct,14,811
14,KHKNK,176,2,682,Incorrect,14,881
14,RZRZR,15,1,745,Correct,14,733
14,CGCFC,121,[1][3],[1098][1306],Incorrect,14,782
15,A,5,3,16729,New Target,15,903
15,XRXFX,161,2,613,Correct,15,873
15,RXRKR,162,2,724,Correct,15,797
15,YRYRY,151,1,661,Correct,15,655
15,XPXPX,152,1,564,Correct,15,805
15,RPRPR,153,1,699,Correct,15,662
15,NCNCN,154,1,629,Correct,15,854
15,RXRZR,161,2,705,Correct,15,893
15,NANAN,7,[1][3],[730][1002],Correct,15,917
15,KCKYK,14,2,754,Correct,15,947
15,XKXFX,162,2,813,Correct,15,820
15,ZLZKZ,163,2,728,Correct,15,747
15,VCVZV,164,2,629,Correct,15,771
15,XCXVX,165,2,660,Correct,15,880
15,LKLZA,235,2,1255,Correct,15,752
15,NCNCN,113,1,511,Correct,15,828
15,YGYGY,191,1,545,Correct,15,800
15,VLVLV,15,1,562,Correct,15,868
15,XRXRX,152,1,545,Correct,15,860
15,KAKPK,81,[1][3],[664][824],Incorrect,15,772
15,YZAZY,233,2,1048,Correct,15,755
15,CFCFC,113,1,588,Correct,15,681
15,VNVLV,161,,,Incorrect,15,856
15,KPKVK,162,2,739,Correct,15,885
15,NCNRN,163,2,639,Correct,15,836
15,FGFGF,192,1,830,Correct,15,811
15,RCRYR,16,2,583,Correct,15,782
15,KRKCK,162,2,759,Correct,15,874
15,CRCRC,151,1,754,Correct,15,809
15,XPAPX,223,2,784,Incorrect,15,683
15,LPLXL,222,2,933,Correct,15,938
15,CGCVC,173,2,1071,Correct,15,672
15,FKFZF,16,2,621,Correct,15,848
15,CACAC,9,[1][3],[667][811],Correct,15,702
15,XCXCX,13,2,499,Incorrect,15,759
15,AXRXR,221,2,1029,Incorrect,15,841
15,NKNRN,222,2,1263,Correct,15,924
15,KNKFK,162,2,1255,Correct,15,843
15,KAKAK,10,[1][3],[773][853],Correct,15,836
15,ZCZRZ,14,2,622,Correct,15,826
15,RPRPR,151,1,1281,Correct,15,730
15,NCNCN,152,,,Incorrect,15,815
15,RYRGR,184,2,1393,Correct,15,784
15,VPVPV,15,1,1287,Correct,15,773
15,RCRCA,225,1,1153,Correct,15,763
15,KXKPK,222,2,737,Correct,15,744
15,NPNPN,151,1,641,Correct,15,682
15,YCYCY,152,1,595,Correct,15,794
15,PXPAP,112,[2][1],[900][948],Incorrect,15,950
15,ZCZNZ,14,2,877,Correct,15,777
15,KYKGK,185,2,672,Correct,15,905
15,ANLPL,231,2,962,Correct,15,759
15,CXCPC,222,2,681,Correct,15,714
15,YRYRY,151,1,1066,Correct,15,723
15,LGLGL,196,1,948,Correct,15,912
15,VYVLV,16,2,870,Correct,15,800
15,KVKVK,151,1,1504,Correct,15,713
15,RKRKR,152,1,815,Correct,15,803
15,VXVXV,153,1,1176,Correct,15,766
15,XAXAX,12,[1][3],[637][717],Correct,15,682
