Trial No,Stimulus,Trigger,Response,Response Time(ms),Correct,Block,Fixation Duration
Practice
OT Practice
1,SKSKS,15,,,False,0,802
1,DLDUD,16,2,1475,Correct,0,756
1,PDPGP,16,2,1410,Correct,0,757
1,MWMWM,15,1,1027,Correct,0,778
1,FTFTF,15,1,1308,Correct,0,915
1,AXAMA,16,1,1055,False,0,773
1,RYRGR,16,2,974,Correct,0,690
1,DODOD,15,1,1105,Correct,0,680
1,QTQAQ,16,2,925,Correct,0,766
1,YEYEY,15,1,736,Correct,0,764
2,GYGDG,16,2,930,Correct,0,913
2,SWSWS,15,1,781,Correct,0,924
2,HLHUH,16,2,1061,Correct,0,746
2,DEDED,15,1,926,Correct,0,865
2,ZPZOZ,16,2,813,Correct,0,903
2,ATATA,15,1,910,Correct,0,884
2,QOQOQ,15,1,1435,Correct,0,926
2,FPFGF,16,2,765,Correct,0,665
2,TRTET,16,2,743,Correct,0,740
2,DQDQD,15,1,1084,Correct,0,883
4,PLPLP,15,1,958,Correct,0,693
4,ATAIA,16,2,943,Correct,0,739
4,SKSGS,16,2,1082,Correct,0,923
4,ZYZYZ,15,1,673,Correct,0,944
4,QSQSQ,15,1,618,Correct,0,878
4,TZTDT,16,2,599,Correct,0,757
4,JYJGJ,16,2,993,Correct,0,902
4,DYDYD,15,1,901,Correct,0,652
4,LTLCL,16,2,649,Correct,0,745
4,FQFEF,16,2,815,Correct,0,908
DT Practice
1,TKTKT,15,1,1364,Correct,0,659
1,SLSUS,16,2,851,Correct,0,839
1,VZVGV,7,,,False,0,869
1,XWXZX,7,,,False,0,757
1,ATATA,15,1,1202,Correct,0,938
1,HXZMH,16,2,1157,Correct,0,851
1,TZTZT,7,[1][3],[964][1108],Correct,0,654
1,UOUOU,15,1,966,Correct,0,919
1,ZTWAW,16,2,933,Correct,0,806
1,RZRER,7,[2][3],[990][1214],Correct,0,844
2,JYJDJ,16,2,1045,Correct,0,859
2,DWDWD,15,1,1126,Correct,0,666
2,GNGNG,7,[1][3],[1329][1553],Correct,0,753
2,NEZEZ,16,1,1323,Correct,0,652
2,RNROR,7,[2][3],[1049][1257],Correct,0,704
2,QTQNQ,7,[2][3],[1249][1409],Correct,0,715
2,HOHON,15,1,972,Correct,0,658
2,KPKGK,16,2,1182,Correct,0,750
2,DRDED,16,2,962,Correct,0,834
2,LNLNL,7,[1][3],[899][1043],Correct,0,827
4,GLGLG,15,1,881,Correct,0,781
4,DTDID,16,2,1002,Correct,0,676
4,SMSGS,16,2,1016,Correct,0,813
4,ZFZYZ,7,[1][3],[1076][1220],False,0,785
4,TSTFT,7,[2][3],[1097][1320],Correct,0,912
4,OFOFO,7,[1],[1021],False,0,682
4,WYFGW,16,2,1315,Correct,0,749
4,WYWYW,15,1,1284,Correct,0,849
4,MFMCM,7,[2][3],[1271][1463],Correct,0,871
4,HQHEH,16,2,1161,Correct,0,795
Trials
1,D,5,3,10741,New Target,1,727
1,ZNZYZ,161,2,1315,Correct,1,861
1,FZFZF,151,1,1011,Correct,1,909
1,RKRKR,152,1,920,Correct,1,726
1,RXRNR,161,2,1022,Correct,1,754
1,CNCFC,162,2,770,Correct,1,671
1,PDPDP,7,[1][3],[826][1082],Correct,1,709
1,CPCFC,14,2,971,Correct,1,776
1,VLVNV,162,2,842,Correct,1,857
1,KFKFK,151,1,920,Correct,1,685
1,ZNZNZ,152,1,1064,Correct,1,946
1,KCKPD,235,2,953,Correct,1,704
1,ZKZFZ,222,2,1170,Correct,1,664
1,NRNZN,162,2,654,Correct,1,808
1,KXKRK,163,2,1005,Correct,1,760
1,YPYZY,164,2,641,Correct,1,782
1,FKDKF,223,2,912,Incorrect,1,860
1,RPRPR,113,2,537,Incorrect,1,664
1,VRVKV,161,2,504,Correct,1,910
1,RFRPR,162,2,640,Correct,1,680
1,KVKVK,151,1,894,Correct,1,810
1,YKYVY,161,2,1242,Correct,1,663
1,VDVDV,8,[1][3],[1006][1230],Correct,1,669
1,DVZVZ,221,1,984,Correct,1,896
1,YFYFY,113,1,725,Correct,1,946
1,ZYZYZ,152,1,789,Correct,1,747
1,VLVXV,161,2,834,Correct,1,680
1,DPXZX,231,2,795,Correct,1,744
1,RYRYR,113,1,838,Correct,1,756
1,PDPNP,91,[1][3],[697][1593],Incorrect,1,790
1,KXKXK,13,1,1496,Correct,1,724
1,ZYZYZ,152,1,1232,Correct,1,927
1,VKVKV,153,1,959,Correct,1,666
1,YZYZY,154,1,799,Correct,1,932
1,NLNZN,161,2,1357,Correct,1,675
1,ZNDYZ,233,2,1292,Correct,1,894
1,PCPXP,222,2,1442,Correct,1,865
1,ZVZFZ,162,2,846,Correct,1,915
1,RCRZR,163,2,915,Correct,1,835
1,LRLRL,151,1,935,Correct,1,803
1,ZDZDZ,10,[1][3],[1100][1308],Correct,1,816
1,RNRZR,14,2,638,Correct,1,686
1,CXCYC,162,2,765,Correct,1,731
1,RCRLR,163,2,841,Correct,1,790
1,FRFRF,151,2,604,Incorrect,1,882
1,XFXFX,152,1,657,Correct,1,665
1,RPRLR,161,2,912,Correct,1,796
1,YXYRY,162,2,786,Correct,1,832
1,FYFYF,151,1,857,Correct,1,865
1,YZYVY,161,2,645,Correct,1,657
1,YKYKY,151,1,765,Correct,1,948
1,XRXRX,152,1,775,Correct,1,801
1,XVXZX,161,2,732,Correct,1,902
1,PDPDP,11,[1][3],[1093][1285],Correct,1,812
1,ZFZFZ,13,1,898,Correct,1,938
1,PXPXP,152,2,972,Incorrect,1,693
1,LYLYL,153,1,734,Correct,1,781
1,NKNKD,225,1,1191,Correct,1,887
1,ZNZNZ,113,1,796,Correct,1,933
1,PYPZP,161,2,700,Correct,1,671
1,XPXPX,151,1,649,Correct,1,784
1,VLVLV,152,1,1039,Correct,1,680
1,PKPXP,161,2,1163,Correct,1,861
1,FZFZF,151,1,948,Correct,1,807
1,LDLDL,12,[1][3],[992][1183],Correct,1,901
2,U,5,3,2352,New Target,2,736
2,ZVZFZ,161,2,937,Correct,2,823
2,FZFZF,151,1,962,Correct,2,708
2,RFRFR,152,1,1016,Correct,2,771
2,NZNKN,161,2,757,Correct,2,934
2,FZFNF,162,2,799,Correct,2,854
2,RXRXR,151,1,830,Correct,2,683
2,KRKYK,161,2,658,Correct,2,892
2,NZNPN,162,2,610,Correct,2,803
2,XPXPX,151,1,742,Correct,2,778
2,CUCUC,7,[1][3],[788][1044],Correct,2,697
2,RFRFR,13,2,546,Incorrect,2,727
2,VYVXV,161,2,804,Correct,2,816
2,VDVDV,191,1,827,Correct,2,887
2,ZKZRZ,15,2,852,Correct,2,752
2,XCXCX,151,1,723,Correct,2,664
2,CNCUC,82,[2],[1077],Incorrect,2,763
2,RCRCR,13,1,1224,Correct,2,730
2,ZPZXZ,161,2,721,Correct,2,797
2,FKFYF,162,2,747,Correct,2,889
2,ZFZYZ,163,2,1190,Correct,2,789
2,PXPXP,151,1,939,Correct,2,896
2,URCKC,231,2,845,Correct,2,897
2,PCPCP,113,1,994,Correct,2,835
2,XNXNX,152,1,903,Correct,2,745
2,RCRZR,161,2,812,Correct,2,851
2,XVXVX,151,1,950,Correct,2,783
2,NRNRN,152,1,798,Correct,2,723
2,FPFPF,225,1,809,Correct,2,733
2,XVXFX,222,2,980,Correct,2,710
2,PRPRP,151,1,1302,Correct,2,827
2,FYFCF,161,2,728,Correct,2,875
2,XUXFX,91,[2][3],[1017][1273],Correct,2,905
2,CYCVC,14,2,1000,Correct,2,684
2,VDVKV,172,2,879,Correct,2,670
2,YCYCY,15,1,856,Correct,2,689
2,NKNLN,161,2,577,Correct,2,734
2,XPUKX,233,2,967,Correct,2,713
2,ZPZPZ,113,1,966,Correct,2,900
2,KRKRK,152,2,664,Incorrect,2,877
2,XKXKX,153,1,860,Correct,2,696
2,YUYVY,101,[2][3],[1119][1295],Correct,2,899
2,XKXFU,235,2,991,Correct,2,790
2,NFNFN,113,1,1011,Correct,2,773
2,KDKDK,193,1,641,Correct,2,915
2,XYXKX,16,2,801,Correct,2,830
2,YZUZY,223,1,1301,Correct,2,901
2,KFKVK,222,2,856,Correct,2,911
2,LYLYL,151,1,1115,Correct,2,889
2,CXCDC,184,2,999,Incorrect,2,813
2,XZXNX,16,2,870,Correct,2,853
2,PXPXP,151,1,875,Correct,2,897
2,ZRZYZ,161,2,692,Correct,2,749
2,PUPYP,111,[2][3],[1000][1176],Correct,2,857
2,RNRNR,14,1,883,Correct,2,768
2,KDKDK,195,1,957,Correct,2,734
2,KNKNK,15,1,734,Correct,2,922
2,PRPKP,161,2,879,Correct,2,705
2,UNYNY,221,1,790,Correct,2,771
2,NYNYN,113,1,847,Correct,2,784
2,YXYXY,152,1,808,Incorrect,2,813
2,RDRDR,196,1,782,Correct,2,903
2,FCFCF,15,1,597,Correct,2,895
2,ZKZKZ,152,1,817,Correct,2,932
2,ZUZUZ,12,[1][3],[836][979],Correct,2,889
3,E,5,3,2169,New Target,3,818
3,YZYZY,151,1,1275,Correct,3,695
3,VFVNV,161,2,743,Correct,3,693
3,KYKYK,151,1,845,Correct,3,907
3,NKNKN,152,1,681,Correct,3,659
3,XVXNX,161,2,723,Correct,3,881
3,RERFR,71,[2][3],[1014][1174],Correct,3,784
3,XNXNX,13,1,1040,Correct,3,889
3,NXNXN,152,1,726,Correct,3,659
3,ZLZNZ,161,2,655,Correct,3,947
3,CUCNC,171,2,893,Correct,3,802
3,FYFRF,16,2,721,Correct,3,833
3,ZLZLZ,151,1,769,Correct,3,707
3,YZYZY,152,1,730,Correct,3,863
3,CYCYC,153,1,600,Correct,3,730
3,VUVUV,192,1,648,Correct,3,780
3,PXPRP,16,2,699,Correct,3,755
3,YPYPY,151,1,744,Correct,3,807
3,CECEC,8,[1][3],[811][939],Correct,3,938
3,VNENV,223,2,832,Incorrect,3,677
3,KRKFK,222,2,824,Correct,3,785
3,XLXLE,225,1,1389,Correct,3,945
3,RFRUR,183,2,1187,Correct,3,688
3,XRXLX,16,2,925,Correct,3,809
3,NZNPN,162,2,845,Correct,3,884
3,XZXZX,151,1,874,Correct,3,713
3,FZFZF,152,1,1093,Correct,3,729
3,PFPFP,153,1,848,Correct,3,914
3,YZYXY,161,2,979,Correct,3,896
3,KEKEK,9,[1][3],[913][1024],Correct,3,665
3,CXCPC,14,2,1210,Correct,3,700
3,VXVXV,151,1,1064,Correct,3,687
3,NUNZN,174,2,889,Correct,3,748
3,RKRVR,16,2,828,Correct,3,872
3,XRXRX,151,1,672,Correct,3,891
3,ERNFN,231,2,748,Incorrect,3,898
3,YRYNY,222,2,666,Correct,3,740
3,PZPEP,102,[2][3],[1043][1331],Correct,3,893
3,ZYZXZ,14,2,1251,Correct,3,760
3,RZRVR,162,2,812,Correct,3,828
3,XRXRX,151,1,777,Correct,3,732
3,KUKFK,175,2,1038,Correct,3,946
3,RKRKR,15,1,1012,Correct,3,659
3,ZFZFZ,152,1,1146,Correct,3,733
3,YZYVY,161,2,762,Correct,3,728
3,XPXNX,162,2,719,Correct,3,940
3,YRYRY,151,1,649,Correct,3,858
3,EPVPV,221,1,881,Correct,3,946
3,CRCEC,112,[2][3],[1014][1222],Correct,3,828
3,RFRCR,14,2,1052,Correct,3,746
3,CPCVC,162,2,758,Correct,3,899
3,RXRCR,163,2,861,Correct,3,881
3,VNVLV,164,2,711,Correct,3,744
3,ZXZXZ,151,1,782,Correct,3,943
3,ZCZCZ,152,1,1053,Correct,3,701
3,PYPUP,186,2,978,Correct,3,727
3,YKYPY,16,2,1348,Correct,3,752
3,YREXY,233,2,980,Correct,3,922
3,ZKZKZ,113,1,723,Correct,3,919
3,XLXNX,161,2,752,Correct,3,792
3,KFKRE,235,2,926,Correct,3,682
3,RXRLR,222,2,622,Correct,3,901
3,RERXR,121,[2][3],[1172][1492],Correct,3,869
4,J,5,3,4537,New Target,4,752
4,CYCVC,161,2,877,Correct,4,946
4,RXRCR,162,2,725,Correct,4,764
4,FPFVF,163,2,686,Correct,4,937
4,LZLZL,151,1,756,Correct,4,929
4,PLPLP,152,1,769,Correct,4,801
4,NPNPN,153,1,793,Correct,4,900
4,XZXZX,161,1,579,Incorrect,4,760
4,CNCKC,162,2,712,Correct,4,698
4,PCPYJ,235,2,651,Correct,4,688
4,VYVYV,113,1,717,Correct,4,723
4,RLRLR,152,1,585,Correct,4,856
4,CJCJC,7,[1][3],[756][948],Correct,4,693
4,ZLZLZ,13,1,799,Correct,4,723
4,FZFZF,152,1,782,Correct,4,665
4,CFCFC,153,1,587,Correct,4,724
4,PZPZP,154,1,652,Correct,4,838
4,XEXEX,191,1,605,Correct,4,712
4,NVNFN,16,2,706,Correct,4,706
4,KYKYK,151,1,718,Correct,4,872
4,ZNZVZ,161,2,699,Correct,4,786
4,YVJXY,233,2,756,Correct,4,871
4,XFXFX,113,2,867,Incorrect,4,702
4,XNXNX,152,1,857,Correct,4,779
4,FJFKF,81,[2][3],[599][1415],Correct,4,767
4,CZCYC,14,2,1055,Correct,4,764
4,ZXZCZ,162,2,931,Correct,4,706
4,RYRYJ,225,1,801,Correct,4,949
4,FPFZF,222,2,1167,Correct,4,667
4,XRXRX,151,1,932,Correct,4,933
4,YPYEY,182,2,1293,Correct,4,697
4,XRXRX,15,1,759,Correct,4,718
4,XZXPX,161,2,688,Correct,4,863
4,CJCJC,9,[1][3],[733][893],Correct,4,926
4,ZXZVZ,14,2,767,Correct,4,654
4,VKVKV,151,1,766,Correct,4,722
4,VEVNV,173,2,940,Correct,4,687
4,ZKZVZ,16,2,752,Correct,4,860
4,XVXJX,102,[2][3],[984][1144],Correct,4,792
4,RXRVR,14,2,925,Correct,4,851
4,LRLRL,151,1,808,Correct,4,691
4,YNJNY,223,1,785,Correct,4,841
4,NPNJN,222,2,684,Correct,4,754
4,ZEZEZ,194,1,1232,Correct,4,690
4,ZNZNZ,15,1,804,Correct,4,863
4,YZYZY,152,1,989,Correct,4,846
4,XYXYX,153,1,959,Correct,4,774
4,ZXZXZ,221,1,841,Correct,4,654
4,LYLZL,222,2,812,Correct,4,942
4,CYCNC,162,2,715,Correct,4,688
4,XEXEX,195,1,787,Correct,4,885
4,CVCXC,16,2,873,Correct,4,870
4,ZPZXZ,162,2,736,Correct,4,841
4,FZFZF,151,1,792,Correct,4,907
4,RXRJR,112,[2][3],[914][1090],Correct,4,767
4,PRPFP,14,2,1165,Correct,4,812
4,PKPEP,186,2,718,Correct,4,651
4,XZXPX,16,2,714,Correct,4,783
4,JCZVZ,231,2,917,Correct,4,893
4,RXRLR,222,2,669,Correct,4,681
4,VZVZV,151,1,780,Correct,4,740
4,XJXJX,12,[1][3],[787][915],Correct,4,867
5,I,5,3,1024,New Target,5,851
5,PCPCP,151,2,1053,Incorrect,5,723
5,XYXYX,152,1,819,Correct,5,670
5,VXVXV,153,1,732,Correct,5,776
5,XVXVX,154,1,691,Correct,5,918
5,ZRZXZ,161,2,789,Correct,5,663
5,FPFZF,162,2,773,Correct,5,658
5,ZYZYZ,151,1,1043,Correct,5,691
5,RVRZR,161,2,773,Correct,5,774
5,CICIC,7,[1][3],[951][1079],Correct,5,734
5,XLXLX,13,1,838,Correct,5,945
5,YVYVY,152,1,976,Correct,5,707
5,CJCJC,191,2,1127,Incorrect,5,722
5,FNFCF,16,2,1149,Correct,5,935
5,PVPRP,162,2,823,Correct,5,825
5,FZFZF,151,1,732,Correct,5,900
5,NVIVN,223,1,886,Correct,5,880
5,CVCIC,82,[2][3],[1160][1352],Correct,5,753
5,ZXZXZ,13,1,777,Correct,5,946
5,FCFZF,161,2,828,Correct,5,943
5,IXRXR,221,1,858,Correct,5,695
5,ZPZNZ,222,2,782,Correct,5,882
5,VZVZV,151,1,835,Correct,5,907
5,YRYNY,161,2,655,Correct,5,758
5,VNVPV,162,2,669,Correct,5,755
5,RVRJR,182,2,697,Correct,5,888
5,VRVRV,15,2,666,Incorrect,5,682
5,VIVIV,9,[1][3],[935][1399],Correct,5,883
5,CXCVC,14,2,767,Correct,5,916
5,PZPZP,151,1,662,Correct,5,846
5,IXVKV,231,2,927,Correct,5,939
5,YJYCY,173,2,879,Incorrect,5,936
5,VYVYV,15,1,824,Correct,5,753
5,YVYVY,152,1,724,Correct,5,704
5,NVNVN,153,1,742,Correct,5,689
5,XYXVX,161,2,787,Correct,5,759
5,NJNCN,174,2,913,Correct,5,711
5,NXNYN,16,2,887,Correct,5,736
5,VXVCV,162,2,747,Correct,5,870
5,ZKZKZ,151,1,872,Correct,5,747
5,XRXYX,161,2,716,Correct,5,882
5,ZCZXZ,162,2,1112,Correct,5,800
5,KVKYI,235,2,1032,Correct,5,788
5,CNCNC,113,1,721,Correct,5,917
5,RIRIR,10,[1][3],[1107][1267],Correct,5,690
5,VYVXV,14,2,817,Correct,5,907
5,FXIRF,233,2,919,Correct,5,849
5,PFPFP,113,1,743,Correct,5,915
5,VPVPV,152,1,789,Correct,5,745
5,ZJZJZ,195,1,1016,Correct,5,948
5,ZVZNZ,16,2,728,Correct,5,863
5,YVYXY,162,2,769,Correct,5,896
5,PRPRP,151,1,839,Correct,5,899
5,YPYPY,152,1,635,Correct,5,869
5,ZIZPZ,111,[2][3],[1005][1181],Correct,5,905
5,NKNXN,14,2,856,Correct,5,839
5,RZRXR,162,2,926,Correct,5,786
5,RXRXR,151,1,1039,Correct,5,904
5,ZJZJZ,196,1,877,Correct,5,819
5,CVCVI,225,1,802,Incorrect,5,869
5,NKNKN,113,1,631,Correct,5,947
5,NRNZN,161,2,697,Correct,5,694
5,CNCNC,151,1,1017,Correct,5,752
5,RFRIR,122,[2][3],[778][938],Correct,5,675
6,B,5,3,2497,New Target,6,712
6,YKYZY,161,2,1343,Correct,6,773
6,VCVRV,162,2,695,Correct,6,710
6,XVXVX,151,1,713,Correct,6,717
6,KZKRK,161,2,598,Correct,6,779
6,ZVZXZ,162,2,651,Correct,6,711
6,RCRNR,163,2,567,Correct,6,900
6,CXCRC,164,2,664,Correct,6,804
6,VNBCV,233,2,870,Correct,6,790
6,CXCVC,222,2,685,Correct,6,832
6,RFRFR,151,1,740,Correct,6,919
6,XPXRX,161,2,740,Correct,6,717
6,RYRBR,72,[2][3],[1010][1202],Correct,6,657
6,ZKZKZ,13,1,715,Correct,6,737
6,FIFRF,171,2,951,Correct,6,766
6,VZVLV,16,2,919,Correct,6,925
6,RPRVR,162,2,698,Correct,6,802
6,YBYBY,8,[1][3],[852][996],Correct,6,899
6,PYPVP,14,2,964,Correct,6,685
6,NININ,192,1,1017,Correct,6,718
6,RNRNR,15,1,720,Correct,6,678
6,NXNVN,161,2,623,Correct,6,676
6,RNRNR,151,1,876,Correct,6,856
6,FRFVF,161,2,702,Correct,6,869
6,YVYFB,235,2,799,Incorrect,6,705
6,ZRZXZ,222,2,641,Correct,6,922
6,VNVIV,193,2,653,Incorrect,6,897
6,PXPNP,16,2,748,Correct,6,734
6,ZXZPZ,162,2,642,Correct,6,924
6,VBVBV,9,[1][3],[790][918],Correct,6,764
6,CXCXC,13,1,1028,Correct,6,781
6,PCPFP,161,2,740,Correct,6,847
6,KNKNK,151,1,704,Correct,6,770
6,XIXIX,194,1,825,Correct,6,905
6,CYCYC,15,1,816,Correct,6,835
6,FVFYF,161,2,1078,Correct,6,902
6,YNYRY,162,2,815,Correct,6,894
6,BVPXP,231,2,729,Correct,6,793
6,NXNXN,113,1,745,Correct,6,675
6,FRFRF,152,1,694,Correct,6,804
6,YVYVY,153,1,703,Correct,6,918
6,ZKZCZ,161,2,709,Correct,6,916
6,VIVXV,175,2,848,Correct,6,794
6,PRBRP,223,1,1100,Correct,6,664
6,YZYBY,102,[2][3],[874][1018],Correct,6,764
6,CXCVC,14,2,914,Correct,6,814
6,FYFYF,151,1,793,Correct,6,719
6,VKVXV,161,2,898,Correct,6,833
6,ZBZBZ,11,[1][3],[1034][1178],Correct,6,795
6,FPFNF,14,2,715,Correct,6,858
6,CXCXC,151,1,790,Correct,6,876
6,YCYCY,152,1,753,Correct,6,749
6,FPFPF,153,1,706,Correct,6,690
6,CVCVB,225,1,621,Correct,6,861
6,ZCZCZ,113,1,739,Correct,6,674
6,CZCNC,161,2,745,Correct,6,898
6,KIKFK,176,2,768,Correct,6,895
6,PXPXP,15,1,962,Correct,6,690
6,RYRYR,152,1,690,Correct,6,864
6,ZRZCZ,161,2,623,Correct,6,798
6,RVRVR,151,1,924,Correct,6,887
6,XYXNX,161,2,732,Correct,6,900
6,BVKVK,221,1,685,Correct,6,700
6,CBCBC,12,[1][3],[787][915],Correct,6,719
7,W,5,3,1192,New Target,7,815
7,RKRKR,151,1,1074,Correct,7,767
7,CVCRC,161,2,863,Correct,7,862
7,PKPKP,151,1,1013,Correct,7,929
7,FPFPF,152,1,770,Correct,7,863
7,VRVPV,161,2,687,Correct,7,702
7,ZKZYZ,162,2,651,Correct,7,836
7,PVPCP,233,2,632,Correct,7,824
7,KVKVK,113,1,680,Correct,7,818
7,YXYVY,161,2,579,Correct,7,889
7,FNFNF,151,1,611,Correct,7,821
7,YWYWY,7,[1][3],[813][941],Correct,7,730
7,ZYZYZ,13,1,834,Correct,7,873
7,PYPYP,152,1,710,Correct,7,885
7,XRXRX,153,1,642,Correct,7,838
7,PXPXP,154,1,572,Correct,7,923
7,FCFBF,181,2,682,Correct,7,939
7,FVFVF,15,1,585,Correct,7,799
7,CYCZC,161,2,729,Correct,7,885
7,XZXVX,162,2,672,Correct,7,905
7,PFPFP,151,1,653,Correct,7,855
7,RVRLR,161,2,621,Correct,7,792
7,ZBZBZ,192,1,833,Correct,7,742
7,VCVNV,16,2,639,Correct,7,673
7,NWNWN,8,[1][3],[734][862],Correct,7,671
7,XNXVX,14,2,857,Correct,7,732
7,CXCNC,162,2,753,Correct,7,769
7,YVYVW,225,1,797,Correct,7,786
7,VFVFV,113,1,715,Correct,7,713
7,VFWFV,223,1,685,Correct,7,659
7,CVCFC,222,2,896,Correct,7,703
7,YBYBY,193,1,657,Correct,7,889
7,PYPYP,15,1,626,Correct,7,767
7,NKNWN,91,[2][3],[902][1062],Correct,7,842
7,VNVNV,13,1,634,Correct,7,781
7,RVRVR,152,1,696,Correct,7,828
7,FVFBF,184,2,562,Incorrect,7,930
7,VZVKV,16,2,566,Correct,7,818
7,VPVCV,162,2,665,Correct,7,748
7,WYZCZ,231,2,583,Correct,7,902
7,PFPFP,113,1,619,Correct,7,670
7,PRPRP,152,1,695,Correct,7,904
7,NWNWN,10,[1][3],[827][891],Correct,7,813
7,VKVCV,14,2,661,Correct,7,819
7,WPYPY,221,1,768,Correct,7,863
7,VBVBV,195,1,782,Correct,7,677
7,ZKZYZ,16,2,702,Correct,7,695
7,XYXYX,151,1,821,Correct,7,873
7,FZFXF,161,2,591,Correct,7,839
7,XKXKX,151,1,612,Correct,7,654
7,XPXPX,152,1,610,Correct,7,913
7,FWFWF,11,[1][3],[750][878],Correct,7,932
7,FNFBF,186,2,634,Correct,7,873
7,ZVZYZ,16,2,829,Correct,7,695
7,FZFZF,151,1,1078,Correct,7,853
7,NPNFW,235,2,807,Correct,7,708
7,PCPCP,113,1,742,Correct,7,654
7,NKNWN,122,[2][3],[922][1050],Correct,7,852
8,M,5,3,1143,New Target,8,869
8,VYVNV,161,2,704,Correct,8,899
8,KLKNK,162,2,751,Correct,8,703
8,NRNRN,151,1,766,Correct,8,710
8,VNVFV,161,2,752,Correct,8,662
8,XNXNM,225,1,880,Correct,8,652
8,CXCVC,222,2,666,Correct,8,696
8,KRKZK,162,2,729,Correct,8,775
8,NMNFN,71,[2][3],[937][1113],Correct,8,664
8,ZFZFZ,13,1,740,Correct,8,714
8,YPYCY,161,2,523,Correct,8,938
8,KCKCK,151,1,689,Correct,8,749
8,VNVNV,152,1,1018,Correct,8,928
8,LXLXL,153,1,1004,Correct,8,788
8,CLCLC,154,1,815,Correct,8,751
8,NYNYN,155,1,698,Correct,8,768
8,LCMYL,233,2,669,Correct,8,671
8,NCNCN,113,1,898,Correct,8,651
8,ZVZRZ,161,2,698,Correct,8,733
8,ZVZVZ,151,1,851,Correct,8,930
8,PZPVP,161,2,664,Correct,8,830
8,PWPNP,171,2,924,Correct,8,675
8,KLKCM,235,2,895,Correct,8,838
8,XMXMX,8,[1][3],[897][1041],Correct,8,688
8,PRPXP,14,2,688,Correct,8,906
8,CVCYC,162,2,707,Correct,8,692
8,PXPMP,92,[2][3],[994][1122],Correct,8,809
8,ZCZLZ,14,2,720,Correct,8,939
8,XWXWX,192,1,841,Correct,8,926
8,ZCZLZ,16,2,620,Correct,8,925
8,MNCYC,231,2,796,Correct,8,855
8,ZXZXZ,113,1,710,Correct,8,731
8,YRYNY,161,2,720,Correct,8,850
8,ZLZPZ,162,2,654,Correct,8,813
8,VZVZV,151,1,703,Correct,8,788
8,MXPXP,221,1,742,Correct,8,935
8,VWVWV,193,1,721,Correct,8,772
8,PYPYP,16,1,721,Incorrect,8,764
8,XPXVX,162,2,665,Correct,8,897
8,XLXLX,151,1,773,Correct,8,857
8,YMYMY,10,[1][3],[627][786],Correct,8,748
8,VYVYV,13,1,680,Correct,8,735
8,PWPZP,174,2,587,Correct,8,692
8,PYPKP,16,2,641,Correct,8,711
8,NPNXN,162,2,571,Correct,8,936
8,KVKVK,223,1,663,Correct,8,912
8,NVNFN,222,2,602,Correct,8,704
8,XNXNX,151,1,635,Correct,8,765
8,YZYMY,112,[2][3],[986][1146],Correct,8,892
8,PFPFP,13,1,653,Correct,8,848
8,ZWZWZ,195,1,714,Correct,8,833
8,PCPZP,16,2,655,Correct,8,926
8,LRLPL,162,2,762,Correct,8,913
8,CZCZC,151,1,710,Correct,8,749
8,NZNZN,152,1,547,Correct,8,800
8,CVCXC,161,2,575,Correct,8,947
8,XCXCX,151,1,752,Correct,8,839
8,YWYWY,196,1,613,Correct,8,925
8,NLNLN,15,1,840,Correct,8,729
8,VNVNV,152,1,815,Correct,8,842
8,ZMZMZ,12,[1][3],[699][827],Correct,8,902
9,S,5,3,1834,New Target,9,694
9,NZNZN,151,1,1046,Correct,9,762
9,KVKZK,161,2,983,Correct,9,798
9,LZLZL,151,1,596,Correct,9,905
9,XLXLX,152,1,758,Correct,9,768
9,ZXZXZ,153,1,686,Correct,9,835
9,KNKZK,161,2,553,Correct,9,919
9,NRNYN,162,2,652,Correct,9,790
9,CLCVC,163,2,685,Correct,9,729
9,ZCZFZ,164,2,603,Correct,9,776
9,NSNSN,7,[1][3],[632][824],Correct,9,825
9,VZVZV,13,1,683,Correct,9,903
9,NVNCN,161,2,578,Correct,9,946
9,VMVMV,191,1,618,Correct,9,654
9,CVCXC,16,2,635,Correct,9,768
9,ZYZRZ,162,2,601,Correct,9,827
9,XNXZX,163,2,632,Correct,9,781
9,PXPXP,151,1,701,Correct,9,677
9,VCVSV,82,[2][3],[774][902],Correct,9,901
9,PRPCP,14,2,567,Correct,9,687
9,ZMZMZ,192,1,891,Incorrect,9,792
9,ZFZFZ,15,1,627,Correct,9,719
9,FCFCF,152,1,742,Correct,9,735
9,YLYZY,161,2,529,Correct,9,846
9,KNKVK,162,2,662,Correct,9,760
9,SFPCP,231,2,711,Correct,9,751
9,RPRPR,113,1,706,Correct,9,873
9,XMXMX,193,1,685,Correct,9,822
9,KFKFK,15,1,668,Correct,9,772
9,VSVSV,9,[1][3],[800][928],Correct,9,686
9,YVSVY,223,2,696,Incorrect,9,935
9,VPVPV,113,1,874,Correct,9,688
9,XZXZX,152,1,626,Correct,9,735
9,KZKXK,161,2,659,Correct,9,868
9,RFRPR,162,2,689,Correct,9,827
9,NVNVS,225,1,714,Correct,9,929
9,ZXZXZ,113,1,646,Correct,9,735
9,SRVRV,221,1,607,Correct,9,947
9,YCYCY,113,1,608,Correct,9,834
9,KMKZK,174,2,622,Correct,9,905
9,FZSVF,233,2,644,Correct,9,673
9,VYVYV,113,1,719,Correct,9,940
9,LVLVL,152,1,586,Correct,9,837
9,YFYFY,153,1,557,Correct,9,751
9,NXNSN,102,[2][3],[882][1010],Correct,9,871
9,FNFCF,14,2,650,Correct,9,733
9,KVKVK,151,1,737,Correct,9,655
9,VZVCV,161,2,680,Correct,9,933
9,ZYZMZ,185,2,692,Correct,9,814
9,VXVZV,16,2,589,Correct,9,883
9,VPVPV,151,1,685,Correct,9,781
9,RVRNS,235,2,791,Correct,9,916
9,YZYZY,113,1,646,Correct,9,730
9,ZSZSZ,11,[1][3],[775][887],Correct,9,943
9,FRFRF,13,1,639,Correct,9,821
9,ZMZMZ,196,1,764,Correct,9,811
9,NZNXN,16,2,845,Correct,9,652
9,LSLFL,121,[2][3],[1135][1311],Correct,9,744
10,Q,5,3,1670,New Target,10,691
10,ZVZPZ,161,2,927,Correct,10,866
10,RZRZR,151,1,681,Correct,10,673
10,ZFZFZ,152,1,945,Correct,10,934
10,RZRZR,153,1,789,Correct,10,777
10,PZPXP,161,2,849,Correct,10,747
10,VFQPV,233,2,691,Correct,10,932
10,ZPZRZ,222,1,1392,Incorrect,10,840
10,CYCVC,162,2,856,Correct,10,650
10,CPCPC,151,1,1028,Correct,10,661
10,YZYQY,72,[2][3],[868][996],Correct,10,786
10,FVFXF,14,2,652,Correct,10,865
10,YNYNQ,225,1,715,Correct,10,767
10,ZYZYZ,113,1,902,Correct,10,775
10,FRFSF,181,2,793,Incorrect,10,900
10,XNXPX,16,2,661,Correct,10,763
10,NXNXN,151,1,754,Correct,10,863
10,PVPZP,161,2,635,Correct,10,831
10,XVXPX,162,2,599,Correct,10,856
10,FXFVF,163,2,562,Correct,10,950
10,NSNKN,172,2,615,Incorrect,10,710
10,VXVNV,16,2,547,Correct,10,909
10,XZXZX,151,1,698,Correct,10,702
10,VQVQV,8,[1][3],[917][1077],Correct,10,690
10,ZYZPZ,14,2,599,Correct,10,753
10,PZPSP,183,2,651,Correct,10,708
10,YVYVY,15,1,641,Correct,10,654
10,NCNQN,92,[2][3],[1016][1160],Correct,10,722
10,FCFVF,14,2,1180,Correct,10,724
10,ZFZFZ,151,1,625,Correct,10,922
10,NSNSN,194,1,841,Correct,10,659
10,YPYFY,16,2,720,Correct,10,848
10,ZKZKZ,151,1,652,Correct,10,764
10,QZRCR,231,2,781,Correct,10,706
10,YPYVY,222,2,580,Correct,10,805
10,ZNZNZ,151,1,673,Correct,10,889
10,VQVQV,10,[1][3],[815][943],Correct,10,650
10,RVRZR,14,2,589,Correct,10,882
10,KRKSK,185,2,735,Correct,10,766
10,NPNPN,15,1,905,Correct,10,813
10,YPYPY,152,1,752,Correct,10,789
10,VCVYV,161,2,681,Correct,10,842
10,FPFNF,162,2,700,Correct,10,673
10,QVXVX,221,1,959,Correct,10,661
10,ZVZRZ,222,2,663,Correct,10,730
10,LFLFL,151,1,614,Correct,10,808
10,VLVLV,152,1,741,Correct,10,842
10,KXQXK,223,1,849,Correct,10,743
10,YQYQY,11,[1][3],[753][897],Correct,10,863
10,YCYCY,13,1,793,Correct,10,779
10,PZPYP,161,2,659,Correct,10,843
10,LPLFL,162,2,660,Correct,10,728
10,VSVSV,196,1,812,Correct,10,950
10,VFVYQ,235,2,610,Correct,10,880
10,CZCXC,222,2,707,Correct,10,778
10,PVPCP,162,2,611,Correct,10,808
10,CXCXC,151,1,904,Correct,10,657
10,NZNZN,152,1,751,Correct,10,738
10,YPYCY,161,2,744,Correct,10,924
10,ZQZQZ,12,[1][3],[926][1070],Correct,10,694
11,T,5,3,6064,New Target,11,774
11,KFKFK,151,1,920,Correct,11,840
11,LZLZL,152,1,622,Correct,11,722
11,PFPVP,161,2,700,Correct,11,911
11,FRFPF,162,2,612,Correct,11,886
11,FZFZF,151,1,728,Correct,11,743
11,VTVTV,7,[1][3],[582][1174],Correct,11,776
11,KYKCK,14,2,677,Correct,11,908
11,VPVPV,151,1,801,Correct,11,928
11,XQXQX,191,1,1269,Correct,11,890
11,PZPYP,16,2,685,Correct,11,850
11,KXKLK,162,2,1014,Correct,11,934
11,TCNCN,221,1,723,Correct,11,909
11,PZPNP,222,2,618,Correct,11,919
11,RCRPR,162,2,652,Correct,11,749
11,PZPRT,235,2,584,Correct,11,825
11,XFXVX,222,2,581,Correct,11,918
11,LTLVL,81,[2][3],[1080][1240],Correct,11,762
11,ZCZPZ,14,2,827,Correct,11,782
11,NCNQN,182,2,695,Correct,11,690
11,XZXNX,16,2,674,Correct,11,875
11,ZPZPZ,151,1,898,Correct,11,796
11,CFCFC,152,1,741,Correct,11,885
11,VXTRV,233,2,657,Correct,11,793
11,CFCVC,222,2,816,Correct,11,801
11,PYPYP,151,1,731,Correct,11,714
11,FQFYF,173,2,552,Correct,11,738
11,CNCFC,16,2,668,Correct,11,786
11,PTPTP,9,[1][3],[780][924],Correct,11,776
11,ZCZCZ,13,1,580,Correct,11,932
11,KZKZK,152,1,804,Correct,11,861
11,RLRVR,161,2,609,Correct,11,719
11,ZRZKZ,162,2,661,Correct,11,709
11,KLKLT,225,1,890,Correct,11,651
11,ZQZQZ,194,1,691,Correct,11,703
11,VZVZV,15,1,645,Correct,11,744
11,RVRZR,161,2,658,Correct,11,898
11,ZPZCZ,162,2,577,Correct,11,818
11,VYVYV,151,1,687,Correct,11,878
11,RVRVR,152,1,551,Correct,11,925
11,PTPTP,10,[1][3],[720][863],Correct,11,851
11,PXPXP,13,1,624,Correct,11,666
11,KCKCK,152,1,675,Correct,11,710
11,YVYVY,153,1,548,Correct,11,721
11,CYCYC,154,1,499,Correct,11,822
11,XCXCX,155,1,503,Correct,11,826
11,CYCQC,185,2,601,Correct,11,893
11,KCKNK,16,2,488,Correct,11,883
11,VPVPV,151,1,605,Correct,11,825
11,TXFZF,231,2,514,Correct,11,747
11,NYNVN,222,2,968,Correct,11,809
11,VQVXV,176,2,588,Correct,11,801
11,ZRZRZ,15,1,643,Correct,11,676
11,VTVZV,111,[2][1],[749][1277],Incorrect,11,795
11,PXPVP,14,2,703,Correct,11,918
11,FVFVF,151,1,648,Correct,11,927
11,VRVLV,161,2,1084,Correct,11,658
11,YCYCY,151,1,697,Correct,11,815
11,XZTZX,223,1,920,Correct,11,715
11,VTVTV,12,[1][3],[687][799],Correct,11,830
12,O,5,3,1870,New Target,12,808
12,VXVLV,161,2,1174,Correct,12,851
12,KVKCK,162,2,741,Correct,12,678
12,VLVLV,151,1,725,Correct,12,698
12,ZCZVZ,161,2,673,Correct,12,867
12,KFKFK,151,1,835,Correct,12,789
12,XKXKX,152,1,942,Correct,12,679
12,YXYXY,153,1,784,Correct,12,794
12,FVFVF,154,1,675,Correct,12,949
12,PVPOP,72,[2][3],[862][974],Correct,12,787
12,ZXZYZ,14,2,785,Correct,12,700
12,PXPVP,162,2,714,Correct,12,812
12,ZTZTZ,191,2,988,Incorrect,12,679
12,CVCKC,16,2,712,Correct,12,924
12,CKCKC,151,1,1041,Correct,12,898
12,NPNPN,152,1,776,Correct,12,678
12,ZRZNZ,161,2,658,Correct,12,784
12,OZCZC,221,1,996,Correct,12,767
12,LFLFL,113,1,797,Correct,12,656
12,CXCXC,152,1,985,Correct,12,709
12,KPKPK,153,1,958,Correct,12,739
12,FRFKF,161,2,755,Correct,12,745
12,FOFOF,8,[1][3],[866][994],Correct,12,713
12,ZFZFZ,13,1,620,Correct,12,765
12,LKLZO,235,2,701,Correct,12,807
12,KLKZK,222,2,727,Correct,12,882
12,YXYCY,162,2,654,Correct,12,950
12,LOLOL,9,[1][3],[781][909],Correct,12,708
12,XLXLX,13,1,815,Correct,12,850
12,XVXVX,152,1,629,Correct,12,846
12,FTFTF,192,1,643,Correct,12,906
12,OXNZN,231,2,674,Correct,12,832
12,CZCZC,113,1,652,Correct,12,943
12,LZLZL,152,1,728,Correct,12,882
12,VLVPV,161,2,568,Correct,12,666
12,VYVYO,225,1,1009,Correct,12,651
12,XKXKX,113,1,612,Correct,12,740
12,RTRTR,193,1,846,Correct,12,941
12,KVKCK,16,2,620,Correct,12,710
12,ROROR,101,[1][3],[679][790],Correct,12,668
12,PRPRP,13,1,777,Correct,12,661
12,LYLVL,161,2,698,Correct,12,665
12,PLPLP,151,1,649,Correct,12,770
12,CTCTC,194,1,923,Correct,12,760
12,XZXYX,16,2,708,Correct,12,658
12,NKNKN,151,1,673,Correct,12,798
12,VLVZV,161,2,676,Correct,12,708
12,YOYOY,11,[1][3],[603][1003],Correct,12,937
12,PZOZP,223,1,1235,Correct,12,899
12,FYFYF,113,1,815,Correct,12,705
12,ZXZVZ,161,2,630,Correct,12,936
12,VKVZV,162,2,616,Correct,12,745
12,ZTZTZ,195,1,651,Correct,12,672
12,LKLZL,16,2,691,Correct,12,948
12,KCKVK,162,2,755,Correct,12,684
12,PXPKP,163,2,546,Correct,12,716
12,KCOZK,233,2,833,Correct,12,941
12,FKFKF,113,1,885,Correct,12,841
12,CTCRC,176,2,717,Correct,12,725
12,NXNXN,15,1,680,Correct,12,784
12,KXKVK,161,2,695,Correct,12,750
12,CPCOC,122,[2][3],[789][917],Correct,12,892
13,H,5,3,1097,New Target,13,822
13,VFVNV,151,2,1040,Incorrect,13,871
13,YVYVY,152,1,674,Correct,13,730
13,XVXVX,153,1,612,Correct,13,658
13,NRNXN,161,2,739,Correct,13,820
13,PZPKP,162,2,554,Correct,13,898
13,HLVLV,221,1,704,Correct,13,768
13,CXCZC,222,2,617,Correct,13,899
13,LHLYL,71,[2][3],[1166][1310],Correct,13,948
13,YKYFY,14,2,940,Correct,13,944
13,YOYRY,171,2,610,Correct,13,807
13,ZKZYZ,16,2,855,Correct,13,657
13,RZRZR,151,1,687,Correct,13,763
13,NFNYN,161,2,860,Correct,13,799
13,KVKFK,162,2,643,Correct,13,865
13,XFXYX,163,2,676,Correct,13,695
13,LKLVL,164,2,579,Correct,13,791
13,NLNLN,151,1,790,Correct,13,801
13,XCXOX,182,2,769,Correct,13,794
13,FXFXF,15,1,649,Correct,13,879
13,VHVHV,8,[1][3],[1047][1159],Correct,13,867
13,PVPVP,13,1,752,Correct,13,720
13,CRCXC,161,2,662,Correct,13,946
13,NXNXN,151,1,714,Correct,13,677
13,XRXRX,152,1,649,Correct,13,746
13,YFYXY,161,2,740,Correct,13,897
13,ZOZOZ,193,1,659,Correct,13,681
13,RZRZR,15,1,977,Correct,13,824
13,FKFKF,152,1,823,Correct,13,687
13,PFPFP,153,1,574,Correct,13,853
13,XYXHX,92,[2][3],[902][1030],Correct,13,837
13,RZRKR,14,2,654,Correct,13,684
13,FLFLH,225,1,766,Correct,13,733
13,KRKRK,113,1,875,Correct,13,751
13,ZVZNZ,161,2,779,Correct,13,913
13,ZOZOZ,194,1,868,Correct,13,831
13,FZFZF,15,1,713,Correct,13,810
13,FHFKF,101,[2][3],[1235][1379],Correct,13,820
13,ZXHLZ,233,2,1166,Correct,13,879
13,FKFXF,222,2,727,Correct,13,884
13,CFCYC,162,2,689,Correct,13,903
13,ZXZVZ,163,2,639,Correct,13,754
13,KCKOK,185,2,718,Correct,13,808
13,ZXZVH,235,2,569,Correct,13,851
13,CKCKC,113,2,589,Incorrect,13,722
13,ZXZCZ,161,2,755,Correct,13,691
13,YVYVY,151,1,686,Correct,13,811
13,RVHVR,223,1,902,Correct,13,917
13,ZRZRZ,113,1,834,Correct,13,659
13,ZHZHZ,11,[1][3],[1056][1200],Correct,13,845
13,VZVZV,13,1,701,Correct,13,705
13,HZVRV,231,2,746,Correct,13,836
13,FVFVF,113,1,852,Correct,13,852
13,RNRCR,161,2,636,Correct,13,798
13,COCOC,196,1,1390,Correct,13,716
13,VNVXV,16,2,660,Correct,13,676
13,XHXHX,12,[1][3],[821][949],Correct,13,931
14,G,5,3,1944,New Target,14,770
14,FZFZF,151,1,841,Correct,14,913
14,RPRVR,161,2,707,Correct,14,731
14,XCXCX,151,1,711,Correct,14,650
14,YXYXY,152,1,626,Correct,14,905
14,KZKZK,153,1,785,Correct,14,831
14,RYRKR,161,2,797,Correct,14,695
14,FYFNF,162,2,654,Correct,14,658
14,VKVKV,151,1,765,Correct,14,726
14,KPGPK,223,1,807,Correct,14,847
14,YNYNY,113,1,850,Correct,14,805
14,VYVYV,152,1,600,Correct,14,843
14,YCYXY,161,2,598,Correct,14,861
14,LKLGL,72,[2][3],[879][1023],Correct,14,755
14,VXVXV,13,1,626,Correct,14,814
14,KCKVK,161,2,655,Correct,14,901
14,YKYKY,151,1,626,Correct,14,702
14,RHRXR,171,2,1417,Correct,14,650
14,FVFCF,16,2,654,Correct,14,740
14,YXYGY,82,[2][3],[714][858],Correct,14,693
14,CLCLC,13,1,927,Correct,14,836
14,ZXZCZ,161,2,582,Correct,14,778
14,VLVFV,162,2,583,Correct,14,755
14,CPCPG,225,1,830,Correct,14,699
14,KHKNK,172,2,951,Correct,14,750
14,ZKZVZ,16,2,638,Correct,14,670
14,YKYLY,162,2,571,Correct,14,879
14,CNCNC,151,1,773,Correct,14,656
14,PGPGP,9,[1][3],[796][940],Correct,14,788
14,VPVPV,13,1,713,Correct,14,855
14,FXGRF,233,2,601,Correct,14,766
14,CYCVC,222,2,704,Correct,14,697
14,FNFNF,151,1,776,Correct,14,888
14,KFKCK,161,2,684,Correct,14,934
14,ZFZHZ,183,2,636,Correct,14,717
14,NXNXN,15,1,705,Correct,14,653
14,FNFNF,152,1,682,Correct,14,881
14,LXLNG,235,2,632,Correct,14,732
14,XKXVX,222,2,619,Correct,14,691
14,ZHZHZ,194,2,966,Incorrect,14,935
14,PFPFP,15,1,638,Correct,14,699
14,ZYZYZ,152,1,1112,Correct,14,930
14,XPXVX,161,2,620,Correct,14,666
14,YCYCY,151,1,575,Correct,14,731
14,RGRGR,10,[1][3],[1040][1151],Correct,14,687
14,VRVRV,13,1,576,Correct,14,659
14,PKPNP,161,2,689,Correct,14,785
14,XGXGX,11,[1][3],[748][876],Correct,14,814
14,GZYVY,231,2,1067,Correct,14,941
14,VCVNV,222,2,795,Correct,14,738
14,VHVHV,195,1,804,Correct,14,840
14,LXLNL,16,2,705,Correct,14,650
14,GKPKP,221,1,812,Correct,14,857
14,XRXPX,222,2,809,Correct,14,652
14,XNXNX,151,1,656,Correct,14,794
14,KHKNK,176,2,653,Incorrect,14,887
14,RZRZR,15,1,749,Correct,14,793
14,CGCFC,121,[2][3],[1257][1385],Correct,14,772
15,A,5,3,6886,New Target,15,891
15,XRXFX,161,2,979,Correct,15,782
15,RXRKR,162,2,1050,Correct,15,680
15,YRYRY,151,1,616,Correct,15,823
15,XPXPX,152,1,679,Correct,15,828
15,RPRPR,153,1,840,Correct,15,721
15,NCNCN,154,1,624,Correct,15,812
15,RXRZR,161,2,801,Correct,15,812
15,NANAN,7,[1][3],[1175][1303],Correct,15,918
15,KCKYK,14,2,642,Correct,15,905
15,XKXFX,162,2,1183,Correct,15,886
15,ZLZKZ,163,2,668,Correct,15,797
15,VCVZV,164,2,619,Correct,15,735
15,XCXVX,165,2,602,Correct,15,804
15,LKLZA,235,2,608,Correct,15,659
15,NCNCN,113,1,797,Correct,15,924
15,YGYGY,191,1,1091,Correct,15,895
15,VLVLV,15,1,1087,Correct,15,816
15,XRXRX,152,1,624,Correct,15,767
15,KAKPK,81,[2][3],[1269][1589],Correct,15,946
15,YZAZY,233,1,1142,Incorrect,15,658
15,CFCFC,113,1,674,Correct,15,814
15,VNVLV,161,2,732,Correct,15,932
15,KPKVK,162,2,577,Correct,15,921
15,NCNRN,163,2,596,Correct,15,796
15,FGFGF,192,1,712,Correct,15,760
15,RCRYR,16,2,548,Correct,15,805
15,KRKCK,162,2,689,Correct,15,914
15,CRCRC,151,1,892,Correct,15,817
15,XPAPX,223,1,993,Correct,15,853
15,LPLXL,222,2,1269,Correct,15,803
15,CGCVC,173,2,1094,Correct,15,903
15,FKFZF,16,2,680,Correct,15,778
15,CACAC,9,[1][3],[745][873],Correct,15,933
15,XCXCX,13,1,830,Correct,15,884
15,AXRXR,221,1,738,Correct,15,942
15,NKNRN,222,2,721,Correct,15,761
15,KNKFK,162,2,674,Correct,15,720
15,KAKAK,10,[1][3],[717][845],Correct,15,937
15,ZCZRZ,14,2,556,Correct,15,802
15,RPRPR,151,1,833,Correct,15,797
15,NCNCN,152,1,666,Correct,15,836
15,RYRGR,184,2,582,Correct,15,852
15,VPVPV,15,1,714,Correct,15,773
15,RCRCA,225,1,596,Correct,15,816
15,KXKPK,222,2,603,Correct,15,685
15,NPNPN,151,1,593,Correct,15,702
15,YCYCY,152,1,563,Correct,15,811
15,PXPAP,112,[2][3],[587][1019],Correct,15,884
15,ZCZNZ,14,2,752,Correct,15,749
15,KYKGK,185,2,582,Correct,15,901
15,ANLPL,231,2,1038,Correct,15,679
15,CXCPC,222,2,678,Correct,15,653
15,YRYRY,151,1,674,Correct,15,809
15,LGLGL,196,1,698,Correct,15,916
15,VYVLV,16,2,1222,Correct,15,783
15,KVKVK,151,1,768,Correct,15,755
15,RKRKR,152,1,798,Correct,15,688
15,VXVXV,153,1,758,Correct,15,811
15,XAXAX,12,[1][3],[664][776],Correct,15,676
