Trial No,Stimulus,Trigger,Response,Response Time(ms),Correct,Block,Fixation Duration
Practice
OT Practice
1,SKSKS,15,1,1372,Correct,0,652
1,DLDUD,16,2,942,Correct,0,793
1,PDPGP,16,2,1067,Correct,0,832
1,MWMWM,15,1,1002,Correct,0,682
1,FTFTF,15,1,1067,Correct,0,780
1,AXAMA,16,1,506,False,0,661
1,RYRGR,16,2,1197,Correct,0,729
1,DODOD,15,1,757,Correct,0,779
1,QTQAQ,16,2,793,Correct,0,853
1,YEYEY,15,1,638,Correct,0,894
2,GYGDG,16,2,708,Correct,0,863
2,SWSWS,15,1,836,Correct,0,675
2,HLHUH,16,2,747,Correct,0,734
2,DEDED,15,1,561,Correct,0,807
2,ZPZOZ,16,2,718,Correct,0,822
2,ATATA,15,1,637,Correct,0,674
2,QOQOQ,15,1,764,Correct,0,754
2,FPFGF,16,2,814,Correct,0,931
2,TRTET,16,2,638,Correct,0,917
2,DQDQD,15,1,777,Correct,0,820
4,PLPLP,15,1,821,Correct,0,780
4,ATAIA,16,2,650,Correct,0,795
4,SKSGS,16,2,793,Correct,0,681
4,ZYZYZ,15,1,617,Correct,0,940
4,QSQSQ,15,1,799,Correct,0,650
4,TZTDT,16,2,633,Correct,0,654
4,JYJGJ,16,2,756,Correct,0,839
4,DYDYD,15,1,551,Correct,0,867
4,LTLCL,16,2,590,Correct,0,949
4,FQFEF,16,2,1024,Correct,0,708
AT Practice
1,TKTKT,15,1,1226,Correct,0,659
1,SLSUS,16,1,798,False,0,866
1,VZVGV,7,2,810,False,0,676
1,XWXZX,7,,,False,0,800
1,ATATA,15,1,1090,Correct,0,901
1,HXZMH,16,3,651,False,0,759
1,TZTZT,7,3,918,Correct,0,795
1,UOUOU,15,1,746,Correct,0,704
1,ZTWAW,16,2,1269,Correct,0,727
1,RZRER,7,3,1005,Correct,0,717
2,JYJDJ,16,2,961,Correct,0,665
2,DWDWD,15,1,802,Correct,0,761
2,GNGNG,7,3,661,Correct,0,921
2,NEZEZ,16,1,1012,Correct,0,667
2,RNROR,7,3,757,Correct,0,690
2,QTQNQ,7,2,944,False,0,758
2,HOHON,15,1,799,Correct,0,877
2,KPKGK,16,2,1161,Correct,0,654
2,DRDED,16,2,893,Correct,0,920
2,LNLNL,7,3,800,Correct,0,741
4,GLGLG,15,1,1147,Correct,0,674
4,DTDID,16,2,947,Correct,0,802
4,SMSGS,16,2,1012,Correct,0,815
4,ZFZYZ,7,3,548,Correct,0,727
4,TSTFT,7,3,1028,Correct,0,805
4,OFOFO,7,3,1247,Correct,0,837
4,WYFGW,16,2,1239,Correct,0,695
4,WYWYW,15,1,1266,Correct,0,657
4,MFMCM,7,3,952,Correct,0,764
4,HQHEH,16,2,1047,Correct,0,795
Trials
1,D,5,3,19828,New Target,1,808
1,ZNZYZ,161,2,1213,Correct,1,702
1,FZFZF,151,,,Incorrect,1,661
1,RKRKR,152,1,977,Correct,1,903
1,RXRNR,161,2,863,Correct,1,885
1,CNCFC,162,2,994,Correct,1,929
1,PDPDP,7,3,595,Correct,1,829
1,CPCFC,14,2,1032,Correct,1,743
1,VLVNV,162,2,995,Correct,1,919
1,KFKFK,151,1,778,Correct,1,692
1,ZNZNZ,152,1,1073,Correct,1,930
1,KCKPD,235,2,850,Correct,1,743
1,ZKZFZ,222,2,1255,Correct,1,897
1,NRNZN,162,2,837,Correct,1,661
1,KXKRK,163,2,940,Correct,1,874
1,YPYZY,164,2,1332,Correct,1,727
1,FKDKF,223,3,1112,Incorrect,1,770
1,RPRPR,113,1,1402,Correct,1,716
1,VRVKV,161,2,858,Correct,1,879
1,RFRPR,162,2,1132,Correct,1,938
1,KVKVK,151,1,947,Correct,1,932
1,YKYVY,161,2,915,Correct,1,900
1,VDVDV,8,3,756,Correct,1,945
1,DVZVZ,221,1,1393,Correct,1,690
1,YFYFY,113,1,1107,Correct,1,668
1,ZYZYZ,152,1,825,Correct,1,930
1,VLVXV,161,2,637,Correct,1,755
1,DPXZX,231,2,917,Correct,1,903
1,RYRYR,113,1,778,Correct,1,668
1,PDPNP,91,3,763,Correct,1,894
1,KXKXK,13,,,Incorrect,1,852
1,ZYZYZ,152,3,1136,Incorrect,1,937
1,VKVKV,153,1,997,Correct,1,900
1,YZYZY,154,1,1120,Correct,1,833
1,NLNZN,161,2,899,Correct,1,855
1,ZNDYZ,233,2,1315,Correct,1,884
1,PCPXP,222,2,773,Correct,1,799
1,ZVZFZ,162,2,681,Correct,1,835
1,RCRZR,163,2,589,Correct,1,948
1,LRLRL,151,1,759,Correct,1,795
1,ZDZDZ,10,3,954,Correct,1,916
1,RNRZR,14,2,618,Correct,1,761
1,CXCYC,162,2,1217,Correct,1,930
1,RCRLR,163,2,937,Correct,1,682
1,FRFRF,151,1,784,Correct,1,939
1,XFXFX,152,1,766,Correct,1,924
1,RPRLR,161,2,982,Correct,1,831
1,YXYRY,162,2,675,Correct,1,790
1,FYFYF,151,1,847,Correct,1,778
1,YZYVY,161,2,647,Correct,1,683
1,YKYKY,151,1,979,Correct,1,741
1,XRXRX,152,1,704,Correct,1,854
1,XVXZX,161,2,903,Correct,1,798
1,PDPDP,11,3,484,Correct,1,929
1,ZFZFZ,13,1,758,Correct,1,749
1,PXPXP,152,2,653,Incorrect,1,671
1,LYLYL,153,1,647,Correct,1,866
1,NKNKD,225,1,902,Correct,1,748
1,ZNZNZ,113,1,1039,Correct,1,932
1,PYPZP,161,2,719,Correct,1,740
1,XPXPX,151,1,808,Correct,1,780
1,VLVLV,152,1,775,Correct,1,893
1,PKPXP,161,2,848,Correct,1,722
1,FZFZF,151,1,771,Correct,1,811
1,LDLDL,12,3,455,Correct,1,870
2,U,5,3,2821,New Target,2,711
2,ZVZFZ,161,2,856,Correct,2,689
2,FZFZF,151,1,746,Correct,2,837
2,RFRFR,152,1,1003,Correct,2,917
2,NZNKN,161,2,774,Correct,2,917
2,FZFNF,162,2,763,Correct,2,745
2,RXRXR,151,1,1092,Correct,2,757
2,KRKYK,161,2,991,Correct,2,671
2,NZNPN,162,2,811,Correct,2,880
2,XPXPX,151,1,651,Correct,2,868
2,CUCUC,7,3,565,Correct,2,890
2,RFRFR,13,1,781,Correct,2,906
2,VYVXV,161,2,671,Correct,2,877
2,VDVDV,191,1,1406,Correct,2,651
2,ZKZRZ,15,2,828,Correct,2,826
2,XCXCX,151,1,1247,Correct,2,701
2,CNCUC,82,3,1073,Correct,2,843
2,RCRCR,13,1,830,Correct,2,693
2,ZPZXZ,161,2,749,Correct,2,874
2,FKFYF,162,2,898,Correct,2,910
2,ZFZYZ,163,2,914,Correct,2,892
2,PXPXP,151,3,702,Incorrect,2,824
2,URCKC,231,2,940,Correct,2,705
2,PCPCP,113,1,917,Correct,2,918
2,XNXNX,152,1,945,Correct,2,841
2,RCRZR,161,2,854,Correct,2,668
2,XVXVX,151,1,860,Correct,2,683
2,NRNRN,152,1,778,Correct,2,818
2,FPFPF,225,1,700,Correct,2,929
2,XVXFX,222,2,749,Correct,2,941
2,PRPRP,151,1,982,Correct,2,793
2,FYFCF,161,2,1009,Correct,2,799
2,XUXFX,91,3,607,Correct,2,836
2,CYCVC,14,2,1241,Correct,2,783
2,VDVKV,172,2,766,Correct,2,906
2,YCYCY,15,1,1101,Correct,2,900
2,NKNLN,161,2,844,Correct,2,730
2,XPUKX,233,2,1298,Correct,2,675
2,ZPZPZ,113,1,965,Correct,2,836
2,KRKRK,152,1,772,Correct,2,809
2,XKXKX,153,1,1079,Correct,2,860
2,YUYVY,101,3,655,Correct,2,862
2,XKXFU,235,2,874,Correct,2,750
2,NFNFN,113,1,891,Correct,2,876
2,KDKDK,193,1,799,Correct,2,654
2,XYXKX,16,2,808,Correct,2,764
2,YZUZY,223,1,1325,Correct,2,753
2,KFKVK,222,2,814,Correct,2,813
2,LYLYL,151,1,721,Correct,2,885
2,CXCDC,184,2,661,Incorrect,2,798
2,XZXNX,16,2,854,Correct,2,738
2,PXPXP,151,2,743,Incorrect,2,774
2,ZRZYZ,161,2,687,Correct,2,741
2,PUPYP,111,3,891,Correct,2,776
2,RNRNR,14,1,1240,Correct,2,931
2,KDKDK,195,1,604,Correct,2,741
2,KNKNK,15,1,633,Correct,2,740
2,PRPKP,161,2,748,Correct,2,918
2,UNYNY,221,1,936,Correct,2,792
2,NYNYN,113,1,738,Correct,2,880
2,YXYXY,152,1,725,Incorrect,2,865
2,RDRDR,196,1,800,Correct,2,713
2,FCFCF,15,1,728,Correct,2,760
2,ZKZKZ,152,1,818,Correct,2,686
2,ZUZUZ,12,3,969,Correct,2,757
3,E,5,3,3102,New Target,3,921
3,YZYZY,151,1,1473,Correct,3,937
3,VFVNV,161,2,1386,Correct,3,913
3,KYKYK,151,1,842,Correct,3,681
3,NKNKN,152,1,763,Correct,3,860
3,XVXNX,161,2,852,Correct,3,666
3,RERFR,71,3,960,Correct,3,901
3,XNXNX,13,1,758,Correct,3,693
3,NXNXN,152,1,703,Correct,3,674
3,ZLZNZ,161,2,915,Correct,3,940
3,CUCNC,171,3,820,Incorrect,3,714
3,FYFRF,16,2,1582,Correct,3,703
3,ZLZLZ,151,1,759,Correct,3,716
3,YZYZY,152,1,828,Correct,3,807
3,CYCYC,153,1,1042,Correct,3,684
3,VUVUV,192,1,1536,Correct,3,654
3,PXPRP,16,2,792,Correct,3,819
3,YPYPY,151,1,1115,Correct,3,935
3,CECEC,8,3,574,Correct,3,946
3,VNENV,223,1,1239,Correct,3,893
3,KRKFK,222,2,1009,Correct,3,657
3,XLXLE,225,1,935,Correct,3,934
3,RFRUR,183,2,1203,Correct,3,947
3,XRXLX,16,2,664,Correct,3,822
3,NZNPN,162,2,949,Correct,3,756
3,XZXZX,151,1,810,Correct,3,650
3,FZFZF,152,1,1402,Correct,3,883
3,PFPFP,153,1,1399,Correct,3,826
3,YZYXY,161,2,858,Correct,3,693
3,KEKEK,9,3,751,Correct,3,699
3,CXCPC,14,3,1120,Incorrect,3,933
3,VXVXV,151,1,1143,Correct,3,861
3,NUNZN,174,2,1461,Correct,3,672
3,RKRVR,16,2,1068,Correct,3,929
3,XRXRX,151,1,1273,Correct,3,679
3,ERNFN,231,2,1483,Incorrect,3,839
3,YRYNY,222,2,736,Correct,3,928
3,PZPEP,102,1,681,Incorrect,3,750
3,ZYZXZ,14,2,858,Correct,3,671
3,RZRVR,162,2,1290,Correct,3,855
3,XRXRX,151,1,1133,Correct,3,699
3,KUKFK,175,2,970,Correct,3,687
3,RKRKR,15,1,838,Correct,3,854
3,ZFZFZ,152,1,1323,Correct,3,745
3,YZYVY,161,2,697,Correct,3,876
3,XPXNX,162,2,806,Correct,3,656
3,YRYRY,151,1,918,Correct,3,930
3,EPVPV,221,1,1196,Correct,3,691
3,CRCEC,112,3,1101,Correct,3,884
3,RFRCR,14,2,1144,Correct,3,845
3,CPCVC,162,2,978,Correct,3,741
3,RXRCR,163,2,751,Correct,3,891
3,VNVLV,164,2,951,Correct,3,754
3,ZXZXZ,151,1,1320,Correct,3,727
3,ZCZCZ,152,1,903,Correct,3,769
3,PYPUP,186,2,965,Correct,3,907
3,YKYPY,16,2,1574,Correct,3,771
3,YREXY,233,2,999,Correct,3,949
3,ZKZKZ,113,1,1369,Correct,3,696
3,XLXNX,161,2,786,Correct,3,878
3,KFKRE,235,2,1043,Correct,3,888
3,RXRLR,222,2,1124,Correct,3,666
3,RERXR,121,3,687,Correct,3,668
4,J,5,3,851,New Target,4,780
4,CYCVC,161,2,1253,Correct,4,812
4,RXRCR,162,2,724,Correct,4,885
4,FPFVF,163,2,869,Correct,4,924
4,LZLZL,151,1,922,Correct,4,792
4,PLPLP,152,1,846,Correct,4,676
4,NPNPN,153,1,733,Correct,4,868
4,XZXZX,161,1,719,Incorrect,4,896
4,CNCKC,162,2,625,Correct,4,888
4,PCPYJ,235,2,578,Correct,4,724
4,VYVYV,113,1,701,Correct,4,863
4,RLRLR,152,1,993,Correct,4,910
4,CJCJC,7,3,893,Correct,4,763
4,ZLZLZ,13,1,848,Correct,4,820
4,FZFZF,152,1,636,Correct,4,944
4,CFCFC,153,1,728,Correct,4,769
4,PZPZP,154,1,667,Correct,4,892
4,XEXEX,191,1,970,Correct,4,695
4,NVNFN,16,2,697,Correct,4,753
4,KYKYK,151,1,785,Correct,4,776
4,ZNZVZ,161,2,835,Correct,4,944
4,YVJXY,233,2,1157,Correct,4,853
4,XFXFX,113,1,843,Correct,4,815
4,XNXNX,152,1,732,Correct,4,808
4,FJFKF,81,3,777,Correct,4,699
4,CZCYC,14,2,700,Correct,4,834
4,ZXZCZ,162,2,564,Correct,4,699
4,RYRYJ,225,1,933,Correct,4,792
4,FPFZF,222,2,570,Correct,4,669
4,XRXRX,151,1,652,Correct,4,689
4,YPYEY,182,2,608,Correct,4,905
4,XRXRX,15,1,1185,Correct,4,660
4,XZXPX,161,2,714,Correct,4,774
4,CJCJC,9,3,964,Correct,4,729
4,ZXZVZ,14,2,739,Correct,4,774
4,VKVKV,151,1,876,Correct,4,683
4,VEVNV,173,2,623,Correct,4,815
4,ZKZVZ,16,2,490,Correct,4,736
4,XVXJX,102,3,1105,Correct,4,681
4,RXRVR,14,2,699,Correct,4,753
4,LRLRL,151,1,933,Correct,4,770
4,YNJNY,223,2,836,Incorrect,4,874
4,NPNJN,222,3,985,Incorrect,4,728
4,ZEZEZ,194,1,766,Correct,4,650
4,ZNZNZ,15,1,736,Correct,4,782
4,YZYZY,152,1,584,Correct,4,784
4,XYXYX,153,1,607,Correct,4,919
4,ZXZXZ,221,1,713,Correct,4,895
4,LYLZL,222,2,1207,Correct,4,701
4,CYCNC,162,2,842,Correct,4,749
4,XEXEX,195,1,787,Correct,4,725
4,CVCXC,16,2,742,Correct,4,905
4,ZPZXZ,162,1,573,Incorrect,4,755
4,FZFZF,151,1,765,Correct,4,701
4,RXRJR,112,2,612,Incorrect,4,787
4,PRPFP,14,2,1377,Correct,4,803
4,PKPEP,186,2,659,Correct,4,762
4,XZXPX,16,2,700,Correct,4,790
4,JCZVZ,231,2,1015,Correct,4,755
4,RXRLR,222,2,613,Correct,4,744
4,VZVZV,151,1,836,Correct,4,682
4,XJXJX,12,3,888,Correct,4,755
5,I,5,3,1729,New Target,5,842
5,PCPCP,151,1,1080,Correct,5,675
5,XYXYX,152,1,663,Correct,5,686
5,VXVXV,153,1,787,Correct,5,708
5,XVXVX,154,1,836,Correct,5,929
5,ZRZXZ,161,2,599,Correct,5,785
5,FPFZF,162,1,716,Incorrect,5,662
5,ZYZYZ,151,1,892,Correct,5,942
5,RVRZR,161,2,906,Correct,5,865
5,CICIC,7,3,777,Correct,5,834
5,XLXLX,13,1,917,Correct,5,944
5,YVYVY,152,1,680,Correct,5,751
5,CJCJC,191,3,656,Incorrect,5,913
5,FNFCF,16,2,634,Correct,5,843
5,PVPRP,162,2,1086,Correct,5,931
5,FZFZF,151,1,710,Correct,5,821
5,NVIVN,223,1,973,Correct,5,876
5,CVCIC,82,3,575,Correct,5,782
5,ZXZXZ,13,1,817,Correct,5,694
5,FCFZF,161,2,675,Correct,5,788
5,IXRXR,221,1,694,Correct,5,946
5,ZPZNZ,222,2,652,Correct,5,882
5,VZVZV,151,1,739,Correct,5,751
5,YRYNY,161,2,585,Correct,5,893
5,VNVPV,162,2,612,Correct,5,846
5,RVRJR,182,2,756,Correct,5,708
5,VRVRV,15,1,639,Correct,5,652
5,VIVIV,9,3,488,Correct,5,886
5,CXCVC,14,2,584,Correct,5,833
5,PZPZP,151,1,697,Correct,5,667
5,IXVKV,231,2,776,Correct,5,661
5,YJYCY,173,2,677,Incorrect,5,950
5,VYVYV,15,1,762,Correct,5,861
5,YVYVY,152,1,633,Correct,5,650
5,NVNVN,153,1,896,Correct,5,815
5,XYXVX,161,2,823,Correct,5,683
5,NJNCN,174,2,667,Correct,5,851
5,NXNYN,16,2,900,Correct,5,805
5,VXVCV,162,2,663,Correct,5,806
5,ZKZKZ,151,1,705,Correct,5,738
5,XRXYX,161,2,863,Correct,5,659
5,ZCZXZ,162,2,610,Correct,5,707
5,KVKYI,235,2,830,Correct,5,925
5,CNCNC,113,1,741,Correct,5,664
5,RIRIR,10,3,794,Correct,5,826
5,VYVXV,14,2,593,Correct,5,734
5,FXIRF,233,2,722,Correct,5,695
5,PFPFP,113,1,618,Correct,5,729
5,VPVPV,152,1,519,Correct,5,780
5,ZJZJZ,195,,,Incorrect,5,875
5,ZVZNZ,16,2,633,Correct,5,818
5,YVYXY,162,2,534,Correct,5,782
5,PRPRP,151,1,758,Correct,5,777
5,YPYPY,152,1,635,Correct,5,816
5,ZIZPZ,111,3,785,Correct,5,835
5,NKNXN,14,2,965,Correct,5,835
5,RZRXR,162,2,1023,Correct,5,950
5,RXRXR,151,1,842,Correct,5,821
5,ZJZJZ,196,2,651,Incorrect,5,775
5,CVCVI,225,2,651,Correct,5,708
5,NKNKN,113,1,818,Correct,5,837
5,NRNZN,161,2,916,Correct,5,894
5,CNCNC,151,1,629,Correct,5,762
5,RFRIR,122,2,1202,Incorrect,5,804
6,B,5,3,1686,New Target,6,849
6,YKYZY,161,2,753,Correct,6,938
6,VCVRV,162,2,722,Correct,6,872
6,XVXVX,151,1,764,Correct,6,717
6,KZKRK,161,2,671,Correct,6,899
6,ZVZXZ,162,2,650,Correct,6,765
6,RCRNR,163,2,661,Correct,6,844
6,CXCRC,164,2,555,Correct,6,880
6,VNBCV,233,2,680,Correct,6,840
6,CXCVC,222,2,395,Correct,6,861
6,RFRFR,151,1,524,Correct,6,943
6,XPXRX,161,2,749,Correct,6,740
6,RYRBR,72,1,632,Incorrect,6,773
6,ZKZKZ,13,1,789,Correct,6,752
6,FIFRF,171,2,713,Correct,6,874
6,VZVLV,16,2,964,Correct,6,712
6,RPRVR,162,2,901,Correct,6,707
6,YBYBY,8,3,456,Correct,6,684
6,PYPVP,14,2,649,Correct,6,841
6,NININ,192,1,1214,Correct,6,844
6,RNRNR,15,1,788,Correct,6,783
6,NXNVN,161,2,648,Correct,6,826
6,RNRNR,151,1,757,Correct,6,756
6,FRFVF,161,2,775,Correct,6,898
6,YVYFB,235,2,1531,Incorrect,6,841
6,ZRZXZ,222,2,1080,Correct,6,680
6,VNVIV,193,2,692,Incorrect,6,773
6,PXPNP,16,2,736,Correct,6,684
6,ZXZPZ,162,2,577,Correct,6,893
6,VBVBV,9,3,639,Correct,6,766
6,CXCXC,13,1,863,Correct,6,701
6,PCPFP,161,2,976,Correct,6,854
6,KNKNK,151,1,733,Correct,6,738
6,XIXIX,194,1,760,Correct,6,750
6,CYCYC,15,1,594,Correct,6,658
6,FVFYF,161,2,844,Correct,6,865
6,YNYRY,162,2,735,Correct,6,853
6,BVPXP,231,2,738,Correct,6,898
6,NXNXN,113,1,1034,Correct,6,681
6,FRFRF,152,1,902,Correct,6,910
6,YVYVY,153,1,753,Correct,6,891
6,ZKZCZ,161,2,605,Correct,6,711
6,VIVXV,175,2,623,Correct,6,935
6,PRBRP,223,1,1194,Correct,6,827
6,YZYBY,102,3,687,Correct,6,856
6,CXCVC,14,2,637,Correct,6,946
6,FYFYF,151,1,734,Correct,6,716
6,VKVXV,161,2,660,Correct,6,828
6,ZBZBZ,11,3,591,Correct,6,737
6,FPFNF,14,2,575,Correct,6,802
6,CXCXC,151,1,932,Correct,6,944
6,YCYCY,152,1,792,Correct,6,737
6,FPFPF,153,1,608,Correct,6,661
6,CVCVB,225,1,892,Correct,6,772
6,ZCZCZ,113,1,592,Correct,6,832
6,CZCNC,161,2,792,Correct,6,889
6,KIKFK,176,2,1097,Correct,6,826
6,PXPXP,15,1,738,Correct,6,777
6,RYRYR,152,1,795,Correct,6,799
6,ZRZCZ,161,2,748,Correct,6,891
6,RVRVR,151,1,993,Correct,6,887
6,XYXNX,161,2,609,Correct,6,687
6,BVKVK,221,1,906,Correct,6,872
6,CBCBC,12,3,758,Correct,6,875
7,W,5,3,3879,New Target,7,791
7,RKRKR,151,1,745,Correct,7,818
7,CVCRC,161,2,581,Correct,7,690
7,PKPKP,151,1,596,Correct,7,742
7,FPFPF,152,1,575,Correct,7,787
7,VRVPV,161,2,700,Correct,7,908
7,ZKZYZ,162,2,951,Correct,7,745
7,PVPCP,233,2,618,Correct,7,658
7,KVKVK,113,1,715,Correct,7,662
7,YXYVY,161,2,646,Correct,7,772
7,FNFNF,151,1,472,Correct,7,939
7,YWYWY,7,3,459,Correct,7,729
7,ZYZYZ,13,1,751,Correct,7,770
7,PYPYP,152,1,613,Correct,7,741
7,XRXRX,153,1,605,Correct,7,832
7,PXPXP,154,1,648,Correct,7,913
7,FCFBF,181,2,595,Correct,7,768
7,FVFVF,15,1,817,Correct,7,850
7,CYCZC,161,2,590,Correct,7,864
7,XZXVX,162,1,618,Incorrect,7,904
7,PFPFP,151,1,676,Correct,7,834
7,RVRLR,161,2,986,Correct,7,831
7,ZBZBZ,192,3,714,Incorrect,7,726
7,VCVNV,16,2,799,Correct,7,900
7,NWNWN,8,3,562,Correct,7,762
7,XNXVX,14,2,1115,Correct,7,886
7,CXCNC,162,2,661,Correct,7,844
7,YVYVW,225,1,793,Correct,7,907
7,VFVFV,113,1,768,Correct,7,719
7,VFWFV,223,2,1113,Incorrect,7,723
7,CVCFC,222,2,716,Correct,7,672
7,YBYBY,193,2,1213,Incorrect,7,892
7,PYPYP,15,1,806,Correct,7,665
7,NKNWN,91,3,1262,Correct,7,729
7,VNVNV,13,1,768,Correct,7,866
7,RVRVR,152,1,776,Correct,7,700
7,FVFBF,184,2,859,Incorrect,7,784
7,VZVKV,16,2,919,Correct,7,947
7,VPVCV,162,2,1019,Correct,7,718
7,WYZCZ,231,2,1117,Correct,7,704
7,PFPFP,113,1,722,Correct,7,945
7,PRPRP,152,1,1105,Correct,7,659
7,NWNWN,10,3,773,Correct,7,905
7,VKVCV,14,2,718,Correct,7,724
7,WPYPY,221,1,725,Correct,7,813
7,VBVBV,195,1,1265,Correct,7,694
7,ZKZYZ,16,2,691,Correct,7,890
7,XYXYX,151,1,860,Correct,7,742
7,FZFXF,161,2,793,Correct,7,872
7,XKXKX,151,1,910,Correct,7,808
7,XPXPX,152,1,1513,Correct,7,932
7,FWFWF,11,3,623,Correct,7,939
7,FNFBF,186,2,588,Correct,7,821
7,ZVZYZ,16,2,1128,Correct,7,781
7,FZFZF,151,1,548,Correct,7,707
7,NPNFW,235,2,960,Correct,7,930
7,PCPCP,113,3,584,Incorrect,7,901
7,NKNWN,122,3,794,Correct,7,671
8,M,5,3,2171,New Target,8,757
8,VYVNV,161,2,931,Correct,8,745
8,KLKNK,162,2,645,Correct,8,694
8,NRNRN,151,1,516,Correct,8,736
8,VNVFV,161,2,599,Correct,8,730
8,XNXNM,225,1,1137,Correct,8,781
8,CXCVC,222,2,672,Correct,8,679
8,KRKZK,162,2,697,Correct,8,767
8,NMNFN,71,3,583,Correct,8,786
8,ZFZFZ,13,1,533,Correct,8,752
8,YPYCY,161,2,793,Correct,8,659
8,KCKCK,151,1,622,Correct,8,840
8,VNVNV,152,2,876,Incorrect,8,824
8,LXLXL,153,1,682,Correct,8,907
8,CLCLC,154,1,720,Correct,8,831
8,NYNYN,155,1,772,Correct,8,860
8,LCMYL,233,2,999,Correct,8,861
8,NCNCN,113,1,678,Correct,8,832
8,ZVZRZ,161,2,730,Correct,8,857
8,ZVZVZ,151,1,931,Correct,8,839
8,PZPVP,161,2,660,Correct,8,745
8,PWPNP,171,2,950,Correct,8,925
8,KLKCM,235,2,633,Correct,8,742
8,XMXMX,8,1,737,Incorrect,8,809
8,PRPXP,14,2,874,Correct,8,788
8,CVCYC,162,2,698,Correct,8,860
8,PXPMP,92,3,780,Correct,8,948
8,ZCZLZ,14,2,1230,Correct,8,901
8,XWXWX,192,1,1299,Correct,8,762
8,ZCZLZ,16,2,566,Correct,8,759
8,MNCYC,231,2,727,Correct,8,737
8,ZXZXZ,113,1,654,Correct,8,775
8,YRYNY,161,2,589,Correct,8,674
8,ZLZPZ,162,2,541,Correct,8,657
8,VZVZV,151,1,632,Correct,8,814
8,MXPXP,221,1,1106,Correct,8,795
8,VWVWV,193,2,712,Incorrect,8,812
8,PYPYP,16,1,604,Incorrect,8,917
8,XPXVX,162,2,868,Correct,8,948
8,XLXLX,151,1,803,Correct,8,839
8,YMYMY,10,3,454,Correct,8,787
8,VYVYV,13,1,837,Correct,8,862
8,PWPZP,174,2,647,Correct,8,823
8,PYPKP,16,2,780,Correct,8,656
8,NPNXN,162,2,643,Correct,8,705
8,KVKVK,223,1,1118,Correct,8,728
8,NVNFN,222,2,648,Correct,8,796
8,XNXNX,151,1,804,Correct,8,690
8,YZYMY,112,3,598,Correct,8,842
8,PFPFP,13,1,609,Correct,8,947
8,ZWZWZ,195,1,744,Correct,8,948
8,PCPZP,16,2,635,Correct,8,850
8,LRLPL,162,1,914,Incorrect,8,901
8,CZCZC,151,1,705,Correct,8,790
8,NZNZN,152,1,1031,Correct,8,808
8,CVCXC,161,2,691,Correct,8,761
8,XCXCX,151,1,559,Correct,8,713
8,YWYWY,196,2,634,Incorrect,8,911
8,NLNLN,15,1,711,Correct,8,754
8,VNVNV,152,1,1171,Correct,8,655
8,ZMZMZ,12,3,635,Correct,8,718
9,S,5,3,2031,New Target,9,871
9,NZNZN,151,,,Incorrect,9,840
9,KVKZK,161,2,698,Correct,9,672
9,LZLZL,151,1,659,Correct,9,754
9,XLXLX,152,1,706,Correct,9,684
9,ZXZXZ,153,1,572,Correct,9,724
9,KNKZK,161,2,617,Correct,9,860
9,NRNYN,162,2,770,Correct,9,831
9,CLCVC,163,2,1254,Correct,9,755
9,ZCZFZ,164,2,837,Correct,9,903
9,NSNSN,7,3,512,Correct,9,653
9,VZVZV,13,1,957,Correct,9,897
9,NVNCN,161,2,614,Correct,9,813
9,VMVMV,191,2,946,Incorrect,9,893
9,CVCXC,16,2,942,Correct,9,872
9,ZYZRZ,162,2,1018,Correct,9,914
9,XNXZX,163,2,1095,Correct,9,803
9,PXPXP,151,1,667,Correct,9,929
9,VCVSV,82,3,934,Correct,9,726
9,PRPCP,14,2,645,Correct,9,861
9,ZMZMZ,192,1,781,Incorrect,9,923
9,ZFZFZ,15,1,645,Correct,9,749
9,FCFCF,152,1,718,Correct,9,683
9,YLYZY,161,2,665,Correct,9,776
9,KNKVK,162,2,1118,Correct,9,887
9,SFPCP,231,2,920,Correct,9,758
9,RPRPR,113,1,679,Correct,9,764
9,XMXMX,193,1,1033,Correct,9,947
9,KFKFK,15,1,690,Correct,9,909
9,VSVSV,9,3,606,Correct,9,745
9,YVSVY,223,1,587,Correct,9,770
9,VPVPV,113,1,609,Correct,9,922
9,XZXZX,152,1,793,Correct,9,858
9,KZKXK,161,2,707,Correct,9,724
9,RFRPR,162,1,724,Incorrect,9,932
9,NVNVS,225,1,1121,Correct,9,699
9,ZXZXZ,113,1,902,Correct,9,801
9,SRVRV,221,1,714,Correct,9,672
9,YCYCY,113,1,580,Correct,9,841
9,KMKZK,174,2,656,Correct,9,823
9,FZSVF,233,2,724,Correct,9,866
9,VYVYV,113,1,591,Correct,9,743
9,LVLVL,152,1,591,Correct,9,778
9,YFYFY,153,1,551,Correct,9,891
9,NXNSN,102,2,646,Incorrect,9,779
9,FNFCF,14,2,941,Correct,9,851
9,KVKVK,151,1,968,Correct,9,858
9,VZVCV,161,2,722,Correct,9,922
9,ZYZMZ,185,2,723,Correct,9,901
9,VXVZV,16,2,665,Correct,9,937
9,VPVPV,151,1,638,Correct,9,863
9,RVRNS,235,2,781,Correct,9,750
9,YZYZY,113,1,741,Correct,9,795
9,ZSZSZ,11,3,699,Correct,9,859
9,FRFRF,13,1,641,Correct,9,805
9,ZMZMZ,196,1,692,Correct,9,653
9,NZNXN,16,2,730,Correct,9,800
9,LSLFL,121,3,769,Correct,9,877
10,Q,5,3,3921,New Target,10,890
10,ZVZPZ,161,2,898,Correct,10,927
10,RZRZR,151,1,693,Correct,10,772
10,ZFZFZ,152,1,657,Correct,10,700
10,RZRZR,153,2,539,Incorrect,10,839
10,PZPXP,161,2,1007,Correct,10,666
10,VFQPV,233,2,1180,Correct,10,818
10,ZPZRZ,222,1,940,Incorrect,10,874
10,CYCVC,162,2,1074,Correct,10,682
10,CPCPC,151,1,621,Correct,10,717
10,YZYQY,72,3,824,Correct,10,830
10,FVFXF,14,2,702,Correct,10,685
10,YNYNQ,225,1,793,Correct,10,675
10,ZYZYZ,113,1,560,Correct,10,719
10,FRFSF,181,2,648,Incorrect,10,880
10,XNXPX,16,2,686,Correct,10,909
10,NXNXN,151,1,872,Correct,10,816
10,PVPZP,161,2,597,Correct,10,900
10,XVXPX,162,2,557,Correct,10,916
10,FXFVF,163,2,590,Correct,10,748
10,NSNKN,172,2,726,Incorrect,10,766
10,VXVNV,16,2,557,Correct,10,825
10,XZXZX,151,1,720,Correct,10,708
10,VQVQV,8,3,681,Correct,10,806
10,ZYZPZ,14,1,608,Incorrect,10,864
10,PZPSP,183,2,1112,Correct,10,886
10,YVYVY,15,1,579,Correct,10,760
10,NCNQN,92,3,817,Correct,10,717
10,FCFVF,14,2,632,Correct,10,691
10,ZFZFZ,151,1,656,Correct,10,876
10,NSNSN,194,1,942,Correct,10,712
10,YPYFY,16,2,557,Correct,10,770
10,ZKZKZ,151,1,825,Correct,10,857
10,QZRCR,231,2,887,Correct,10,914
10,YPYVY,222,2,750,Correct,10,708
10,ZNZNZ,151,1,980,Correct,10,745
10,VQVQV,10,3,583,Correct,10,674
10,RVRZR,14,2,918,Correct,10,680
10,KRKSK,185,2,665,Correct,10,718
10,NPNPN,15,1,632,Correct,10,665
10,YPYPY,152,2,549,Incorrect,10,788
10,VCVYV,161,2,695,Correct,10,660
10,FPFNF,162,2,639,Correct,10,874
10,QVXVX,221,2,613,Incorrect,10,841
10,ZVZRZ,222,2,725,Correct,10,695
10,LFLFL,151,1,696,Correct,10,916
10,VLVLV,152,1,1021,Correct,10,857
10,KXQXK,223,2,818,Incorrect,10,950
10,YQYQY,11,3,625,Correct,10,902
10,YCYCY,13,1,682,Correct,10,922
10,PZPYP,161,2,838,Correct,10,759
10,LPLFL,162,2,741,Correct,10,898
10,VSVSV,196,1,1138,Correct,10,683
10,VFVYQ,235,2,682,Correct,10,826
10,CZCXC,222,2,678,Correct,10,719
10,PVPCP,162,2,1408,Correct,10,729
10,CXCXC,151,1,558,Correct,10,753
10,NZNZN,152,1,648,Correct,10,798
10,YPYCY,161,2,563,Correct,10,854
10,ZQZQZ,12,3,446,Correct,10,730
11,T,5,3,2075,New Target,11,700
11,KFKFK,151,1,754,Correct,11,872
11,LZLZL,152,1,1114,Correct,11,779
11,PFPVP,161,2,544,Correct,11,881
11,FRFPF,162,2,1395,Correct,11,672
11,FZFZF,151,1,608,Correct,11,764
11,VTVTV,7,3,524,Correct,11,742
11,KYKCK,14,2,651,Correct,11,849
11,VPVPV,151,1,609,Correct,11,856
11,XQXQX,191,3,719,Incorrect,11,686
11,PZPYP,16,2,792,Correct,11,809
11,KXKLK,162,2,672,Correct,11,732
11,TCNCN,221,1,837,Correct,11,856
11,PZPNP,222,2,723,Correct,11,937
11,RCRPR,162,2,716,Correct,11,815
11,PZPRT,235,2,607,Correct,11,864
11,XFXVX,222,2,551,Correct,11,944
11,LTLVL,81,3,795,Correct,11,675
11,ZCZPZ,14,2,932,Correct,11,752
11,NCNQN,182,2,663,Correct,11,716
11,XZXNX,16,2,641,Correct,11,734
11,ZPZPZ,151,1,574,Correct,11,783
11,CFCFC,152,1,667,Correct,11,748
11,VXTRV,233,2,596,Correct,11,846
11,CFCVC,222,2,769,Correct,11,725
11,PYPYP,151,1,889,Correct,11,753
11,FQFYF,173,2,614,Correct,11,885
11,CNCFC,16,2,791,Correct,11,677
11,PTPTP,9,3,535,Correct,11,895
11,ZCZCZ,13,1,574,Correct,11,903
11,KZKZK,152,1,768,Correct,11,692
11,RLRVR,161,2,533,Correct,11,794
11,ZRZKZ,162,2,770,Correct,11,900
11,KLKLT,225,1,891,Correct,11,729
11,ZQZQZ,194,1,1320,Correct,11,858
11,VZVZV,15,1,728,Correct,11,783
11,RVRZR,161,2,682,Correct,11,848
11,ZPZCZ,162,2,887,Correct,11,661
11,VYVYV,151,1,603,Correct,11,774
11,RVRVR,152,1,680,Correct,11,790
11,PTPTP,10,3,752,Correct,11,817
11,PXPXP,13,1,566,Correct,11,827
11,KCKCK,152,1,611,Correct,11,795
11,YVYVY,153,2,715,Incorrect,11,888
11,CYCYC,154,1,640,Correct,11,895
11,XCXCX,155,1,651,Correct,11,729
11,CYCQC,185,2,985,Correct,11,799
11,KCKNK,16,2,789,Correct,11,840
11,VPVPV,151,1,788,Correct,11,941
11,TXFZF,231,2,636,Correct,11,657
11,NYNVN,222,2,598,Correct,11,779
11,VQVXV,176,2,674,Correct,11,878
11,ZRZRZ,15,1,582,Correct,11,911
11,VTVZV,111,3,1060,Correct,11,765
11,PXPVP,14,2,594,Correct,11,694
11,FVFVF,151,1,836,Correct,11,712
11,VRVLV,161,2,553,Correct,11,726
11,YCYCY,151,1,557,Correct,11,650
11,XZTZX,223,1,964,Correct,11,906
11,VTVTV,12,3,469,Correct,11,742
12,O,5,3,7928,New Target,12,872
12,VXVLV,161,2,1127,Correct,12,663
12,KVKCK,162,2,703,Correct,12,734
12,VLVLV,151,1,629,Correct,12,904
12,ZCZVZ,161,2,521,Correct,12,692
12,KFKFK,151,1,551,Correct,12,722
12,XKXKX,152,1,870,Correct,12,836
12,YXYXY,153,1,889,Correct,12,757
12,FVFVF,154,1,618,Correct,12,807
12,PVPOP,72,3,779,Correct,12,692
12,ZXZYZ,14,2,626,Correct,12,747
12,PXPVP,162,2,650,Correct,12,915
12,ZTZTZ,191,1,1031,Correct,12,711
12,CVCKC,16,2,532,Correct,12,774
12,CKCKC,151,1,629,Correct,12,760
12,NPNPN,152,1,629,Correct,12,809
12,ZRZNZ,161,2,541,Correct,12,808
12,OZCZC,221,1,827,Correct,12,879
12,LFLFL,113,1,727,Correct,12,903
12,CXCXC,152,1,716,Correct,12,881
12,KPKPK,153,1,654,Correct,12,877
12,FRFKF,161,2,748,Correct,12,700
12,FOFOF,8,1,559,Incorrect,12,898
12,ZFZFZ,13,1,697,Correct,12,868
12,LKLZO,235,2,1194,Correct,12,660
12,KLKZK,222,2,977,Correct,12,748
12,YXYCY,162,2,1053,Correct,12,830
12,LOLOL,9,3,566,Correct,12,791
12,XLXLX,13,1,888,Correct,12,656
12,XVXVX,152,1,950,Correct,12,876
12,FTFTF,192,1,550,Correct,12,845
12,OXNZN,231,1,686,Incorrect,12,934
12,CZCZC,113,1,701,Correct,12,693
12,LZLZL,152,1,703,Correct,12,927
12,VLVPV,161,2,438,Correct,12,787
12,VYVYO,225,2,719,Incorrect,12,664
12,XKXKX,113,1,854,Correct,12,883
12,RTRTR,193,1,602,Correct,12,699
12,KVKCK,16,2,595,Correct,12,878
12,ROROR,101,3,618,Correct,12,934
12,PRPRP,13,1,1128,Correct,12,753
12,LYLVL,161,2,556,Correct,12,923
12,PLPLP,151,1,520,Correct,12,841
12,CTCTC,194,1,804,Correct,12,870
12,XZXYX,16,2,630,Correct,12,854
12,NKNKN,151,1,899,Correct,12,769
12,VLVZV,161,2,626,Correct,12,800
12,YOYOY,11,3,624,Correct,12,671
12,PZOZP,223,1,1051,Correct,12,781
12,FYFYF,113,1,666,Correct,12,660
12,ZXZVZ,161,2,599,Correct,12,749
12,VKVZV,162,2,707,Correct,12,823
12,ZTZTZ,195,1,635,Correct,12,785
12,LKLZL,16,2,618,Correct,12,652
12,KCKVK,162,2,760,Correct,12,743
12,PXPKP,163,2,478,Correct,12,694
12,KCOZK,233,2,764,Correct,12,906
12,FKFKF,113,1,694,Correct,12,671
12,CTCRC,176,2,605,Correct,12,934
12,NXNXN,15,1,742,Correct,12,915
12,KXKVK,161,2,701,Correct,12,783
12,CPCOC,122,3,907,Correct,12,704
13,H,5,3,6850,New Target,13,662
13,VFVNV,151,2,1012,Incorrect,13,815
13,YVYVY,152,1,568,Correct,13,901
13,XVXVX,153,2,867,Incorrect,13,918
13,NRNXN,161,2,645,Correct,13,694
13,PZPKP,162,2,734,Correct,13,929
13,HLVLV,221,1,1320,Correct,13,736
13,CXCZC,222,2,757,Correct,13,863
13,LHLYL,71,3,625,Correct,13,679
13,YKYFY,14,2,1121,Correct,13,681
13,YOYRY,171,2,1088,Correct,13,662
13,ZKZYZ,16,2,476,Correct,13,739
13,RZRZR,151,1,529,Correct,13,771
13,NFNYN,161,2,441,Correct,13,894
13,KVKFK,162,2,565,Correct,13,902
13,XFXYX,163,2,518,Correct,13,781
13,LKLVL,164,2,461,Correct,13,946
13,NLNLN,151,2,427,Incorrect,13,923
13,XCXOX,182,2,726,Correct,13,669
13,FXFXF,15,1,1002,Correct,13,872
13,VHVHV,8,3,459,Correct,13,757
13,PVPVP,13,1,493,Correct,13,751
13,CRCXC,161,2,719,Correct,13,754
13,NXNXN,151,1,693,Correct,13,913
13,XRXRX,152,1,621,Correct,13,735
13,YFYXY,161,2,651,Correct,13,686
13,ZOZOZ,193,2,536,Incorrect,13,757
13,RZRZR,15,1,790,Correct,13,848
13,FKFKF,152,1,767,Correct,13,736
13,PFPFP,153,1,565,Correct,13,728
13,XYXHX,92,3,1218,Correct,13,835
13,RZRKR,14,2,722,Correct,13,884
13,FLFLH,225,1,1077,Correct,13,880
13,KRKRK,113,1,749,Correct,13,855
13,ZVZNZ,161,2,678,Correct,13,752
13,ZOZOZ,194,1,1286,Correct,13,659
13,FZFZF,15,1,730,Correct,13,710
13,FHFKF,101,3,799,Correct,13,923
13,ZXHLZ,233,2,1268,Correct,13,719
13,FKFXF,222,1,798,Incorrect,13,664
13,CFCYC,162,2,705,Correct,13,844
13,ZXZVZ,163,2,789,Correct,13,862
13,KCKOK,185,2,778,Correct,13,715
13,ZXZVH,235,2,690,Correct,13,706
13,CKCKC,113,1,760,Correct,13,813
13,ZXZCZ,161,2,623,Correct,13,816
13,YVYVY,151,1,711,Correct,13,906
13,RVHVR,223,1,996,Correct,13,711
13,ZRZRZ,113,1,670,Correct,13,851
13,ZHZHZ,11,3,592,Correct,13,950
13,VZVZV,13,1,748,Correct,13,844
13,HZVRV,231,2,1225,Correct,13,727
13,FVFVF,113,1,637,Correct,13,707
13,RNRCR,161,2,568,Correct,13,851
13,COCOC,196,3,660,Incorrect,13,791
13,VNVXV,16,2,977,Correct,13,717
13,XHXHX,12,3,477,Correct,13,825
14,G,5,3,1468,New Target,14,707
14,FZFZF,151,1,906,Correct,14,704
14,RPRVR,161,2,963,Correct,14,919
14,XCXCX,151,1,733,Correct,14,919
14,YXYXY,152,1,596,Correct,14,780
14,KZKZK,153,1,541,Correct,14,869
14,RYRKR,161,2,609,Correct,14,698
14,FYFNF,162,2,571,Correct,14,793
14,VKVKV,151,1,583,Correct,14,825
14,KPGPK,223,1,723,Correct,14,821
14,YNYNY,113,2,540,Incorrect,14,801
14,VYVYV,152,1,572,Correct,14,788
14,YCYXY,161,2,527,Correct,14,679
14,LKLGL,72,3,851,Correct,14,674
14,VXVXV,13,1,602,Correct,14,673
14,KCKVK,161,2,644,Correct,14,833
14,YKYKY,151,1,657,Correct,14,700
14,RHRXR,171,2,575,Correct,14,699
14,FVFCF,16,2,544,Correct,14,655
14,YXYGY,82,3,848,Correct,14,735
14,CLCLC,13,1,639,Correct,14,927
14,ZXZCZ,161,2,509,Correct,14,650
14,VLVFV,162,2,534,Correct,14,879
14,CPCPG,225,1,689,Correct,14,912
14,KHKNK,172,2,521,Correct,14,754
14,ZKZVZ,16,2,555,Correct,14,760
14,YKYLY,162,2,541,Correct,14,681
14,CNCNC,151,1,600,Correct,14,831
14,PGPGP,9,3,537,Correct,14,664
14,VPVPV,13,1,578,Correct,14,947
14,FXGRF,233,2,429,Correct,14,843
14,CYCVC,222,2,699,Correct,14,883
14,FNFNF,151,1,630,Correct,14,742
14,KFKCK,161,2,671,Correct,14,902
14,ZFZHZ,183,2,775,Correct,14,778
14,NXNXN,15,2,593,Incorrect,14,662
14,FNFNF,152,1,551,Correct,14,923
14,LXLNG,235,2,950,Correct,14,839
14,XKXVX,222,2,564,Correct,14,826
14,ZHZHZ,194,1,722,Correct,14,793
14,PFPFP,15,1,719,Correct,14,692
14,ZYZYZ,152,1,778,Correct,14,695
14,XPXVX,161,2,705,Correct,14,793
14,YCYCY,151,1,520,Correct,14,861
14,RGRGR,10,3,691,Correct,14,827
14,VRVRV,13,1,602,Correct,14,812
14,PKPNP,161,2,876,Correct,14,713
14,XGXGX,11,3,543,Correct,14,705
14,GZYVY,231,2,499,Correct,14,710
14,VCVNV,222,2,1251,Correct,14,785
14,VHVHV,195,1,483,Correct,14,892
14,LXLNL,16,2,435,Correct,14,800
14,GKPKP,221,1,918,Correct,14,786
14,XRXPX,222,1,739,Incorrect,14,905
14,XNXNX,151,1,545,Correct,14,661
14,KHKNK,176,1,572,Correct,14,850
14,RZRZR,15,2,632,Incorrect,14,804
14,CGCFC,121,2,756,Incorrect,14,812
15,A,5,3,3665,New Target,15,840
15,XRXFX,161,2,787,Correct,15,662
15,RXRKR,162,2,896,Correct,15,898
15,YRYRY,151,1,582,Correct,15,700
15,XPXPX,152,1,756,Correct,15,757
15,RPRPR,153,1,677,Correct,15,916
15,NCNCN,154,1,578,Correct,15,708
15,RXRZR,161,2,648,Correct,15,947
15,NANAN,7,3,769,Correct,15,879
15,KCKYK,14,2,739,Correct,15,893
15,XKXFX,162,2,890,Correct,15,806
15,ZLZKZ,163,2,580,Correct,15,914
15,VCVZV,164,2,630,Correct,15,676
15,XCXVX,165,2,591,Correct,15,852
15,LKLZA,235,2,1072,Correct,15,672
15,NCNCN,113,3,571,Incorrect,15,757
15,YGYGY,191,1,633,Correct,15,767
15,VLVLV,15,2,597,Incorrect,15,764
15,XRXRX,152,1,626,Correct,15,749
15,KAKPK,81,3,913,Correct,15,738
15,YZAZY,233,1,944,Incorrect,15,856
15,CFCFC,113,1,859,Correct,15,825
15,VNVLV,161,2,709,Correct,15,671
15,KPKVK,162,2,678,Correct,15,916
15,NCNRN,163,2,576,Correct,15,824
15,FGFGF,192,1,967,Correct,15,913
15,RCRYR,16,2,613,Correct,15,833
15,KRKCK,162,2,975,Correct,15,846
15,CRCRC,151,1,731,Correct,15,847
15,XPAPX,223,1,783,Correct,15,897
15,LPLXL,222,2,730,Correct,15,689
15,CGCVC,173,2,755,Correct,15,680
15,FKFZF,16,2,638,Correct,15,671
15,CACAC,9,3,610,Correct,15,943
15,XCXCX,13,1,635,Correct,15,907
15,AXRXR,221,1,948,Correct,15,784
15,NKNRN,222,2,867,Correct,15,836
15,KNKFK,162,2,931,Correct,15,879
15,KAKAK,10,3,639,Correct,15,890
15,ZCZRZ,14,2,663,Correct,15,902
15,RPRPR,151,1,1424,Correct,15,797
15,NCNCN,152,1,680,Correct,15,826
15,RYRGR,184,2,470,Correct,15,726
15,VPVPV,15,1,630,Correct,15,769
15,RCRCA,225,1,638,Correct,15,871
15,KXKPK,222,2,659,Correct,15,902
15,NPNPN,151,1,696,Correct,15,868
15,YCYCY,152,1,626,Correct,15,718
15,PXPAP,112,3,869,Correct,15,671
15,ZCZNZ,14,2,601,Correct,15,713
15,KYKGK,185,2,643,Correct,15,895
15,ANLPL,231,2,806,Correct,15,914
15,CXCPC,222,2,591,Correct,15,722
15,YRYRY,151,1,700,Correct,15,752
15,LGLGL,196,1,759,Correct,15,761
15,VYVLV,16,2,633,Correct,15,889
15,KVKVK,151,1,747,Correct,15,705
15,RKRKR,152,1,786,Correct,15,729
15,VXVXV,153,1,595,Correct,15,905
15,XAXAX,12,3,831,Correct,15,736
