Trial No,Stimulus,Trigger,Response,Response Time(ms),Correct,Block,Fixation Duration
Practice
OT Practice
1,SKSKS,15,1,1107,Correct,0,933
1,DLDUD,16,1,1096,False,0,919
1,PDPGP,16,1,884,False,0,771
1,MWMWM,15,1,1268,Correct,0,813
1,FTFTF,15,1,1269,Correct,0,909
1,AXAMA,16,,,False,0,843
1,RYRGR,16,1,855,False,0,924
1,DODOD,15,1,935,Correct,0,929
1,QTQAQ,16,2,818,Correct,0,936
1,YEYEY,15,1,703,Correct,0,679
2,GYGDG,16,2,1317,Correct,0,936
2,SWSWS,15,1,528,Correct,0,935
2,HLHUH,16,2,1109,Correct,0,667
2,DEDED,15,1,627,Correct,0,698
2,ZPZOZ,16,2,881,Correct,0,756
2,ATATA,15,1,821,Correct,0,767
2,QOQOQ,15,1,768,Correct,0,692
2,FPFGF,16,2,641,Correct,0,856
2,TRTET,16,2,812,Correct,0,782
2,DQDQD,15,1,877,Correct,0,931
4,PLPLP,15,1,1240,Correct,0,694
4,ATAIA,16,2,991,Correct,0,751
4,SKSGS,16,2,715,Correct,0,875
4,ZYZYZ,15,1,497,Correct,0,908
4,QSQSQ,15,2,498,False,0,784
4,TZTDT,16,2,695,Correct,0,693
4,JYJGJ,16,2,594,Correct,0,821
4,DYDYD,15,1,691,Correct,0,760
4,LTLCL,16,2,803,Correct,0,687
4,FQFEF,16,2,654,Correct,0,737
AT Practice
1,TKTKT,15,,,False,0,784
1,SLSUS,16,1,791,False,0,843
1,VZVGV,7,2,826,False,0,829
1,XWXZX,7,,,False,0,889
1,ATATA,15,1,644,Correct,0,803
1,HXZMH,16,2,1332,Correct,0,703
1,TZTZT,7,3,923,Correct,0,667
1,UOUOU,15,1,970,Correct,0,854
1,ZTWAW,16,2,902,Correct,0,949
1,RZRER,7,3,775,Correct,0,798
2,JYJDJ,16,2,1000,Correct,0,800
2,DWDWD,15,1,610,Correct,0,901
2,GNGNG,7,3,636,Correct,0,913
2,NEZEZ,16,2,785,False,0,946
2,RNROR,7,3,1344,Correct,0,939
2,QTQNQ,7,2,966,False,0,708
2,HOHON,15,1,1321,Correct,0,692
2,KPKGK,16,2,1098,Correct,0,808
2,DRDED,16,2,1144,Correct,0,691
2,LNLNL,7,3,973,Correct,0,880
4,GLGLG,15,1,772,Correct,0,696
4,DTDID,16,2,771,Correct,0,677
4,SMSGS,16,2,1112,Correct,0,812
4,ZFZYZ,7,3,1104,Correct,0,844
4,TSTFT,7,,,False,0,879
4,OFOFO,7,1,723,False,0,696
4,WYFGW,16,2,918,Correct,0,918
4,WYWYW,15,1,1035,Correct,0,728
4,MFMCM,7,2,1172,False,0,881
4,HQHEH,16,2,1101,Correct,0,777
1,TKTKT,15,1,1016,Correct,0,708
1,SLSUS,16,1,987,False,0,658
1,VZVGV,7,2,1175,False,0,900
1,XWXZX,7,,,False,0,662
1,ATATA,15,1,1157,Correct,0,869
1,HXZMH,16,3,941,False,0,784
1,TZTZT,7,3,975,Correct,0,841
1,UOUOU,15,1,1288,Correct,0,931
1,ZTWAW,16,2,1341,Correct,0,748
1,RZRER,7,3,962,Correct,0,651
2,JYJDJ,16,2,942,Correct,0,742
2,DWDWD,15,3,1168,False,0,729
2,GNGNG,7,3,918,Correct,0,795
2,NEZEZ,16,,,False,0,781
2,RNROR,7,3,976,Correct,0,819
2,QTQNQ,7,1,908,False,0,879
2,HOHON,15,3,1226,False,0,905
2,KPKGK,16,2,893,Correct,0,928
2,DRDED,16,2,1088,Correct,0,798
2,LNLNL,7,3,650,Correct,0,824
4,GLGLG,15,1,898,Correct,0,924
4,DTDID,16,2,991,Correct,0,934
4,SMSGS,16,2,1073,Correct,0,684
4,ZFZYZ,7,3,957,Correct,0,772
4,TSTFT,7,2,841,False,0,872
4,OFOFO,7,1,816,False,0,757
4,WYFGW,16,3,818,False,0,853
4,WYWYW,15,1,886,Correct,0,866
4,MFMCM,7,1,1146,False,0,735
4,HQHEH,16,2,1106,Correct,0,789
1,TKTKT,15,1,809,Correct,0,650
1,SLSUS,16,1,833,False,0,754
1,VZVGV,7,2,776,False,0,761
1,XWXZX,7,3,899,Correct,0,683
1,ATATA,15,1,645,Correct,0,800
1,HXZMH,16,3,589,False,0,902
1,TZTZT,7,3,682,Correct,0,823
1,UOUOU,15,1,821,Correct,0,773
1,ZTWAW,16,3,752,False,0,708
1,RZRER,7,1,803,False,0,874
2,JYJDJ,16,2,757,Correct,0,867
2,DWDWD,15,1,975,Correct,0,755
2,GNGNG,7,1,817,False,0,737
2,NEZEZ,16,1,886,Correct,0,764
2,RNROR,7,3,1178,Correct,0,782
2,QTQNQ,7,1,834,False,0,805
2,HOHON,15,2,1477,False,0,913
2,KPKGK,16,1,922,False,0,919
2,DRDED,16,1,1324,False,0,778
2,LNLNL,7,3,856,Correct,0,946
4,GLGLG,15,1,758,Correct,0,908
4,DTDID,16,2,1242,Correct,0,843
4,SMSGS,16,2,910,Correct,0,846
4,ZFZYZ,7,3,844,Correct,0,940
4,TSTFT,7,3,1311,Correct,0,870
4,OFOFO,7,1,1395,False,0,720
4,WYFGW,16,,,False,0,828
4,WYWYW,15,1,1340,Correct,0,753
4,MFMCM,7,3,1368,Correct,0,919
4,HQHEH,16,2,1349,Correct,0,927
Trials
1,D,5,3,19903,New Target,1,747
1,ZNZYZ,161,1,970,Incorrect,1,722
1,FZFZF,151,,,Incorrect,1,826
1,RKRKR,152,1,1276,Correct,1,740
1,RXRNR,161,2,1256,Correct,1,664
1,CNCFC,162,1,1246,Incorrect,1,879
1,PDPDP,7,3,889,Correct,1,757
1,CPCFC,14,2,1301,Correct,1,690
1,VLVNV,162,3,1527,Incorrect,1,939
1,KFKFK,151,,,Incorrect,1,927
1,ZNZNZ,152,3,1256,Incorrect,1,822
1,KCKPD,235,2,1454,Correct,1,835
1,ZKZFZ,222,1,1068,Incorrect,1,910
1,NRNZN,162,,,Incorrect,1,883
1,KXKRK,163,1,1474,Incorrect,1,875
1,YPYZY,164,1,1220,Incorrect,1,751
1,FKDKF,223,2,813,Incorrect,1,808
1,RPRPR,113,1,1267,Correct,1,890
1,VRVKV,161,2,1220,Correct,1,938
1,RFRPR,162,1,1485,Incorrect,1,765
1,KVKVK,151,1,1116,Correct,1,862
1,YKYVY,161,2,1397,Correct,1,890
1,VDVDV,8,3,1039,Correct,1,652
1,DVZVZ,221,2,1375,Incorrect,1,845
1,YFYFY,113,1,1126,Correct,1,748
1,ZYZYZ,152,1,1123,Correct,1,840
1,VLVXV,161,2,844,Correct,1,884
1,DPXZX,231,,,Incorrect,1,795
1,RYRYR,113,1,1166,Correct,1,784
1,PDPNP,91,3,652,Correct,1,723
1,KXKXK,13,1,1000,Correct,1,889
1,ZYZYZ,152,1,899,Correct,1,924
1,VKVKV,153,1,1162,Correct,1,731
1,YZYZY,154,1,1322,Correct,1,658
1,NLNZN,161,1,1265,Incorrect,1,738
1,ZNDYZ,233,,,Incorrect,1,914
1,PCPXP,222,,,Incorrect,1,731
1,ZVZFZ,162,1,1387,Incorrect,1,825
1,RCRZR,163,,,Incorrect,1,802
1,LRLRL,151,1,981,Correct,1,907
1,ZDZDZ,10,3,827,Correct,1,693
1,RNRZR,14,1,942,Incorrect,1,907
1,CXCYC,162,1,919,Incorrect,1,774
1,RCRLR,163,2,949,Correct,1,930
1,FRFRF,151,1,979,Correct,1,918
1,XFXFX,152,1,1012,Correct,1,838
1,RPRLR,161,1,1437,Incorrect,1,653
1,YXYRY,162,2,799,Correct,1,740
1,FYFYF,151,1,728,Correct,1,808
1,YZYVY,161,1,887,Incorrect,1,747
1,YKYKY,151,1,910,Correct,1,820
1,XRXRX,152,1,1030,Correct,1,718
1,XVXZX,161,1,929,Incorrect,1,949
1,PDPDP,11,1,884,Incorrect,1,940
1,ZFZFZ,13,1,776,Correct,1,853
1,PXPXP,152,1,1157,Correct,1,749
1,LYLYL,153,1,758,Correct,1,708
1,NKNKD,225,1,755,Correct,1,711
1,ZNZNZ,113,1,687,Correct,1,782
1,PYPZP,161,1,1439,Incorrect,1,719
1,XPXPX,151,1,896,Correct,1,830
1,VLVLV,152,1,1064,Correct,1,707
1,PKPXP,161,1,1272,Incorrect,1,804
1,FZFZF,151,1,944,Correct,1,826
1,LDLDL,12,1,867,Incorrect,1,854
2,U,5,3,13432,New Target,2,937
2,ZVZFZ,161,1,938,Incorrect,2,908
2,FZFZF,151,1,948,Correct,2,689
2,RFRFR,152,1,1365,Correct,2,891
2,NZNKN,161,,,Incorrect,2,933
2,FZFNF,162,1,1133,Incorrect,2,738
2,RXRXR,151,,,Incorrect,2,907
2,KRKYK,161,2,1488,Correct,2,771
2,NZNPN,162,,,Incorrect,2,902
2,XPXPX,151,1,1192,Correct,2,792
2,CUCUC,7,1,658,Incorrect,2,713
2,RFRFR,13,1,1442,Correct,2,759
2,VYVXV,161,2,1138,Correct,2,804
2,VDVDV,191,1,874,Correct,2,886
2,ZKZRZ,15,2,1392,Correct,2,828
2,XCXCX,151,,,Incorrect,2,876
2,CNCUC,82,,,Incorrect,2,762
2,RCRCR,13,1,848,Correct,2,931
2,ZPZXZ,161,2,774,Correct,2,828
2,FKFYF,162,1,953,Incorrect,2,936
2,ZFZYZ,163,,,Incorrect,2,801
2,PXPXP,151,1,741,Correct,2,855
2,URCKC,231,3,945,Incorrect,2,799
2,PCPCP,113,1,821,Correct,2,772
2,XNXNX,152,1,1165,Correct,2,815
2,RCRZR,161,1,1464,Incorrect,2,759
2,XVXVX,151,1,1275,Correct,2,749
2,NRNRN,152,3,885,Incorrect,2,737
2,FPFPF,225,1,1085,Correct,2,740
2,XVXFX,222,2,742,Correct,2,901
2,PRPRP,151,1,1168,Correct,2,876
2,FYFCF,161,2,1022,Correct,2,748
2,XUXFX,91,3,977,Correct,2,736
2,CYCVC,14,2,1320,Correct,2,703
2,VDVKV,172,2,1580,Correct,2,820
2,YCYCY,15,1,882,Correct,2,944
2,NKNLN,161,,,Incorrect,2,810
2,XPUKX,233,3,802,Incorrect,2,781
2,ZPZPZ,113,1,921,Correct,2,858
2,KRKRK,152,1,899,Correct,2,652
2,XKXKX,153,1,1544,Correct,2,801
2,YUYVY,101,3,563,Correct,2,886
2,XKXFU,235,2,1081,Correct,2,784
2,NFNFN,113,1,753,Correct,2,945
2,KDKDK,193,1,875,Correct,2,890
2,XYXKX,16,2,1184,Correct,2,840
2,YZUZY,223,3,1485,Incorrect,2,697
2,KFKVK,222,2,1069,Correct,2,807
2,LYLYL,151,1,974,Correct,2,778
2,CXCDC,184,2,981,Incorrect,2,723
2,XZXNX,16,2,1304,Correct,2,770
2,PXPXP,151,1,1204,Correct,2,706
2,ZRZYZ,161,2,1106,Correct,2,696
2,PUPYP,111,3,506,Correct,2,932
2,RNRNR,14,1,729,Correct,2,899
2,KDKDK,195,1,919,Correct,2,750
2,KNKNK,15,1,952,Correct,2,923
2,PRPKP,161,2,1262,Correct,2,721
2,UNYNY,221,3,881,Incorrect,2,901
2,NYNYN,113,1,727,Correct,2,802
2,YXYXY,152,1,961,Incorrect,2,891
2,RDRDR,196,1,918,Correct,2,785
2,FCFCF,15,1,1257,Correct,2,814
2,ZKZKZ,152,1,1157,Correct,2,755
2,ZUZUZ,12,3,531,Correct,2,673
3,E,5,3,2174,New Target,3,688
3,YZYZY,151,1,676,Correct,3,683
3,VFVNV,161,,,Incorrect,3,675
3,KYKYK,151,1,1122,Correct,3,840
3,NKNKN,152,1,1050,Correct,3,897
3,XVXNX,161,2,760,Correct,3,887
3,RERFR,71,,,Incorrect,3,855
3,XNXNX,13,1,858,Correct,3,939
3,NXNXN,152,2,741,Incorrect,3,670
3,ZLZNZ,161,1,942,Incorrect,3,899
3,CUCNC,171,1,866,Incorrect,3,853
3,FYFRF,16,,,Incorrect,3,798
3,ZLZLZ,151,1,653,Correct,3,950
3,YZYZY,152,,,Incorrect,3,950
3,CYCYC,153,1,1039,Correct,3,858
3,VUVUV,192,1,1007,Correct,3,826
3,PXPRP,16,2,838,Correct,3,722
3,YPYPY,151,1,1591,Correct,3,936
3,CECEC,8,1,785,Incorrect,3,871
3,VNENV,223,1,1452,Correct,3,774
3,KRKFK,222,2,1418,Correct,3,843
3,XLXLE,225,2,1578,Incorrect,3,832
3,RFRUR,183,,,Incorrect,3,870
3,XRXLX,16,1,1147,Incorrect,3,888
3,NZNPN,162,,,Incorrect,3,833
3,XZXZX,151,1,911,Correct,3,819
3,FZFZF,152,1,1075,Correct,3,842
3,PFPFP,153,1,864,Correct,3,850
3,YZYXY,161,2,1079,Correct,3,784
3,KEKEK,9,3,837,Correct,3,846
3,CXCPC,14,2,1337,Correct,3,923
3,VXVXV,151,2,862,Incorrect,3,826
3,NUNZN,174,1,1329,Incorrect,3,915
3,RKRVR,16,2,1217,Correct,3,902
3,XRXRX,151,1,757,Correct,3,900
3,ERNFN,231,,,Incorrect,3,932
3,YRYNY,222,2,1514,Correct,3,719
3,PZPEP,102,,,Incorrect,3,938
3,ZYZXZ,14,2,1322,Correct,3,884
3,RZRVR,162,2,1071,Correct,3,861
3,XRXRX,151,1,962,Correct,3,708
3,KUKFK,175,,,Incorrect,3,936
3,RKRKR,15,1,1345,Correct,3,650
3,ZFZFZ,152,1,922,Correct,3,745
3,YZYVY,161,,,Incorrect,3,794
3,XPXNX,162,,,Incorrect,3,725
3,YRYRY,151,1,857,Correct,3,792
3,EPVPV,221,,,Incorrect,3,841
3,CRCEC,112,3,1354,Correct,3,819
3,RFRCR,14,,,Incorrect,3,807
3,CPCVC,162,,,Incorrect,3,718
3,RXRCR,163,2,1004,Correct,3,665
3,VNVLV,164,1,975,Incorrect,3,735
3,ZXZXZ,151,1,1489,Correct,3,842
3,ZCZCZ,152,1,1100,Correct,3,902
3,PYPUP,186,2,1002,Correct,3,762
3,YKYPY,16,1,1369,Incorrect,3,896
3,YREXY,233,2,1439,Correct,3,684
3,ZKZKZ,113,1,895,Correct,3,796
3,XLXNX,161,1,1194,Incorrect,3,675
3,KFKRE,235,2,995,Correct,3,814
3,RXRLR,222,,,Incorrect,3,741
3,RERXR,121,3,816,Correct,3,867
4,J,5,3,2350,New Target,4,891
4,CYCVC,161,1,1324,Incorrect,4,790
4,RXRCR,162,2,797,Correct,4,901
4,FPFVF,163,2,1533,Correct,4,677
4,LZLZL,151,1,824,Correct,4,914
4,PLPLP,152,1,1001,Correct,4,938
4,NPNPN,153,1,981,Correct,4,930
4,XZXZX,161,1,952,Incorrect,4,815
4,CNCKC,162,1,944,Incorrect,4,701
4,PCPYJ,235,2,1108,Correct,4,772
4,VYVYV,113,1,1101,Correct,4,907
4,RLRLR,152,1,894,Correct,4,683
4,CJCJC,7,3,927,Correct,4,890
4,ZLZLZ,13,1,1207,Correct,4,778
4,FZFZF,152,1,1396,Correct,4,763
4,CFCFC,153,,,Incorrect,4,681
4,PZPZP,154,1,1107,Correct,4,878
4,XEXEX,191,1,1090,Correct,4,774
4,NVNFN,16,2,1108,Correct,4,750
4,KYKYK,151,1,732,Correct,4,918
4,ZNZVZ,161,1,936,Incorrect,4,828
4,YVJXY,233,3,1424,Incorrect,4,793
4,XFXFX,113,1,880,Correct,4,759
4,XNXNX,152,1,788,Correct,4,883
4,FJFKF,81,2,1247,Incorrect,4,741
4,CZCYC,14,2,1267,Correct,4,860
4,ZXZCZ,162,1,798,Incorrect,4,728
4,RYRYJ,225,,,Incorrect,4,684
4,FPFZF,222,2,1475,Correct,4,866
4,XRXRX,151,1,873,Correct,4,663
4,YPYEY,182,2,1334,Correct,4,658
4,XRXRX,15,1,712,Correct,4,853
4,XZXPX,161,2,802,Correct,4,932
4,CJCJC,9,3,836,Correct,4,932
4,ZXZVZ,14,2,967,Correct,4,897
4,VKVKV,151,1,1148,Correct,4,767
4,VEVNV,173,2,964,Correct,4,940
4,ZKZVZ,16,1,778,Incorrect,4,743
4,XVXJX,102,3,930,Correct,4,920
4,RXRVR,14,2,985,Correct,4,716
4,LRLRL,151,1,641,Correct,4,683
4,YNJNY,223,3,1104,Incorrect,4,810
4,NPNJN,222,3,910,Incorrect,4,788
4,ZEZEZ,194,1,755,Correct,4,792
4,ZNZNZ,15,1,795,Correct,4,925
4,YZYZY,152,1,1327,Correct,4,923
4,XYXYX,153,1,760,Correct,4,721
4,ZXZXZ,221,1,741,Correct,4,773
4,LYLZL,222,2,1221,Correct,4,715
4,CYCNC,162,1,671,Incorrect,4,797
4,XEXEX,195,1,880,Correct,4,762
4,CVCXC,16,1,903,Incorrect,4,748
4,ZPZXZ,162,2,1105,Correct,4,714
4,FZFZF,151,1,957,Correct,4,839
4,RXRJR,112,2,789,Incorrect,4,684
4,PRPFP,14,2,1054,Correct,4,857
4,PKPEP,186,2,1279,Correct,4,741
4,XZXPX,16,2,884,Correct,4,827
4,JCZVZ,231,1,1200,Incorrect,4,697
4,RXRLR,222,,,Incorrect,4,926
4,VZVZV,151,1,835,Correct,4,779
4,XJXJX,12,3,716,Correct,4,797
5,I,5,3,1937,New Target,5,807
5,PCPCP,151,1,1292,Correct,5,770
5,XYXYX,152,1,712,Correct,5,687
5,VXVXV,153,2,1237,Incorrect,5,774
5,XVXVX,154,1,685,Correct,5,813
5,ZRZXZ,161,2,1111,Correct,5,901
5,FPFZF,162,1,1064,Incorrect,5,733
5,ZYZYZ,151,1,681,Correct,5,766
5,RVRZR,161,2,1379,Correct,5,918
5,CICIC,7,1,951,Incorrect,5,745
5,XLXLX,13,1,1183,Correct,5,732
5,YVYVY,152,1,728,Correct,5,803
5,CJCJC,191,1,1399,Correct,5,723
5,FNFCF,16,1,748,Incorrect,5,707
5,PVPRP,162,2,841,Correct,5,730
5,FZFZF,151,1,803,Correct,5,699
5,NVIVN,223,,,Incorrect,5,809
5,CVCIC,82,2,1420,Incorrect,5,677
5,ZXZXZ,13,1,683,Correct,5,843
5,FCFZF,161,2,1228,Correct,5,689
5,IXRXR,221,2,1422,Incorrect,5,922
5,ZPZNZ,222,1,769,Incorrect,5,745
5,VZVZV,151,1,1195,Correct,5,816
5,YRYNY,161,,,Incorrect,5,866
5,VNVPV,162,1,1214,Incorrect,5,774
5,RVRJR,182,,,Incorrect,5,943
5,VRVRV,15,1,1106,Correct,5,672
5,VIVIV,9,3,806,Correct,5,699
5,CXCVC,14,2,1226,Correct,5,927
5,PZPZP,151,1,1078,Correct,5,772
5,IXVKV,231,1,1327,Incorrect,5,910
5,YJYCY,173,2,1076,Incorrect,5,825
5,VYVYV,15,1,910,Correct,5,893
5,YVYVY,152,1,782,Correct,5,886
5,NVNVN,153,1,1159,Correct,5,856
5,XYXVX,161,1,947,Incorrect,5,841
5,NJNCN,174,2,1048,Correct,5,814
5,NXNYN,16,,,Incorrect,5,920
5,VXVCV,162,2,1180,Correct,5,809
5,ZKZKZ,151,1,697,Correct,5,797
5,XRXYX,161,2,839,Correct,5,820
5,ZCZXZ,162,2,1237,Correct,5,672
5,KVKYI,235,2,1467,Correct,5,912
5,CNCNC,113,1,827,Correct,5,790
5,RIRIR,10,1,831,Incorrect,5,907
5,VYVXV,14,,,Incorrect,5,808
5,FXIRF,233,,,Incorrect,5,659
5,PFPFP,113,1,881,Correct,5,781
5,VPVPV,152,1,947,Correct,5,948
5,ZJZJZ,195,1,933,Correct,5,815
5,ZVZNZ,16,,,Incorrect,5,762
5,YVYXY,162,2,1350,Correct,5,841
5,PRPRP,151,1,1006,Correct,5,762
5,YPYPY,152,1,1233,Correct,5,735
5,ZIZPZ,111,2,1322,Incorrect,5,808
5,NKNXN,14,1,1122,Incorrect,5,772
5,RZRXR,162,2,1489,Correct,5,798
5,RXRXR,151,2,1252,Incorrect,5,739
5,ZJZJZ,196,1,856,Correct,5,929
5,CVCVI,225,1,1211,Incorrect,5,926
5,NKNKN,113,1,820,Correct,5,867
5,NRNZN,161,1,941,Incorrect,5,845
5,CNCNC,151,1,695,Correct,5,652
5,RFRIR,122,3,1035,Correct,5,666
6,B,5,3,2454,New Target,6,690
6,YKYZY,161,1,849,Incorrect,6,694
6,VCVRV,162,2,1254,Correct,6,809
6,XVXVX,151,1,770,Correct,6,663
6,KZKRK,161,2,1055,Correct,6,746
6,ZVZXZ,162,2,1057,Correct,6,767
6,RCRNR,163,2,1247,Correct,6,791
6,CXCRC,164,1,677,Incorrect,6,816
6,VNBCV,233,1,1273,Incorrect,6,659
6,CXCVC,222,1,688,Incorrect,6,831
6,RFRFR,151,1,691,Correct,6,668
6,XPXRX,161,1,1215,Incorrect,6,819
6,RYRBR,72,2,735,Incorrect,6,666
6,ZKZKZ,13,1,806,Correct,6,902
6,FIFRF,171,2,1261,Correct,6,847
6,VZVLV,16,,,Incorrect,6,933
6,RPRVR,162,2,1535,Correct,6,710
6,YBYBY,8,3,995,Correct,6,676
6,PYPVP,14,2,1503,Correct,6,923
6,NININ,192,1,817,Correct,6,677
6,RNRNR,15,1,1165,Correct,6,744
6,NXNVN,161,2,747,Correct,6,685
6,RNRNR,151,1,1026,Correct,6,922
6,FRFVF,161,2,846,Correct,6,890
6,YVYFB,235,2,1508,Incorrect,6,921
6,ZRZXZ,222,2,1504,Correct,6,899
6,VNVIV,193,1,671,Correct,6,846
6,PXPNP,16,2,1562,Correct,6,845
6,ZXZPZ,162,2,1313,Correct,6,922
6,VBVBV,9,3,636,Correct,6,653
6,CXCXC,13,1,871,Correct,6,908
6,PCPFP,161,2,682,Correct,6,911
6,KNKNK,151,1,1034,Correct,6,760
6,XIXIX,194,1,641,Correct,6,650
6,CYCYC,15,1,966,Correct,6,678
6,FVFYF,161,2,845,Correct,6,677
6,YNYRY,162,2,1130,Correct,6,697
6,BVPXP,231,2,1354,Correct,6,762
6,NXNXN,113,1,843,Correct,6,893
6,FRFRF,152,1,894,Correct,6,891
6,YVYVY,153,1,705,Correct,6,911
6,ZKZCZ,161,2,908,Correct,6,850
6,VIVXV,175,2,933,Correct,6,737
6,PRBRP,223,2,1420,Incorrect,6,830
6,YZYBY,102,3,976,Correct,6,664
6,CXCVC,14,2,889,Correct,6,664
6,FYFYF,151,1,1199,Correct,6,810
6,VKVXV,161,2,1528,Correct,6,825
6,ZBZBZ,11,3,651,Correct,6,669
6,FPFNF,14,2,1065,Correct,6,851
6,CXCXC,151,1,523,Correct,6,668
6,YCYCY,152,1,767,Correct,6,836
6,FPFPF,153,1,799,Correct,6,656
6,CVCVB,225,2,905,Incorrect,6,822
6,ZCZCZ,113,1,1504,Correct,6,799
6,CZCNC,161,1,899,Incorrect,6,678
6,KIKFK,176,,,Incorrect,6,733
6,PXPXP,15,1,903,Correct,6,732
6,RYRYR,152,1,1037,Correct,6,818
6,ZRZCZ,161,2,1123,Correct,6,651
6,RVRVR,151,1,977,Correct,6,715
6,XYXNX,161,2,1460,Correct,6,739
6,BVKVK,221,2,959,Incorrect,6,931
6,CBCBC,12,3,902,Correct,6,750
7,W,5,3,3518,New Target,7,675
7,RKRKR,151,1,871,Correct,7,698
7,CVCRC,161,2,1395,Correct,7,705
7,PKPKP,151,1,1417,Correct,7,761
7,FPFPF,152,1,714,Correct,7,855
7,VRVPV,161,2,1279,Correct,7,948
7,ZKZYZ,162,2,1236,Correct,7,852
7,PVPCP,233,1,792,Incorrect,7,884
7,KVKVK,113,1,851,Correct,7,758
7,YXYVY,161,2,1023,Correct,7,703
7,FNFNF,151,1,1044,Correct,7,723
7,YWYWY,7,3,663,Correct,7,686
7,ZYZYZ,13,1,675,Correct,7,920
7,PYPYP,152,1,621,Correct,7,895
7,XRXRX,153,3,738,Incorrect,7,701
7,PXPXP,154,1,677,Correct,7,652
7,FCFBF,181,,,Incorrect,7,812
7,FVFVF,15,1,711,Correct,7,899
7,CYCZC,161,,,Incorrect,7,776
7,XZXVX,162,2,1390,Correct,7,854
7,PFPFP,151,1,711,Correct,7,652
7,RVRLR,161,2,901,Correct,7,787
7,ZBZBZ,192,3,855,Incorrect,7,941
7,VCVNV,16,2,1227,Correct,7,881
7,NWNWN,8,3,1041,Correct,7,849
7,XNXVX,14,,,Incorrect,7,893
7,CXCNC,162,2,1060,Correct,7,941
7,YVYVW,225,3,1535,Incorrect,7,900
7,VFVFV,113,1,1546,Correct,7,879
7,VFWFV,223,2,1247,Incorrect,7,949
7,CVCFC,222,2,1107,Correct,7,901
7,YBYBY,193,1,1378,Correct,7,797
7,PYPYP,15,1,952,Correct,7,658
7,NKNWN,91,,,Incorrect,7,677
7,VNVNV,13,1,1105,Correct,7,692
7,RVRVR,152,1,892,Correct,7,928
7,FVFBF,184,2,1262,Incorrect,7,894
7,VZVKV,16,2,951,Correct,7,812
7,VPVCV,162,2,922,Correct,7,853
7,WYZCZ,231,2,1280,Correct,7,825
7,PFPFP,113,1,634,Correct,7,708
7,PRPRP,152,1,1013,Correct,7,898
7,NWNWN,10,3,1004,Correct,7,663
7,VKVCV,14,2,947,Correct,7,660
7,WPYPY,221,,,Incorrect,7,892
7,VBVBV,195,1,1103,Correct,7,810
7,ZKZYZ,16,1,1164,Incorrect,7,841
7,XYXYX,151,1,933,Correct,7,866
7,FZFXF,161,2,1191,Correct,7,850
7,XKXKX,151,1,1123,Correct,7,751
7,XPXPX,152,1,948,Correct,7,715
7,FWFWF,11,3,678,Correct,7,778
7,FNFBF,186,1,868,Incorrect,7,792
7,ZVZYZ,16,1,1080,Incorrect,7,905
7,FZFZF,151,1,713,Correct,7,714
7,NPNFW,235,2,1398,Correct,7,769
7,PCPCP,113,1,714,Correct,7,761
7,NKNWN,122,3,1366,Correct,7,857
8,M,5,3,2829,New Target,8,889
8,VYVNV,161,2,1151,Correct,8,948
8,KLKNK,162,1,1054,Incorrect,8,729
8,NRNRN,151,1,1228,Correct,8,776
8,VNVFV,161,2,1178,Correct,8,658
8,XNXNM,225,,,Incorrect,8,835
8,CXCVC,222,2,1339,Correct,8,921
8,KRKZK,162,1,866,Incorrect,8,713
8,NMNFN,71,3,1198,Correct,8,700
8,ZFZFZ,13,1,1302,Correct,8,849
8,YPYCY,161,2,929,Correct,8,685
8,KCKCK,151,1,869,Correct,8,795
8,VNVNV,152,1,1083,Correct,8,858
8,LXLXL,153,1,1176,Correct,8,871
8,CLCLC,154,1,887,Correct,8,693
8,NYNYN,155,1,1403,Correct,8,803
8,LCMYL,233,2,1259,Correct,8,849
8,NCNCN,113,1,710,Correct,8,742
8,ZVZRZ,161,2,1271,Correct,8,756
8,ZVZVZ,151,1,1001,Correct,8,926
8,PZPVP,161,2,1287,Correct,8,939
8,PWPNP,171,,,Incorrect,8,658
8,KLKCM,235,2,1562,Correct,8,894
8,XMXMX,8,3,794,Correct,8,715
8,PRPXP,14,1,1103,Incorrect,8,885
8,CVCYC,162,1,653,Incorrect,8,770
8,PXPMP,92,3,1244,Correct,8,805
8,ZCZLZ,14,2,1169,Correct,8,949
8,XWXWX,192,,,Incorrect,8,839
8,ZCZLZ,16,2,1044,Correct,8,910
8,MNCYC,231,2,1221,Correct,8,777
8,ZXZXZ,113,1,891,Correct,8,841
8,YRYNY,161,2,1329,Correct,8,818
8,ZLZPZ,162,2,1314,Correct,8,933
8,VZVZV,151,1,1164,Correct,8,721
8,MXPXP,221,2,1160,Incorrect,8,759
8,VWVWV,193,1,977,Correct,8,917
8,PYPYP,16,1,724,Incorrect,8,731
8,XPXVX,162,2,1037,Correct,8,899
8,XLXLX,151,1,524,Correct,8,790
8,YMYMY,10,2,704,Incorrect,8,776
8,VYVYV,13,1,769,Correct,8,715
8,PWPZP,174,,,Incorrect,8,720
8,PYPKP,16,2,846,Correct,8,780
8,NPNXN,162,2,1235,Correct,8,898
8,KVKVK,223,1,1273,Correct,8,934
8,NVNFN,222,2,1374,Correct,8,815
8,XNXNX,151,1,817,Correct,8,795
8,YZYMY,112,3,826,Correct,8,752
8,PFPFP,13,1,660,Correct,8,798
8,ZWZWZ,195,1,898,Correct,8,805
8,PCPZP,16,1,1251,Incorrect,8,891
8,LRLPL,162,1,768,Incorrect,8,694
8,CZCZC,151,1,793,Correct,8,842
8,NZNZN,152,1,979,Correct,8,809
8,CVCXC,161,2,887,Correct,8,751
8,XCXCX,151,1,746,Correct,8,903
8,YWYWY,196,1,914,Correct,8,858
8,NLNLN,15,1,877,Correct,8,672
8,VNVNV,152,1,1056,Correct,8,868
8,ZMZMZ,12,3,510,Correct,8,807
9,S,5,3,2443,New Target,9,774
9,NZNZN,151,1,672,Correct,9,830
9,KVKZK,161,2,762,Correct,9,909
9,LZLZL,151,1,859,Correct,9,675
9,XLXLX,152,1,816,Correct,9,832
9,ZXZXZ,153,1,919,Correct,9,836
9,KNKZK,161,1,1192,Incorrect,9,897
9,NRNYN,162,2,1111,Correct,9,681
9,CLCVC,163,1,821,Incorrect,9,885
9,ZCZFZ,164,2,1052,Correct,9,748
9,NSNSN,7,1,774,Incorrect,9,938
9,VZVZV,13,1,965,Correct,9,717
9,NVNCN,161,2,878,Correct,9,682
9,VMVMV,191,2,1411,Incorrect,9,852
9,CVCXC,16,2,1063,Correct,9,715
9,ZYZRZ,162,2,1031,Correct,9,795
9,XNXZX,163,,,Incorrect,9,685
9,PXPXP,151,1,722,Correct,9,892
9,VCVSV,82,2,1326,Incorrect,9,796
9,PRPCP,14,2,1566,Correct,9,936
9,ZMZMZ,192,1,829,Incorrect,9,752
9,ZFZFZ,15,1,884,Correct,9,866
9,FCFCF,152,1,648,Correct,9,802
9,YLYZY,161,2,1076,Correct,9,862
9,KNKVK,162,,,Incorrect,9,659
9,SFPCP,231,2,1533,Correct,9,938
9,RPRPR,113,1,868,Correct,9,943
9,XMXMX,193,1,1070,Correct,9,740
9,KFKFK,15,1,755,Correct,9,662
9,VSVSV,9,3,505,Correct,9,932
9,YVSVY,223,2,1083,Incorrect,9,935
9,VPVPV,113,2,933,Incorrect,9,904
9,XZXZX,152,1,606,Correct,9,653
9,KZKXK,161,2,754,Correct,9,726
9,RFRPR,162,2,1065,Correct,9,878
9,NVNVS,225,2,1254,Incorrect,9,832
9,ZXZXZ,113,1,576,Correct,9,743
9,SRVRV,221,2,1108,Incorrect,9,717
9,YCYCY,113,1,1039,Correct,9,932
9,KMKZK,174,1,830,Incorrect,9,795
9,FZSVF,233,2,1496,Correct,9,775
9,VYVYV,113,1,1382,Correct,9,829
9,LVLVL,152,1,1077,Correct,9,893
9,YFYFY,153,1,881,Correct,9,822
9,NXNSN,102,3,893,Correct,9,696
9,FNFCF,14,1,998,Incorrect,9,752
9,KVKVK,151,1,954,Correct,9,721
9,VZVCV,161,2,1375,Correct,9,783
9,ZYZMZ,185,2,1205,Correct,9,729
9,VXVZV,16,2,864,Correct,9,794
9,VPVPV,151,1,744,Correct,9,710
9,RVRNS,235,2,1543,Correct,9,679
9,YZYZY,113,1,755,Correct,9,802
9,ZSZSZ,11,3,659,Correct,9,657
9,FRFRF,13,1,691,Correct,9,793
9,ZMZMZ,196,1,667,Correct,9,940
9,NZNXN,16,2,958,Correct,9,665
9,LSLFL,121,3,768,Correct,9,809
10,Q,5,3,2236,New Target,10,692
10,ZVZPZ,161,2,863,Correct,10,750
10,RZRZR,151,1,1515,Correct,10,678
10,ZFZFZ,152,1,975,Correct,10,673
10,RZRZR,153,1,1091,Correct,10,808
10,PZPXP,161,2,781,Correct,10,916
10,VFQPV,233,2,1476,Correct,10,821
10,ZPZRZ,222,1,1093,Incorrect,10,810
10,CYCVC,162,1,709,Incorrect,10,671
10,CPCPC,151,1,606,Correct,10,881
10,YZYQY,72,3,1043,Correct,10,731
10,FVFXF,14,,,Incorrect,10,674
10,YNYNQ,225,2,1239,Incorrect,10,685
10,ZYZYZ,113,1,689,Correct,10,781
10,FRFSF,181,2,1248,Incorrect,10,800
10,XNXPX,16,1,1036,Incorrect,10,675
10,NXNXN,151,1,672,Correct,10,725
10,PVPZP,161,2,979,Correct,10,719
10,XVXPX,162,2,1224,Correct,10,784
10,FXFVF,163,2,1279,Correct,10,839
10,NSNKN,172,,,Incorrect,10,786
10,VXVNV,16,2,976,Correct,10,885
10,XZXZX,151,1,992,Correct,10,840
10,VQVQV,8,3,757,Correct,10,697
10,ZYZPZ,14,2,1121,Correct,10,790
10,PZPSP,183,2,1229,Correct,10,816
10,YVYVY,15,1,1237,Correct,10,861
10,NCNQN,92,3,973,Correct,10,840
10,FCFVF,14,2,1136,Correct,10,842
10,ZFZFZ,151,1,637,Correct,10,830
10,NSNSN,194,1,906,Correct,10,768
10,YPYFY,16,2,788,Correct,10,703
10,ZKZKZ,151,1,624,Correct,10,664
10,QZRCR,231,2,1026,Correct,10,786
10,YPYVY,222,2,886,Correct,10,748
10,ZNZNZ,151,1,682,Correct,10,893
10,VQVQV,10,3,797,Correct,10,685
10,RVRZR,14,1,827,Incorrect,10,705
10,KRKSK,185,2,1406,Correct,10,918
10,NPNPN,15,1,721,Correct,10,746
10,YPYPY,152,1,786,Correct,10,664
10,VCVYV,161,2,1249,Correct,10,686
10,FPFNF,162,2,1198,Correct,10,675
10,QVXVX,221,2,1102,Incorrect,10,663
10,ZVZRZ,222,2,829,Correct,10,745
10,LFLFL,151,1,1158,Correct,10,844
10,VLVLV,152,1,1453,Correct,10,918
10,KXQXK,223,3,1453,Incorrect,10,804
10,YQYQY,11,3,732,Correct,10,861
10,YCYCY,13,1,828,Correct,10,743
10,PZPYP,161,2,1221,Correct,10,765
10,LPLFL,162,2,1086,Correct,10,808
10,VSVSV,196,1,1144,Correct,10,903
10,VFVYQ,235,2,1205,Correct,10,838
10,CZCXC,222,,,Incorrect,10,907
10,PVPCP,162,2,868,Correct,10,877
10,CXCXC,151,1,661,Correct,10,885
10,NZNZN,152,1,1073,Correct,10,881
10,YPYCY,161,2,1438,Correct,10,835
10,ZQZQZ,12,3,741,Correct,10,661
11,T,5,3,2066,New Target,11,856
11,KFKFK,151,1,907,Correct,11,730
11,LZLZL,152,1,1043,Correct,11,733
11,PFPVP,161,2,866,Correct,11,831
11,FRFPF,162,2,921,Correct,11,822
11,FZFZF,151,1,1472,Correct,11,745
11,VTVTV,7,3,784,Correct,11,772
11,KYKCK,14,1,804,Incorrect,11,926
11,VPVPV,151,1,952,Correct,11,947
11,XQXQX,191,1,1057,Correct,11,707
11,PZPYP,16,2,856,Correct,11,941
11,KXKLK,162,2,1236,Correct,11,737
11,TCNCN,221,3,961,Incorrect,11,661
11,PZPNP,222,2,1232,Correct,11,916
11,RCRPR,162,2,820,Correct,11,936
11,PZPRT,235,3,1520,Incorrect,11,700
11,XFXVX,222,2,914,Correct,11,658
11,LTLVL,81,3,965,Correct,11,885
11,ZCZPZ,14,2,1181,Correct,11,703
11,NCNQN,182,2,1434,Correct,11,757
11,XZXNX,16,2,903,Correct,11,899
11,ZPZPZ,151,1,960,Correct,11,717
11,CFCFC,152,1,968,Correct,11,681
11,VXTRV,233,2,710,Correct,11,882
11,CFCVC,222,2,1047,Correct,11,714
11,PYPYP,151,1,1000,Correct,11,803
11,FQFYF,173,2,845,Correct,11,692
11,CNCFC,16,,,Incorrect,11,717
11,PTPTP,9,3,880,Correct,11,919
11,ZCZCZ,13,1,773,Correct,11,874
11,KZKZK,152,1,916,Correct,11,671
11,RLRVR,161,2,1014,Correct,11,881
11,ZRZKZ,162,2,1010,Correct,11,922
11,KLKLT,225,2,1575,Incorrect,11,672
11,ZQZQZ,194,1,708,Correct,11,779
11,VZVZV,15,1,1074,Correct,11,721
11,RVRZR,161,2,800,Correct,11,783
11,ZPZCZ,162,2,1238,Correct,11,859
11,VYVYV,151,1,724,Correct,11,710
11,RVRVR,152,1,692,Correct,11,666
11,PTPTP,10,3,994,Correct,11,742
11,PXPXP,13,1,761,Correct,11,667
11,KCKCK,152,1,720,Correct,11,885
11,YVYVY,153,1,786,Correct,11,752
11,CYCYC,154,1,1068,Correct,11,761
11,XCXCX,155,1,737,Correct,11,655
11,CYCQC,185,2,728,Correct,11,913
11,KCKNK,16,2,1042,Correct,11,889
11,VPVPV,151,1,581,Correct,11,793
11,TXFZF,231,2,1207,Correct,11,803
11,NYNVN,222,1,701,Incorrect,11,852
11,VQVXV,176,2,768,Correct,11,664
11,ZRZRZ,15,1,905,Correct,11,834
11,VTVZV,111,3,713,Correct,11,939
11,PXPVP,14,2,1145,Correct,11,700
11,FVFVF,151,1,800,Correct,11,941
11,VRVLV,161,2,810,Correct,11,799
11,YCYCY,151,1,740,Correct,11,843
11,XZTZX,223,3,865,Incorrect,11,721
11,VTVTV,12,3,668,Correct,11,688
12,O,5,3,2021,New Target,12,651
12,VXVLV,161,2,711,Correct,12,739
12,KVKCK,162,2,739,Correct,12,766
12,VLVLV,151,1,813,Correct,12,802
12,ZCZVZ,161,2,873,Correct,12,719
12,KFKFK,151,1,707,Correct,12,712
12,XKXKX,152,1,1018,Correct,12,902
12,YXYXY,153,1,878,Correct,12,744
12,FVFVF,154,1,743,Correct,12,784
12,PVPOP,72,3,997,Correct,12,707
12,ZXZYZ,14,1,675,Incorrect,12,909
12,PXPVP,162,2,862,Correct,12,893
12,ZTZTZ,191,1,741,Correct,12,773
12,CVCKC,16,2,939,Correct,12,949
12,CKCKC,151,1,948,Correct,12,670
12,NPNPN,152,1,810,Correct,12,758
12,ZRZNZ,161,1,917,Incorrect,12,718
12,OZCZC,221,2,984,Incorrect,12,890
12,LFLFL,113,1,744,Correct,12,888
12,CXCXC,152,1,1151,Correct,12,888
12,KPKPK,153,1,1029,Correct,12,945
12,FRFKF,161,1,953,Incorrect,12,698
12,FOFOF,8,3,626,Correct,12,670
12,ZFZFZ,13,1,1012,Correct,12,772
12,LKLZO,235,2,1014,Correct,12,836
12,KLKZK,222,1,694,Incorrect,12,801
12,YXYCY,162,2,1022,Correct,12,927
12,LOLOL,9,3,587,Correct,12,913
12,XLXLX,13,1,880,Correct,12,702
12,XVXVX,152,1,771,Correct,12,889
12,FTFTF,192,1,792,Correct,12,922
12,OXNZN,231,2,847,Correct,12,881
12,CZCZC,113,1,1415,Correct,12,771
12,LZLZL,152,1,860,Correct,12,696
12,VLVPV,161,,,Incorrect,12,728
12,VYVYO,225,2,1344,Incorrect,12,780
12,XKXKX,113,1,699,Correct,12,657
12,RTRTR,193,1,1079,Correct,12,827
12,KVKCK,16,2,1322,Correct,12,696
12,ROROR,101,3,764,Correct,12,910
12,PRPRP,13,1,904,Correct,12,730
12,LYLVL,161,2,1088,Correct,12,756
12,PLPLP,151,1,858,Correct,12,898
12,CTCTC,194,1,706,Correct,12,750
12,XZXYX,16,2,1116,Correct,12,898
12,NKNKN,151,2,1251,Incorrect,12,914
12,VLVZV,161,2,1562,Correct,12,808
12,YOYOY,11,3,699,Correct,12,662
12,PZOZP,223,2,1095,Incorrect,12,879
12,FYFYF,113,1,792,Correct,12,700
12,ZXZVZ,161,2,959,Correct,12,866
12,VKVZV,162,2,834,Correct,12,830
12,ZTZTZ,195,1,776,Correct,12,816
12,LKLZL,16,2,895,Correct,12,945
12,KCKVK,162,2,1128,Correct,12,681
12,PXPKP,163,2,1255,Correct,12,792
12,KCOZK,233,2,1138,Correct,12,730
12,FKFKF,113,,,Incorrect,12,771
12,CTCRC,176,2,1118,Correct,12,700
12,NXNXN,15,1,811,Correct,12,779
12,KXKVK,161,1,1110,Incorrect,12,750
12,CPCOC,122,3,1078,Correct,12,740
13,H,5,3,2309,New Target,13,829
13,VFVNV,151,2,1103,Incorrect,13,741
13,YVYVY,152,1,748,Correct,13,816
13,XVXVX,153,1,971,Correct,13,723
13,NRNXN,161,,,Incorrect,13,772
13,PZPKP,162,2,855,Correct,13,857
13,HLVLV,221,2,1410,Incorrect,13,688
13,CXCZC,222,2,1173,Correct,13,808
13,LHLYL,71,3,657,Correct,13,750
13,YKYFY,14,2,1467,Correct,13,924
13,YOYRY,171,2,1483,Correct,13,828
13,ZKZYZ,16,2,1178,Correct,13,770
13,RZRZR,151,1,1156,Correct,13,829
13,NFNYN,161,2,1086,Correct,13,892
13,KVKFK,162,2,1178,Correct,13,863
13,XFXYX,163,2,1583,Correct,13,926
13,LKLVL,164,2,1230,Correct,13,718
13,NLNLN,151,1,696,Correct,13,754
13,XCXOX,182,2,1353,Correct,13,722
13,FXFXF,15,1,911,Correct,13,780
13,VHVHV,8,3,929,Correct,13,943
13,PVPVP,13,1,630,Correct,13,833
13,CRCXC,161,1,780,Incorrect,13,713
13,NXNXN,151,1,838,Correct,13,785
13,XRXRX,152,1,911,Correct,13,781
13,YFYXY,161,2,1298,Correct,13,831
13,ZOZOZ,193,1,1126,Correct,13,895
13,RZRZR,15,1,944,Correct,13,904
13,FKFKF,152,1,791,Correct,13,773
13,PFPFP,153,1,853,Correct,13,742
13,XYXHX,92,2,1210,Incorrect,13,864
13,RZRKR,14,2,1553,Correct,13,819
13,FLFLH,225,,,Incorrect,13,829
13,KRKRK,113,1,980,Correct,13,939
13,ZVZNZ,161,2,1004,Correct,13,725
13,ZOZOZ,194,1,1425,Correct,13,661
13,FZFZF,15,1,976,Correct,13,872
13,FHFKF,101,3,790,Correct,13,666
13,ZXHLZ,233,2,915,Correct,13,753
13,FKFXF,222,2,1401,Correct,13,768
13,CFCYC,162,1,664,Incorrect,13,879
13,ZXZVZ,163,2,1120,Correct,13,904
13,KCKOK,185,2,1231,Correct,13,728
13,ZXZVH,235,3,1472,Incorrect,13,661
13,CKCKC,113,1,1407,Correct,13,816
13,ZXZCZ,161,2,1085,Correct,13,899
13,YVYVY,151,1,1039,Correct,13,700
13,RVHVR,223,,,Incorrect,13,871
13,ZRZRZ,113,1,971,Correct,13,667
13,ZHZHZ,11,3,1505,Correct,13,751
13,VZVZV,13,1,1173,Correct,13,654
13,HZVRV,231,,,Incorrect,13,942
13,FVFVF,113,1,873,Correct,13,735
13,RNRCR,161,1,1018,Incorrect,13,950
13,COCOC,196,1,909,Correct,13,770
13,VNVXV,16,2,945,Correct,13,879
13,XHXHX,12,3,819,Correct,13,877
14,G,5,3,1538,New Target,14,901
14,FZFZF,151,1,1074,Correct,14,723
14,RPRVR,161,2,883,Correct,14,752
14,XCXCX,151,1,1180,Correct,14,758
14,YXYXY,152,1,770,Correct,14,919
14,KZKZK,153,1,864,Correct,14,756
14,RYRKR,161,2,775,Correct,14,738
14,FYFNF,162,2,1496,Correct,14,669
14,VKVKV,151,1,1224,Correct,14,768
14,KPGPK,223,2,1157,Incorrect,14,704
14,YNYNY,113,1,844,Correct,14,934
14,VYVYV,152,1,855,Correct,14,675
14,YCYXY,161,3,798,Incorrect,14,770
14,LKLGL,72,2,986,Incorrect,14,765
14,VXVXV,13,1,1153,Correct,14,743
14,KCKVK,161,2,964,Correct,14,950
14,YKYKY,151,1,883,Correct,14,867
14,RHRXR,171,2,1365,Correct,14,894
14,FVFCF,16,3,984,Incorrect,14,855
14,YXYGY,82,2,1245,Incorrect,14,719
14,CLCLC,13,3,960,Incorrect,14,939
14,ZXZCZ,161,2,1193,Correct,14,655
14,VLVFV,162,2,1206,Correct,14,757
14,CPCPG,225,,,Incorrect,14,932
14,KHKNK,172,,,Incorrect,14,685
14,ZKZVZ,16,2,1457,Correct,14,926
14,YKYLY,162,2,1311,Correct,14,845
14,CNCNC,151,2,1240,Incorrect,14,707
14,PGPGP,9,1,1100,Incorrect,14,948
14,VPVPV,13,1,1036,Correct,14,740
14,FXGRF,233,2,807,Correct,14,912
14,CYCVC,222,,,Incorrect,14,661
14,FNFNF,151,1,675,Correct,14,693
14,KFKCK,161,3,1036,Incorrect,14,914
14,ZFZHZ,183,2,1536,Correct,14,671
14,NXNXN,15,1,1081,Correct,14,883
14,FNFNF,152,1,1015,Correct,14,830
14,LXLNG,235,2,1107,Correct,14,906
14,XKXVX,222,1,1383,Incorrect,14,677
14,ZHZHZ,194,1,732,Correct,14,703
14,PFPFP,15,1,934,Correct,14,867
14,ZYZYZ,152,1,1065,Correct,14,854
14,XPXVX,161,2,1174,Correct,14,760
14,YCYCY,151,3,962,Incorrect,14,792
14,RGRGR,10,1,772,Incorrect,14,853
14,VRVRV,13,,,Incorrect,14,798
14,PKPNP,161,1,886,Incorrect,14,839
14,XGXGX,11,1,687,Incorrect,14,736
14,GZYVY,231,2,754,Correct,14,705
14,VCVNV,222,3,559,Incorrect,14,738
14,VHVHV,195,1,857,Correct,14,655
14,LXLNL,16,2,1168,Correct,14,806
14,GKPKP,221,2,1212,Incorrect,14,825
14,XRXPX,222,,,Incorrect,14,692
14,XNXNX,151,1,696,Correct,14,742
14,KHKNK,176,2,1333,Incorrect,14,832
14,RZRZR,15,1,1054,Correct,14,734
14,CGCFC,121,,,Incorrect,14,792
15,A,5,3,3137,New Target,15,664
15,XRXFX,161,2,1291,Correct,15,929
15,RXRKR,162,2,928,Correct,15,841
15,YRYRY,151,1,790,Correct,15,765
15,XPXPX,152,1,957,Correct,15,855
15,RPRPR,153,1,1222,Correct,15,672
15,NCNCN,154,1,908,Correct,15,933
15,RXRZR,161,2,974,Correct,15,855
15,NANAN,7,3,677,Correct,15,679
15,KCKYK,14,2,1041,Correct,15,862
15,XKXFX,162,1,1343,Incorrect,15,840
15,ZLZKZ,163,2,767,Correct,15,875
15,VCVZV,164,2,1257,Correct,15,851
15,XCXVX,165,2,1280,Correct,15,803
15,LKLZA,235,2,1394,Correct,15,950
15,NCNCN,113,1,1368,Correct,15,708
15,YGYGY,191,1,872,Correct,15,927
15,VLVLV,15,1,986,Correct,15,867
15,XRXRX,152,1,865,Correct,15,673
15,KAKPK,81,2,1000,Incorrect,15,800
15,YZAZY,233,,,Incorrect,15,748
15,CFCFC,113,1,700,Correct,15,693
15,VNVLV,161,2,1461,Correct,15,897
15,KPKVK,162,2,1122,Correct,15,854
15,NCNRN,163,2,1425,Correct,15,817
15,FGFGF,192,1,861,Correct,15,892
15,RCRYR,16,2,1257,Correct,15,711
15,KRKCK,162,2,1039,Correct,15,820
15,CRCRC,151,1,1598,Correct,15,801
15,XPAPX,223,,,Incorrect,15,910
15,LPLXL,222,2,1023,Correct,15,834
15,CGCVC,173,2,1450,Correct,15,944
15,FKFZF,16,2,885,Correct,15,882
15,CACAC,9,3,859,Correct,15,845
15,XCXCX,13,1,1031,Correct,15,675
15,AXRXR,221,2,1226,Incorrect,15,693
15,NKNRN,222,2,839,Correct,15,751
15,KNKFK,162,1,1012,Incorrect,15,711
15,KAKAK,10,3,730,Correct,15,756
15,ZCZRZ,14,2,1332,Correct,15,858
15,RPRPR,151,1,1321,Correct,15,784
15,NCNCN,152,1,860,Correct,15,904
15,RYRGR,184,2,1090,Correct,15,849
15,VPVPV,15,1,1060,Correct,15,747
15,RCRCA,225,,,Incorrect,15,905
15,KXKPK,222,2,1318,Correct,15,931
15,NPNPN,151,1,715,Correct,15,836
15,YCYCY,152,1,1386,Correct,15,712
15,PXPAP,112,3,941,Correct,15,801
15,ZCZNZ,14,2,1059,Correct,15,711
15,KYKGK,185,2,930,Correct,15,854
15,ANLPL,231,,,Incorrect,15,847
15,CXCPC,222,2,892,Correct,15,905
15,YRYRY,151,1,726,Correct,15,710
15,LGLGL,196,1,818,Correct,15,799
15,VYVLV,16,,,Incorrect,15,715
15,KVKVK,151,1,1325,Correct,15,694
15,RKRKR,152,1,801,Correct,15,858
15,VXVXV,153,2,895,Incorrect,15,707
15,XAXAX,12,3,638,Correct,15,915
