Trial No,Stimulus,Trigger,Response,Response Time(ms),Correct,Block,Fixation Duration
Practice
OT Practice
1,SKSKS,15,,,False,0,906
1,DLDUD,16,2,811,Correct,0,761
1,PDPGP,16,2,893,Correct,0,920
1,MWMWM,15,1,769,Correct,0,769
1,FTFTF,15,2,581,False,0,861
1,AXAMA,16,2,777,Correct,0,650
1,RYRGR,16,2,771,Correct,0,689
1,DODOD,15,1,581,Correct,0,896
1,QTQAQ,16,2,645,Correct,0,784
1,YEYEY,15,1,580,Correct,0,656
2,GYGDG,16,2,694,Correct,0,710
2,SWSWS,15,1,578,Correct,0,776
2,HLHUH,16,2,642,Correct,0,741
2,DEDED,15,1,540,Correct,0,843
2,ZPZOZ,16,2,654,Correct,0,786
2,ATATA,15,1,537,Correct,0,766
2,QOQOQ,15,2,759,False,0,851
2,FPFGF,16,2,658,Correct,0,759
2,TRTET,16,2,710,Correct,0,940
2,DQDQD,15,2,678,False,0,663
4,PLPLP,15,1,760,Correct,0,715
4,ATAIA,16,1,655,False,0,774
4,SKSGS,16,2,652,Correct,0,755
4,ZYZYZ,15,1,690,Correct,0,914
4,QSQSQ,15,1,735,Correct,0,735
4,TZTDT,16,2,629,Correct,0,885
4,JYJGJ,16,2,686,Correct,0,871
4,DYDYD,15,1,631,Correct,0,831
4,LTLCL,16,2,594,Correct,0,875
4,FQFEF,16,2,559,Correct,0,777
DT Practice
1,TKTKT,15,2,842,False,0,913
1,SLSUS,16,2,1170,Correct,0,675
1,VZVGV,7,[1][2],[1027][1571],False,0,870
1,XWXZX,7,[2][3],[931][1171],Correct,0,688
1,ATATA,15,1,1086,Correct,0,787
1,HXZMH,16,2,1544,Correct,0,850
1,TZTZT,7,[1][3],[789][1029],Correct,0,683
1,UOUOU,15,1,1031,Correct,0,886
1,ZTWAW,16,2,1187,Correct,0,797
1,RZRER,7,[2][3],[1242][1482],Correct,0,690
2,JYJDJ,16,2,867,Correct,0,860
2,DWDWD,15,1,921,Correct,0,765
2,GNGNG,7,[1][3],[789][981],Correct,0,674
2,NEZEZ,16,2,906,False,0,753
2,RNROR,7,[2][3],[1250][1490],Correct,0,747
2,QTQNQ,7,[2][3],[856][1192],Correct,0,803
2,HOHON,15,,,False,0,708
2,KPKGK,16,2,1017,Correct,0,855
2,DRDED,16,2,708,Correct,0,899
2,LNLNL,7,[1][3],[810][1449],Correct,0,751
4,GLGLG,15,1,969,Correct,0,831
4,DTDID,16,2,761,Correct,0,779
4,SMSGS,16,2,943,Correct,0,886
4,ZFZYZ,7,[1][2],[746][1130],False,0,758
4,TSTFT,7,[2][3],[941][1213],Correct,0,806
4,OFOFO,7,[1][3],[728][1000],Correct,0,944
4,WYFGW,16,,,False,0,834
4,WYWYW,15,1,964,Correct,0,886
4,MFMCM,7,[2][3],[1102][1358],Correct,0,754
4,HQHEH,16,2,1260,Correct,0,929
Trials
1,D,5,3,8802,New Target,1,911
1,ZNZYZ,161,2,927,Correct,1,818
1,FZFZF,151,1,848,Correct,1,834
1,RKRKR,152,1,841,Correct,1,806
1,RXRNR,161,2,699,Correct,1,950
1,CNCFC,162,2,835,Correct,1,947
1,PDPDP,7,[1][3],[552][824],Correct,1,931
1,CPCFC,14,2,948,Correct,1,835
1,VLVNV,162,2,888,Correct,1,815
1,KFKFK,151,1,812,Correct,1,827
1,ZNZNZ,152,1,928,Correct,1,920
1,KCKPD,235,2,1331,Correct,1,836
1,ZKZFZ,222,2,975,Correct,1,711
1,NRNZN,162,2,1039,Correct,1,813
1,KXKRK,163,2,864,Correct,1,775
1,YPYZY,164,2,755,Correct,1,943
1,FKDKF,223,2,1005,Incorrect,1,860
1,RPRPR,113,1,1004,Correct,1,892
1,VRVKV,161,2,704,Correct,1,729
1,RFRPR,162,2,990,Correct,1,803
1,KVKVK,151,1,790,Correct,1,655
1,YKYVY,161,2,1038,Correct,1,852
1,VDVDV,8,[1][3],[762][1002],Correct,1,949
1,DVZVZ,221,2,677,Incorrect,1,722
1,YFYFY,113,1,931,Correct,1,862
1,ZYZYZ,152,1,1070,Correct,1,654
1,VLVXV,161,2,809,Correct,1,874
1,DPXZX,231,2,1085,Correct,1,939
1,RYRYR,113,2,1371,Incorrect,1,780
1,PDPNP,91,[2][3],[929][1217],Correct,1,714
1,KXKXK,13,,,Incorrect,1,924
1,ZYZYZ,152,1,759,Correct,1,869
1,VKVKV,153,1,1027,Correct,1,778
1,YZYZY,154,2,1448,Incorrect,1,721
1,NLNZN,161,2,1470,Correct,1,727
1,ZNDYZ,233,,,Incorrect,1,735
1,PCPXP,222,2,660,Correct,1,944
1,ZVZFZ,162,2,1031,Correct,1,660
1,RCRZR,163,2,979,Correct,1,895
1,LRLRL,151,1,650,Correct,1,735
1,ZDZDZ,10,[1][3],[696][920],Correct,1,863
1,RNRZR,14,2,1252,Correct,1,862
1,CXCYC,162,2,909,Correct,1,756
1,RCRLR,163,2,831,Correct,1,864
1,FRFRF,151,1,1081,Correct,1,785
1,XFXFX,152,1,828,Correct,1,654
1,RPRLR,161,2,638,Correct,1,946
1,YXYRY,162,2,804,Correct,1,664
1,FYFYF,151,1,734,Correct,1,747
1,YZYVY,161,2,681,Correct,1,797
1,YKYKY,151,1,783,Correct,1,941
1,XRXRX,152,1,1178,Correct,1,764
1,XVXZX,161,2,993,Correct,1,917
1,PDPDP,11,[1][3],[618][969],Correct,1,823
1,ZFZFZ,13,1,816,Correct,1,719
1,PXPXP,152,1,1316,Correct,1,898
1,LYLYL,153,1,701,Correct,1,699
1,NKNKD,225,2,1110,Incorrect,1,870
1,ZNZNZ,113,1,985,Correct,1,672
1,PYPZP,161,2,911,Correct,1,660
1,XPXPX,151,2,1044,Incorrect,1,857
1,VLVLV,152,1,1074,Correct,1,880
1,PKPXP,161,2,852,Correct,1,699
1,FZFZF,151,1,1063,Correct,1,885
1,LDLDL,12,[1][3],[853][1157],Correct,1,934
2,U,5,3,13891,New Target,2,806
2,ZVZFZ,161,2,1185,Correct,2,739
2,FZFZF,151,1,685,Correct,2,765
2,RFRFR,152,1,910,Correct,2,744
2,NZNKN,161,2,976,Correct,2,866
2,FZFNF,162,2,833,Correct,2,850
2,RXRXR,151,1,872,Correct,2,818
2,KRKYK,161,2,813,Correct,2,851
2,NZNPN,162,2,600,Correct,2,775
2,XPXPX,151,1,714,Correct,2,768
2,CUCUC,7,[1][3],[672][1040],Correct,2,859
2,RFRFR,13,2,979,Incorrect,2,706
2,VYVXV,161,2,881,Correct,2,915
2,VDVDV,191,1,923,Correct,2,668
2,ZKZRZ,15,2,692,Correct,2,669
2,XCXCX,151,1,658,Correct,2,751
2,CNCUC,82,[2][2],[716][1516],Incorrect,2,690
2,RCRCR,13,1,721,Correct,2,728
2,ZPZXZ,161,2,642,Correct,2,708
2,FKFYF,162,2,876,Correct,2,947
2,ZFZYZ,163,2,736,Correct,2,874
2,PXPXP,151,1,746,Correct,2,867
2,URCKC,231,2,658,Correct,2,875
2,PCPCP,113,1,960,Correct,2,829
2,XNXNX,152,2,1059,Incorrect,2,805
2,RCRZR,161,2,781,Correct,2,947
2,XVXVX,151,1,698,Correct,2,727
2,NRNRN,152,1,989,Correct,2,708
2,FPFPF,225,1,688,Correct,2,692
2,XVXFX,222,2,755,Correct,2,701
2,PRPRP,151,1,672,Correct,2,733
2,FYFCF,161,2,764,Correct,2,808
2,XUXFX,91,[2],[875],Incorrect,2,920
2,CYCVC,14,2,843,Correct,2,773
2,VDVKV,172,2,674,Correct,2,812
2,YCYCY,15,1,860,Correct,2,933
2,NKNLN,161,2,788,Correct,2,753
2,XPUKX,233,2,843,Correct,2,810
2,ZPZPZ,113,1,944,Correct,2,849
2,KRKRK,152,1,846,Correct,2,944
2,XKXKX,153,1,930,Correct,2,864
2,YUYVY,101,[2][3],[847][1151],Correct,2,872
2,XKXFU,235,2,1173,Correct,2,934
2,NFNFN,113,1,1084,Correct,2,917
2,KDKDK,193,1,1019,Correct,2,825
2,XYXKX,16,2,952,Correct,2,933
2,YZUZY,223,2,1019,Incorrect,2,766
2,KFKVK,222,2,827,Correct,2,794
2,LYLYL,151,1,852,Correct,2,819
2,CXCDC,184,2,863,Incorrect,2,668
2,XZXNX,16,2,1148,Correct,2,669
2,PXPXP,151,1,779,Correct,2,697
2,ZRZYZ,161,2,911,Correct,2,935
2,PUPYP,111,[1][3],[822][1302],Incorrect,2,816
2,RNRNR,14,1,1212,Correct,2,916
2,KDKDK,195,1,1047,Correct,2,803
2,KNKNK,15,1,866,Correct,2,919
2,PRPKP,161,2,885,Correct,2,937
2,UNYNY,221,2,1360,Incorrect,2,662
2,NYNYN,113,1,1585,Correct,2,927
2,YXYXY,152,1,847,Incorrect,2,717
2,RDRDR,196,1,939,Correct,2,681
2,FCFCF,15,1,673,Correct,2,714
2,ZKZKZ,152,1,658,Correct,2,792
2,ZUZUZ,12,[1][3],[758][1142],Correct,2,741
3,E,5,3,4237,New Target,3,752
3,YZYZY,151,1,961,Correct,3,727
3,VFVNV,161,2,1210,Correct,3,678
3,KYKYK,151,1,1094,Correct,3,725
3,NKNKN,152,,,Incorrect,3,803
3,XVXNX,161,2,1211,Correct,3,881
3,RERFR,71,[2],[1091],Incorrect,3,801
3,XNXNX,13,1,1169,Correct,3,950
3,NXNXN,152,1,1246,Correct,3,754
3,ZLZNZ,161,2,1163,Correct,3,691
3,CUCNC,171,2,1062,Correct,3,869
3,FYFRF,16,2,1191,Correct,3,773
3,ZLZLZ,151,1,733,Correct,3,889
3,YZYZY,152,1,937,Correct,3,820
3,CYCYC,153,1,715,Correct,3,828
3,VUVUV,192,1,844,Correct,3,740
3,PXPRP,16,2,845,Correct,3,925
3,YPYPY,151,1,921,Correct,3,701
3,CECEC,8,[1][3],[786][1266],Correct,3,934
3,VNENV,223,2,956,Incorrect,3,797
3,KRKFK,222,2,1427,Correct,3,709
3,XLXLE,225,2,1041,Incorrect,3,896
3,RFRUR,183,2,1278,Correct,3,892
3,XRXLX,16,2,934,Correct,3,846
3,NZNPN,162,,,Incorrect,3,744
3,XZXZX,151,1,701,Correct,3,690
3,FZFZF,152,1,681,Correct,3,811
3,PFPFP,153,1,1194,Correct,3,731
3,YZYXY,161,2,741,Correct,3,816
3,KEKEK,9,[1][3],[856][1256],Correct,3,762
3,CXCPC,14,2,832,Correct,3,947
3,VXVXV,151,1,924,Correct,3,696
3,NUNZN,174,2,868,Correct,3,736
3,RKRVR,16,2,864,Correct,3,653
3,XRXRX,151,1,826,Correct,3,676
3,ERNFN,231,2,930,Incorrect,3,829
3,YRYNY,222,2,748,Correct,3,679
3,PZPEP,102,[1][3],[764][1148],Incorrect,3,756
3,ZYZXZ,14,2,817,Correct,3,726
3,RZRVR,162,2,922,Correct,3,756
3,XRXRX,151,1,947,Correct,3,736
3,KUKFK,175,2,649,Correct,3,750
3,RKRKR,15,1,839,Correct,3,811
3,ZFZFZ,152,1,913,Correct,3,759
3,YZYVY,161,2,771,Correct,3,901
3,XPXNX,162,2,911,Correct,3,756
3,YRYRY,151,1,835,Correct,3,858
3,EPVPV,221,2,874,Incorrect,3,858
3,CRCEC,112,[2],[1369],Incorrect,3,840
3,RFRCR,14,2,1266,Correct,3,923
3,CPCVC,162,2,891,Correct,3,729
3,RXRCR,163,,,Incorrect,3,853
3,VNVLV,164,2,1134,Correct,3,665
3,ZXZXZ,151,1,858,Correct,3,785
3,ZCZCZ,152,1,764,Correct,3,904
3,PYPUP,186,2,730,Correct,3,682
3,YKYPY,16,2,1319,Correct,3,720
3,YREXY,233,2,958,Correct,3,802
3,ZKZKZ,113,1,901,Correct,3,668
3,XLXNX,161,2,1047,Correct,3,879
3,KFKRE,235,1,1118,Incorrect,3,672
3,RXRLR,222,2,954,Correct,3,817
3,RERXR,121,[1][3],[890][1338],Incorrect,3,763
4,J,5,3,3545,New Target,4,937
4,CYCVC,161,2,1196,Correct,4,884
4,RXRCR,162,2,644,Correct,4,924
4,FPFVF,163,2,672,Correct,4,887
4,LZLZL,151,2,644,Incorrect,4,664
4,PLPLP,152,1,916,Correct,4,787
4,NPNPN,153,2,1148,Incorrect,4,750
4,XZXZX,161,1,860,Incorrect,4,660
4,CNCKC,162,2,902,Correct,4,701
4,PCPYJ,235,2,1388,Correct,4,830
4,VYVYV,113,1,1468,Correct,4,866
4,RLRLR,152,1,1031,Correct,4,925
4,CJCJC,7,[3][1],[868][1156],Incorrect,4,694
4,ZLZLZ,13,,,Incorrect,4,762
4,FZFZF,152,1,1077,Correct,4,887
4,CFCFC,153,1,757,Correct,4,824
4,PZPZP,154,1,592,Correct,4,849
4,XEXEX,191,1,624,Correct,4,836
4,NVNFN,16,2,819,Correct,4,755
4,KYKYK,151,1,1048,Correct,4,902
4,ZNZVZ,161,2,940,Correct,4,667
4,YVJXY,233,2,822,Correct,4,676
4,XFXFX,113,1,908,Correct,4,823
4,XNXNX,152,1,836,Correct,4,758
4,FJFKF,81,[1][2],[840][1160],Incorrect,4,828
4,CZCYC,14,2,848,Correct,4,825
4,ZXZCZ,162,2,775,Correct,4,778
4,RYRYJ,225,2,1221,Incorrect,4,708
4,FPFZF,222,2,1098,Correct,4,941
4,XRXRX,151,1,755,Correct,4,922
4,YPYEY,182,2,1024,Correct,4,738
4,XRXRX,15,1,1138,Correct,4,807
4,XZXPX,161,2,1176,Correct,4,931
4,CJCJC,9,[1][3],[738][1154],Correct,4,933
4,ZXZVZ,14,2,1053,Correct,4,908
4,VKVKV,151,1,908,Correct,4,796
4,VEVNV,173,2,943,Correct,4,907
4,ZKZVZ,16,2,733,Correct,4,910
4,XVXJX,102,[2][3],[812][1212],Correct,4,749
4,RXRVR,14,2,830,Correct,4,811
4,LRLRL,151,1,899,Correct,4,911
4,YNJNY,223,1,1125,Correct,4,926
4,NPNJN,222,2,912,Correct,4,881
4,ZEZEZ,194,1,1093,Correct,4,798
4,ZNZNZ,15,1,755,Correct,4,765
4,YZYZY,152,1,730,Correct,4,880
4,XYXYX,153,1,683,Correct,4,726
4,ZXZXZ,221,1,659,Correct,4,950
4,LYLZL,222,2,898,Correct,4,842
4,CYCNC,162,2,984,Correct,4,756
4,XEXEX,195,1,1118,Correct,4,762
4,CVCXC,16,2,825,Correct,4,852
4,ZPZXZ,162,2,671,Correct,4,909
4,FZFZF,151,1,783,Correct,4,729
4,RXRJR,112,[2][3],[862][1278],Correct,4,860
4,PRPFP,14,2,1058,Correct,4,909
4,PKPEP,186,2,1041,Correct,4,822
4,XZXPX,16,2,896,Correct,4,846
4,JCZVZ,231,2,921,Correct,4,706
4,RXRLR,222,2,1120,Correct,4,743
4,VZVZV,151,2,1051,Incorrect,4,866
4,XJXJX,12,[1][3],[834][1234],Correct,4,671
5,I,5,3,8748,New Target,5,937
5,PCPCP,151,1,928,Correct,5,886
5,XYXYX,152,1,1077,Correct,5,806
5,VXVXV,153,1,800,Correct,5,935
5,XVXVX,154,1,839,Correct,5,826
5,ZRZXZ,161,2,796,Correct,5,877
5,FPFZF,162,2,791,Correct,5,771
5,ZYZYZ,151,1,740,Correct,5,679
5,RVRZR,161,2,661,Correct,5,654
5,CICIC,7,[1][3],[659][1059],Correct,5,652
5,XLXLX,13,2,1389,Incorrect,5,919
5,YVYVY,152,1,973,Correct,5,904
5,CJCJC,191,1,924,Correct,5,868
5,FNFCF,16,2,991,Correct,5,854
5,PVPRP,162,2,1031,Correct,5,656
5,FZFZF,151,1,780,Correct,5,659
5,NVIVN,223,1,1363,Correct,5,946
5,CVCIC,82,[2][3],[772][1524],Correct,5,826
5,ZXZXZ,13,1,1101,Correct,5,778
5,FCFZF,161,2,848,Correct,5,653
5,IXRXR,221,2,825,Incorrect,5,828
5,ZPZNZ,222,2,903,Correct,5,694
5,VZVZV,151,1,748,Correct,5,828
5,YRYNY,161,2,891,Correct,5,726
5,VNVPV,162,2,988,Correct,5,895
5,RVRJR,182,2,1390,Correct,5,786
5,VRVRV,15,1,816,Correct,5,829
5,VIVIV,9,[1][3],[1078][1494],Correct,5,653
5,CXCVC,14,2,794,Correct,5,653
5,PZPZP,151,1,1182,Correct,5,926
5,IXVKV,231,1,1395,Incorrect,5,933
5,YJYCY,173,2,1351,Incorrect,5,763
5,VYVYV,15,1,742,Correct,5,938
5,YVYVY,152,1,1116,Correct,5,920
5,NVNVN,153,1,1075,Correct,5,948
5,XYXVX,161,2,864,Correct,5,818
5,NJNCN,174,2,891,Correct,5,723
5,NXNYN,16,2,1055,Correct,5,855
5,VXVCV,162,2,812,Correct,5,834
5,ZKZKZ,151,1,817,Correct,5,875
5,XRXYX,161,2,883,Correct,5,934
5,ZCZXZ,162,2,637,Correct,5,659
5,KVKYI,235,2,910,Correct,5,740
5,CNCNC,113,1,884,Correct,5,781
5,RIRIR,10,[1][3],[980][1188],Correct,5,909
5,VYVXV,14,2,842,Correct,5,831
5,FXIRF,233,2,862,Correct,5,950
5,PFPFP,113,1,688,Correct,5,889
5,VPVPV,152,1,720,Correct,5,758
5,ZJZJZ,195,1,690,Correct,5,662
5,ZVZNZ,16,2,799,Correct,5,814
5,YVYXY,162,2,746,Correct,5,708
5,PRPRP,151,1,832,Correct,5,937
5,YPYPY,152,1,965,Correct,5,875
5,ZIZPZ,111,[2][3],[831][1375],Correct,5,758
5,NKNXN,14,2,1164,Correct,5,660
5,RZRXR,162,2,915,Correct,5,935
5,RXRXR,151,1,913,Correct,5,946
5,ZJZJZ,196,1,1012,Correct,5,815
5,CVCVI,225,2,659,Correct,5,904
5,NKNKN,113,1,1016,Correct,5,658
5,NRNZN,161,2,910,Correct,5,707
5,CNCNC,151,1,910,Correct,5,915
5,RFRIR,122,[2][1],[806][1190],Incorrect,5,677
6,B,5,3,4387,New Target,6,881
6,YKYZY,161,2,958,Correct,6,742
6,VCVRV,162,2,802,Correct,6,776
6,XVXVX,151,2,909,Incorrect,6,794
6,KZKRK,161,2,758,Correct,6,705
6,ZVZXZ,162,2,939,Correct,6,926
6,RCRNR,163,2,891,Correct,6,890
6,CXCRC,164,2,668,Correct,6,891
6,VNBCV,233,2,847,Correct,6,701
6,CXCVC,222,2,1015,Correct,6,744
6,RFRFR,151,1,692,Correct,6,941
6,XPXRX,161,2,887,Correct,6,652
6,RYRBR,72,[1][2],[848][1216],Incorrect,6,672
6,ZKZKZ,13,1,1137,Correct,6,899
6,FIFRF,171,2,762,Correct,6,882
6,VZVLV,16,2,820,Correct,6,858
6,RPRVR,162,2,927,Correct,6,736
6,YBYBY,8,[1][3],[1005][1405],Correct,6,741
6,PYPVP,14,2,829,Correct,6,931
6,NININ,192,1,1233,Correct,6,899
6,RNRNR,15,1,761,Correct,6,804
6,NXNVN,161,2,1118,Correct,6,939
6,RNRNR,151,1,973,Correct,6,780
6,FRFVF,161,2,1184,Correct,6,816
6,YVYFB,235,2,1018,Incorrect,6,853
6,ZRZXZ,222,2,783,Correct,6,740
6,VNVIV,193,2,1049,Incorrect,6,733
6,PXPNP,16,2,588,Correct,6,741
6,ZXZPZ,162,2,625,Correct,6,721
6,VBVBV,9,[1][3],[777][1161],Correct,6,847
6,CXCXC,13,1,1175,Correct,6,816
6,PCPFP,161,2,1024,Correct,6,861
6,KNKNK,151,1,983,Correct,6,707
6,XIXIX,194,1,806,Correct,6,900
6,CYCYC,15,1,746,Correct,6,922
6,FVFYF,161,2,1152,Correct,6,921
6,YNYRY,162,2,777,Correct,6,880
6,BVPXP,231,2,740,Correct,6,793
6,NXNXN,113,1,890,Correct,6,910
6,FRFRF,152,1,878,Correct,6,864
6,YVYVY,153,1,688,Correct,6,898
6,ZKZCZ,161,2,701,Correct,6,789
6,VIVXV,175,2,1038,Correct,6,750
6,PRBRP,223,2,814,Incorrect,6,821
6,YZYBY,102,[1][2],[843][939],Incorrect,6,716
6,CXCVC,14,2,934,Correct,6,763
6,FYFYF,151,1,1067,Correct,6,749
6,VKVXV,161,2,1376,Correct,6,691
6,ZBZBZ,11,[1][3],[806][1174],Correct,6,766
6,FPFNF,14,2,1290,Correct,6,787
6,CXCXC,151,1,1220,Correct,6,661
6,YCYCY,152,1,618,Correct,6,922
6,FPFPF,153,1,615,Correct,6,903
6,CVCVB,225,1,792,Correct,6,811
6,ZCZCZ,113,1,849,Correct,6,859
6,CZCNC,161,2,907,Correct,6,679
6,KIKFK,176,2,894,Correct,6,904
6,PXPXP,15,1,768,Correct,6,945
6,RYRYR,152,1,1288,Correct,6,862
6,ZRZCZ,161,2,1215,Correct,6,820
6,RVRVR,151,1,743,Correct,6,794
6,XYXNX,161,2,982,Correct,6,745
6,BVKVK,221,1,954,Correct,6,762
6,CBCBC,12,[1][3],[716][1084],Correct,6,731
7,W,5,3,15674,New Target,7,694
7,RKRKR,151,1,657,Correct,7,786
7,CVCRC,161,2,626,Correct,7,776
7,PKPKP,151,1,783,Correct,7,909
7,FPFPF,152,1,729,Correct,7,771
7,VRVPV,161,2,906,Correct,7,734
7,ZKZYZ,162,2,995,Correct,7,692
7,PVPCP,233,2,1018,Correct,7,656
7,KVKVK,113,1,1054,Correct,7,776
7,YXYVY,161,2,716,Correct,7,857
7,FNFNF,151,1,1189,Correct,7,910
7,YWYWY,7,[2][1],[895][1135],Incorrect,7,904
7,ZYZYZ,13,1,1237,Correct,7,684
7,PYPYP,152,1,845,Correct,7,819
7,XRXRX,153,1,915,Correct,7,839
7,PXPXP,154,1,872,Correct,7,738
7,FCFBF,181,2,817,Correct,7,737
7,FVFVF,15,1,665,Correct,7,839
7,CYCZC,161,2,1050,Correct,7,771
7,XZXVX,162,2,773,Correct,7,936
7,PFPFP,151,1,1035,Correct,7,906
7,RVRLR,161,2,1544,Correct,7,940
7,ZBZBZ,192,1,644,Correct,7,871
7,VCVNV,16,2,757,Correct,7,798
7,NWNWN,8,[1][3],[778][1418],Correct,7,865
7,XNXVX,14,2,1162,Correct,7,784
7,CXCNC,162,2,773,Correct,7,839
7,YVYVW,225,2,703,Incorrect,7,822
7,VFVFV,113,1,832,Correct,7,667
7,VFWFV,223,2,881,Incorrect,7,932
7,CVCFC,222,2,1029,Correct,7,903
7,YBYBY,193,1,680,Correct,7,787
7,PYPYP,15,1,615,Correct,7,817
7,NKNWN,91,[1][2],[750][1118],Incorrect,7,889
7,VNVNV,13,1,710,Correct,7,837
7,RVRVR,152,1,656,Correct,7,864
7,FVFBF,184,2,831,Incorrect,7,779
7,VZVKV,16,2,738,Correct,7,881
7,VPVCV,162,2,831,Correct,7,726
7,WYZCZ,231,2,902,Correct,7,826
7,PFPFP,113,1,799,Correct,7,668
7,PRPRP,152,1,1186,Correct,7,919
7,NWNWN,10,[1][3],[787][1139],Correct,7,672
7,VKVCV,14,2,890,Correct,7,761
7,WPYPY,221,1,1216,Correct,7,832
7,VBVBV,195,1,748,Correct,7,704
7,ZKZYZ,16,2,949,Correct,7,804
7,XYXYX,151,1,957,Correct,7,677
7,FZFXF,161,2,1328,Correct,7,816
7,XKXKX,151,1,772,Correct,7,927
7,XPXPX,152,1,831,Correct,7,756
7,FWFWF,11,[1][3],[815][1167],Correct,7,728
7,FNFBF,186,2,660,Correct,7,685
7,ZVZYZ,16,2,765,Correct,7,912
7,FZFZF,151,1,924,Correct,7,702
7,NPNFW,235,2,1119,Correct,7,848
7,PCPCP,113,1,768,Correct,7,688
7,NKNWN,122,[1],[1375],Incorrect,7,807
8,M,5,3,1582,New Target,8,753
8,VYVNV,161,2,1136,Correct,8,749
8,KLKNK,162,2,895,Correct,8,710
8,NRNRN,151,1,932,Correct,8,817
8,VNVFV,161,2,589,Correct,8,652
8,XNXNM,225,1,865,Correct,8,769
8,CXCVC,222,2,698,Correct,8,765
8,KRKZK,162,2,918,Correct,8,895
8,NMNFN,71,[2],[1366],Incorrect,8,848
8,ZFZFZ,13,1,1096,Correct,8,932
8,YPYCY,161,2,775,Correct,8,738
8,KCKCK,151,1,1280,Correct,8,824
8,VNVNV,152,1,1202,Correct,8,922
8,LXLXL,153,1,1064,Correct,8,866
8,CLCLC,154,1,1321,Correct,8,813
8,NYNYN,155,1,802,Correct,8,745
8,LCMYL,233,2,960,Correct,8,707
8,NCNCN,113,1,670,Correct,8,899
8,ZVZRZ,161,2,754,Correct,8,683
8,ZVZVZ,151,1,696,Correct,8,947
8,PZPVP,161,2,858,Correct,8,665
8,PWPNP,171,1,883,Incorrect,8,705
8,KLKCM,235,2,1029,Correct,8,897
8,XMXMX,8,[1][3],[844][1164],Correct,8,942
8,PRPXP,14,2,1089,Correct,8,921
8,CVCYC,162,2,799,Correct,8,847
8,PXPMP,92,[2],[1046],Incorrect,8,903
8,ZCZLZ,14,2,1558,Correct,8,914
8,XWXWX,192,1,721,Correct,8,798
8,ZCZLZ,16,2,829,Correct,8,803
8,MNCYC,231,2,997,Correct,8,795
8,ZXZXZ,113,1,967,Correct,8,814
8,YRYNY,161,2,1279,Correct,8,702
8,ZLZPZ,162,2,1057,Correct,8,902
8,VZVZV,151,1,1262,Correct,8,897
8,MXPXP,221,2,979,Incorrect,8,904
8,VWVWV,193,1,1096,Correct,8,720
8,PYPYP,16,1,1014,Incorrect,8,847
8,XPXVX,162,2,999,Correct,8,820
8,XLXLX,151,1,1213,Correct,8,737
8,YMYMY,10,[1][3],[964][1476],Correct,8,846
8,VYVYV,13,1,833,Correct,8,733
8,PWPZP,174,2,809,Correct,8,782
8,PYPKP,16,2,870,Correct,8,748
8,NPNXN,162,2,954,Correct,8,884
8,KVKVK,223,1,1235,Correct,8,703
8,NVNFN,222,2,910,Correct,8,706
8,XNXNX,151,1,1014,Correct,8,709
8,YZYMY,112,[2][3],[1009][1504],Correct,8,825
8,PFPFP,13,1,1034,Correct,8,843
8,ZWZWZ,195,1,1230,Correct,8,766
8,PCPZP,16,2,736,Correct,8,924
8,LRLPL,162,2,1271,Correct,8,865
8,CZCZC,151,1,1057,Correct,8,706
8,NZNZN,152,2,1096,Incorrect,8,656
8,CVCXC,161,2,1142,Correct,8,831
8,XCXCX,151,1,671,Correct,8,825
8,YWYWY,196,1,1197,Correct,8,818
8,NLNLN,15,1,1157,Correct,8,871
8,VNVNV,152,1,958,Correct,8,806
8,ZMZMZ,12,[1][3],[911][1407],Correct,8,888
9,S,5,3,5943,New Target,9,928
9,NZNZN,151,1,914,Correct,9,674
9,KVKZK,161,2,780,Correct,9,704
9,LZLZL,151,1,699,Correct,9,721
9,XLXLX,152,1,694,Correct,9,841
9,ZXZXZ,153,1,742,Correct,9,736
9,KNKZK,161,2,785,Correct,9,793
9,NRNYN,162,2,830,Correct,9,769
9,CLCVC,163,2,711,Correct,9,753
9,ZCZFZ,164,2,685,Correct,9,917
9,NSNSN,7,[1],[836],Incorrect,9,798
9,VZVZV,13,2,517,Incorrect,9,682
9,NVNCN,161,2,583,Correct,9,890
9,VMVMV,191,1,716,Correct,9,731
9,CVCXC,16,2,782,Correct,9,687
9,ZYZRZ,162,2,1479,Correct,9,861
9,XNXZX,163,2,679,Correct,9,734
9,PXPXP,151,1,730,Correct,9,729
9,VCVSV,82,[2][3],[1169][1441],Correct,9,697
9,PRPCP,14,2,1530,Correct,9,671
9,ZMZMZ,192,1,971,Incorrect,9,762
9,ZFZFZ,15,1,1019,Correct,9,902
9,FCFCF,152,1,1035,Correct,9,830
9,YLYZY,161,2,838,Correct,9,943
9,KNKVK,162,2,829,Correct,9,860
9,SFPCP,231,2,1222,Correct,9,771
9,RPRPR,113,1,805,Correct,9,702
9,XMXMX,193,1,893,Correct,9,823
9,KFKFK,15,1,781,Correct,9,903
9,VSVSV,9,[1][3],[716][1068],Correct,9,811
9,YVSVY,223,2,721,Incorrect,9,687
9,VPVPV,113,1,761,Correct,9,884
9,XZXZX,152,1,807,Correct,9,723
9,KZKXK,161,2,831,Correct,9,879
9,RFRPR,162,2,1066,Correct,9,746
9,NVNVS,225,1,1287,Correct,9,866
9,ZXZXZ,113,1,1266,Correct,9,738
9,SRVRV,221,1,1238,Correct,9,933
9,YCYCY,113,1,944,Correct,9,787
9,KMKZK,174,2,1473,Correct,9,831
9,FZSVF,233,2,1183,Correct,9,880
9,VYVYV,113,1,806,Correct,9,882
9,LVLVL,152,1,724,Correct,9,688
9,YFYFY,153,1,563,Correct,9,755
9,NXNSN,102,[1][2],[702][1054],Incorrect,9,720
9,FNFCF,14,2,1106,Correct,9,858
9,KVKVK,151,1,718,Correct,9,829
9,VZVCV,161,2,701,Correct,9,763
9,ZYZMZ,185,2,637,Correct,9,719
9,VXVZV,16,2,648,Correct,9,890
9,VPVPV,151,2,709,Incorrect,9,889
9,RVRNS,235,2,591,Correct,9,920
9,YZYZY,113,1,733,Correct,9,863
9,ZSZSZ,11,[1][3],[785][1169],Correct,9,752
9,FRFRF,13,1,1034,Correct,9,924
9,ZMZMZ,196,1,877,Correct,9,723
9,NZNXN,16,2,1137,Correct,9,890
9,LSLFL,121,[1][3],[1034][1386],Incorrect,9,873
10,Q,5,3,2908,New Target,10,904
10,ZVZPZ,161,2,848,Correct,10,725
10,RZRZR,151,1,845,Correct,10,661
10,ZFZFZ,152,1,778,Correct,10,652
10,RZRZR,153,1,756,Correct,10,837
10,PZPXP,161,2,994,Correct,10,784
10,VFQPV,233,2,1215,Correct,10,908
10,ZPZRZ,222,2,1476,Correct,10,882
10,CYCVC,162,2,1158,Correct,10,720
10,CPCPC,151,1,903,Correct,10,712
10,YZYQY,72,[2][3],[897][1409],Correct,10,716
10,FVFXF,14,2,1534,Correct,10,681
10,YNYNQ,225,1,1087,Correct,10,742
10,ZYZYZ,113,1,1432,Correct,10,933
10,FRFSF,181,2,1300,Incorrect,10,891
10,XNXPX,16,2,1480,Correct,10,887
10,NXNXN,151,1,1507,Correct,10,908
10,PVPZP,161,2,774,Correct,10,719
10,XVXPX,162,2,1423,Correct,10,839
10,FXFVF,163,2,709,Correct,10,670
10,NSNKN,172,2,808,Incorrect,10,683
10,VXVNV,16,2,921,Correct,10,658
10,XZXZX,151,1,930,Correct,10,697
10,VQVQV,8,[1][3],[883][1250],Correct,10,701
10,ZYZPZ,14,2,540,Correct,10,819
10,PZPSP,183,2,795,Correct,10,885
10,YVYVY,15,1,827,Correct,10,660
10,NCNQN,92,[2][3],[866][1218],Correct,10,714
10,FCFVF,14,2,792,Correct,10,860
10,ZFZFZ,151,1,689,Correct,10,872
10,NSNSN,194,1,909,Correct,10,848
10,YPYFY,16,2,1205,Correct,10,704
10,ZKZKZ,151,1,653,Correct,10,829
10,QZRCR,231,2,778,Correct,10,845
10,YPYVY,222,2,1385,Correct,10,683
10,ZNZNZ,151,1,707,Correct,10,667
10,VQVQV,10,[1][3],[694][1078],Correct,10,740
10,RVRZR,14,2,793,Correct,10,877
10,KRKSK,185,1,802,Incorrect,10,824
10,NPNPN,15,1,609,Correct,10,661
10,YPYPY,152,1,660,Correct,10,742
10,VCVYV,161,2,743,Correct,10,701
10,FPFNF,162,2,1336,Correct,10,669
10,QVXVX,221,2,897,Incorrect,10,720
10,ZVZRZ,222,2,1028,Correct,10,918
10,LFLFL,151,1,884,Correct,10,835
10,VLVLV,152,1,885,Correct,10,921
10,KXQXK,223,2,1102,Incorrect,10,704
10,YQYQY,11,[1][3],[1064][1400],Correct,10,823
10,YCYCY,13,2,1513,Incorrect,10,708
10,PZPYP,161,2,787,Correct,10,903
10,LPLFL,162,2,1025,Correct,10,673
10,VSVSV,196,1,865,Correct,10,814
10,VFVYQ,235,2,1110,Correct,10,839
10,CZCXC,222,2,836,Correct,10,808
10,PVPCP,162,2,1372,Correct,10,829
10,CXCXC,151,2,990,Incorrect,10,836
10,NZNZN,152,1,1394,Correct,10,758
10,YPYCY,161,2,1249,Correct,10,913
10,ZQZQZ,12,[1][3],[720][1056],Correct,10,796
11,T,5,3,8362,New Target,11,905
11,KFKFK,151,1,1023,Correct,11,860
11,LZLZL,152,1,934,Correct,11,688
11,PFPVP,161,2,710,Correct,11,869
11,FRFPF,162,2,850,Correct,11,770
11,FZFZF,151,1,716,Correct,11,744
11,VTVTV,7,[1][3],[748][1244],Correct,11,677
11,KYKCK,14,2,767,Correct,11,757
11,VPVPV,151,1,973,Correct,11,680
11,XQXQX,191,1,1121,Correct,11,733
11,PZPYP,16,2,732,Correct,11,905
11,KXKLK,162,2,692,Correct,11,852
11,TCNCN,221,1,751,Correct,11,872
11,PZPNP,222,2,887,Correct,11,899
11,RCRPR,162,2,1183,Correct,11,737
11,PZPRT,235,2,1270,Correct,11,940
11,XFXVX,222,2,799,Correct,11,700
11,LTLVL,81,[2][3],[928][1312],Correct,11,738
11,ZCZPZ,14,2,888,Correct,11,838
11,NCNQN,182,2,692,Correct,11,674
11,XZXNX,16,2,757,Correct,11,714
11,ZPZPZ,151,2,1124,Incorrect,11,710
11,CFCFC,152,1,694,Correct,11,677
11,VXTRV,233,2,1370,Correct,11,664
11,CFCVC,222,1,1537,Incorrect,11,717
11,PYPYP,151,1,1201,Correct,11,756
11,FQFYF,173,2,1198,Correct,11,702
11,CNCFC,16,2,925,Correct,11,662
11,PTPTP,9,[1][3],[895][1359],Correct,11,802
11,ZCZCZ,13,2,718,Incorrect,11,796
11,KZKZK,152,1,649,Correct,11,862
11,RLRVR,161,2,692,Correct,11,880
11,ZRZKZ,162,2,1007,Correct,11,928
11,KLKLT,225,1,1107,Correct,11,728
11,ZQZQZ,194,1,1187,Correct,11,792
11,VZVZV,15,1,1484,Correct,11,825
11,RVRZR,161,2,1225,Correct,11,853
11,ZPZCZ,162,2,1164,Correct,11,931
11,VYVYV,151,1,1270,Correct,11,833
11,RVRVR,152,1,874,Correct,11,908
11,PTPTP,10,[1][3],[863][1231],Correct,11,731
11,PXPXP,13,1,1033,Correct,11,667
11,KCKCK,152,1,954,Correct,11,769
11,YVYVY,153,1,976,Correct,11,703
11,CYCYC,154,1,644,Correct,11,754
11,XCXCX,155,1,661,Correct,11,816
11,CYCQC,185,2,762,Correct,11,651
11,KCKNK,16,2,662,Correct,11,808
11,VPVPV,151,1,772,Correct,11,823
11,TXFZF,231,2,882,Correct,11,662
11,NYNVN,222,1,996,Incorrect,11,903
11,VQVXV,176,2,577,Correct,11,891
11,ZRZRZ,15,1,1041,Correct,11,872
11,VTVZV,111,[1][3],[1138][1506],Incorrect,11,841
11,PXPVP,14,2,1491,Correct,11,932
11,FVFVF,151,1,719,Correct,11,898
11,VRVLV,161,2,1306,Correct,11,853
11,YCYCY,151,1,814,Correct,11,887
11,XZTZX,223,1,1043,Correct,11,940
11,VTVTV,12,[1][3],[619][1003],Correct,11,804
12,O,5,3,8975,New Target,12,800
12,VXVLV,161,1,1158,Incorrect,12,763
12,KVKCK,162,2,1138,Correct,12,755
12,VLVLV,151,1,752,Correct,12,777
12,ZCZVZ,161,2,1079,Correct,12,902
12,KFKFK,151,1,1141,Correct,12,795
12,XKXKX,152,1,710,Correct,12,696
12,YXYXY,153,1,748,Correct,12,935
12,FVFVF,154,1,646,Correct,12,875
12,PVPOP,72,[2][3],[644][1092],Correct,12,717
12,ZXZYZ,14,2,1085,Correct,12,895
12,PXPVP,162,2,633,Correct,12,788
12,ZTZTZ,191,1,1052,Correct,12,780
12,CVCKC,16,2,1069,Correct,12,796
12,CKCKC,151,2,1007,Incorrect,12,676
12,NPNPN,152,1,1010,Correct,12,825
12,ZRZNZ,161,2,798,Correct,12,925
12,OZCZC,221,2,1161,Incorrect,12,723
12,LFLFL,113,1,692,Correct,12,874
12,CXCXC,152,1,595,Correct,12,759
12,KPKPK,153,1,806,Correct,12,794
12,FRFKF,161,2,1001,Correct,12,928
12,FOFOF,8,[1][3],[772][1284],Correct,12,763
12,ZFZFZ,13,1,647,Correct,12,930
12,LKLZO,235,2,797,Correct,12,652
12,KLKZK,222,2,932,Correct,12,885
12,YXYCY,162,2,1384,Correct,12,814
12,LOLOL,9,[1][3],[715][1067],Correct,12,921
12,XLXLX,13,1,1195,Correct,12,866
12,XVXVX,152,1,818,Correct,12,903
12,FTFTF,192,1,800,Correct,12,673
12,OXNZN,231,2,1128,Correct,12,814
12,CZCZC,113,1,1193,Correct,12,703
12,LZLZL,152,1,976,Correct,12,936
12,VLVPV,161,2,897,Correct,12,812
12,VYVYO,225,1,781,Correct,12,729
12,XKXKX,113,1,739,Correct,12,838
12,RTRTR,193,1,1071,Correct,12,828
12,KVKCK,16,2,1021,Correct,12,843
12,ROROR,101,[1],[595],Incorrect,12,777
12,PRPRP,13,2,709,Incorrect,12,712
12,LYLVL,161,2,833,Correct,12,785
12,PLPLP,151,1,712,Correct,12,775
12,CTCTC,194,1,761,Correct,12,668
12,XZXYX,16,2,689,Correct,12,844
12,NKNKN,151,1,974,Correct,12,873
12,VLVZV,161,2,786,Correct,12,763
12,YOYOY,11,[1][3],[632][935],Correct,12,660
12,PZOZP,223,2,867,Incorrect,12,774
12,FYFYF,113,1,1052,Correct,12,767
12,ZXZVZ,161,2,705,Correct,12,699
12,VKVZV,162,1,1310,Incorrect,12,775
12,ZTZTZ,195,1,774,Correct,12,782
12,LKLZL,16,2,830,Correct,12,855
12,KCKVK,162,2,867,Correct,12,935
12,PXPKP,163,2,1365,Correct,12,947
12,KCOZK,233,2,1411,Correct,12,944
12,FKFKF,113,2,1161,Incorrect,12,713
12,CTCRC,176,2,1431,Correct,12,743
12,NXNXN,15,1,1048,Correct,12,853
12,KXKVK,161,2,937,Correct,12,746
12,CPCOC,122,[2][3],[1092][1380],Correct,12,921
13,H,5,3,1579,New Target,13,916
13,VFVNV,151,2,692,Incorrect,13,830
13,YVYVY,152,1,674,Correct,13,779
13,XVXVX,153,1,592,Correct,13,832
13,NRNXN,161,2,619,Correct,13,931
13,PZPKP,162,2,892,Correct,13,750
13,HLVLV,221,1,957,Correct,13,901
13,CXCZC,222,2,751,Correct,13,810
13,LHLYL,71,[1][3],[1197][1549],Incorrect,13,724
13,YKYFY,14,2,1118,Correct,13,848
13,YOYRY,171,2,702,Correct,13,792
13,ZKZYZ,16,2,1215,Correct,13,703
13,RZRZR,151,1,870,Correct,13,788
13,NFNYN,161,2,1382,Correct,13,922
13,KVKFK,162,2,619,Correct,13,757
13,XFXYX,163,2,605,Correct,13,790
13,LKLVL,164,2,706,Correct,13,683
13,NLNLN,151,2,954,Incorrect,13,881
13,XCXOX,182,2,754,Correct,13,673
13,FXFXF,15,1,691,Correct,13,652
13,VHVHV,8,[1][3],[753][1041],Correct,13,666
13,PVPVP,13,2,616,Incorrect,13,921
13,CRCXC,161,2,702,Correct,13,667
13,NXNXN,151,1,961,Correct,13,688
13,XRXRX,152,1,977,Correct,13,854
13,YFYXY,161,2,1055,Correct,13,926
13,ZOZOZ,193,1,643,Correct,13,663
13,RZRZR,15,1,798,Correct,13,914
13,FKFKF,152,1,899,Correct,13,918
13,PFPFP,153,1,671,Correct,13,688
13,XYXHX,92,[1][3],[683][1178],Incorrect,13,832
13,RZRKR,14,1,663,Incorrect,13,657
13,FLFLH,225,1,870,Correct,13,771
13,KRKRK,113,2,1436,Incorrect,13,855
13,ZVZNZ,161,2,814,Correct,13,723
13,ZOZOZ,194,1,994,Correct,13,882
13,FZFZF,15,1,578,Correct,13,866
13,FHFKF,101,[2][3],[778][1258],Correct,13,810
13,ZXHLZ,233,2,1319,Correct,13,736
13,FKFXF,222,2,1213,Correct,13,755
13,CFCYC,162,2,1175,Correct,13,814
13,ZXZVZ,163,2,910,Correct,13,944
13,KCKOK,185,2,916,Correct,13,789
13,ZXZVH,235,2,1205,Correct,13,869
13,CKCKC,113,1,1011,Correct,13,731
13,ZXZCZ,161,2,1361,Correct,13,903
13,YVYVY,151,1,1217,Correct,13,912
13,RVHVR,223,1,1408,Correct,13,706
13,ZRZRZ,113,1,992,Correct,13,855
13,ZHZHZ,11,[1][3],[757][1173],Correct,13,842
13,VZVZV,13,1,744,Correct,13,734
13,HZVRV,231,2,723,Correct,13,867
13,FVFVF,113,1,924,Correct,13,919
13,RNRCR,161,2,1068,Correct,13,935
13,COCOC,196,1,976,Correct,13,665
13,VNVXV,16,2,1042,Correct,13,804
13,XHXHX,12,[1][3],[688][1088],Correct,13,904
14,G,5,3,1763,New Target,14,904
14,FZFZF,151,1,720,Correct,14,704
14,RPRVR,161,2,686,Correct,14,792
14,XCXCX,151,1,643,Correct,14,652
14,YXYXY,152,1,596,Correct,14,737
14,KZKZK,153,1,517,Correct,14,871
14,RYRKR,161,2,655,Correct,14,664
14,FYFNF,162,2,718,Correct,14,834
14,VKVKV,151,1,748,Correct,14,743
14,KPGPK,223,1,860,Correct,14,678
14,YNYNY,113,1,570,Correct,14,659
14,VYVYV,152,1,636,Correct,14,804
14,YCYXY,161,2,575,Correct,14,753
14,LKLGL,72,[2],[1095],Incorrect,14,726
14,VXVXV,13,1,824,Correct,14,794
14,KCKVK,161,2,821,Correct,14,709
14,YKYKY,151,1,673,Correct,14,776
14,RHRXR,171,2,925,Correct,14,816
14,FVFCF,16,2,1310,Correct,14,897
14,YXYGY,82,[1][3],[768][1135],Incorrect,14,703
14,CLCLC,13,2,1023,Incorrect,14,747
14,ZXZCZ,161,2,1442,Correct,14,803
14,VLVFV,162,2,899,Correct,14,779
14,CPCPG,225,1,1235,Correct,14,919
14,KHKNK,172,2,1464,Correct,14,890
14,ZKZVZ,16,2,760,Correct,14,793
14,YKYLY,162,2,671,Correct,14,913
14,CNCNC,151,2,768,Incorrect,14,729
14,PGPGP,9,[1][3],[768][1040],Correct,14,809
14,VPVPV,13,1,887,Correct,14,744
14,FXGRF,233,2,1118,Correct,14,779
14,CYCVC,222,2,1355,Correct,14,733
14,FNFNF,151,1,830,Correct,14,870
14,KFKCK,161,2,885,Correct,14,903
14,ZFZHZ,183,2,971,Correct,14,830
14,NXNXN,15,2,622,Incorrect,14,772
14,FNFNF,152,1,685,Correct,14,852
14,LXLNG,235,2,751,Correct,14,651
14,XKXVX,222,1,1064,Incorrect,14,904
14,ZHZHZ,194,1,706,Correct,14,855
14,PFPFP,15,1,721,Correct,14,787
14,ZYZYZ,152,1,746,Correct,14,901
14,XPXVX,161,2,674,Correct,14,873
14,YCYCY,151,1,880,Correct,14,805
14,RGRGR,10,[1][3],[663][1047],Correct,14,733
14,VRVRV,13,1,657,Correct,14,798
14,PKPNP,161,1,814,Incorrect,14,871
14,XGXGX,11,,,Incorrect,14,828
14,GZYVY,231,2,845,Correct,14,666
14,VCVNV,222,1,1217,Incorrect,14,944
14,VHVHV,195,1,1118,Correct,14,678
14,LXLNL,16,2,863,Correct,14,675
14,GKPKP,221,2,838,Incorrect,14,777
14,XRXPX,222,2,1090,Correct,14,699
14,XNXNX,151,1,702,Correct,14,827
14,KHKNK,176,2,859,Incorrect,14,820
14,RZRZR,15,1,790,Correct,14,747
14,CGCFC,121,[2],[842],Incorrect,14,740
15,A,5,3,2137,New Target,15,909
15,XRXFX,161,2,896,Correct,15,677
15,RXRKR,162,2,1283,Correct,15,889
15,YRYRY,151,1,764,Correct,15,764
15,XPXPX,152,1,1095,Correct,15,813
15,RPRPR,153,1,839,Correct,15,796
15,NCNCN,154,1,714,Correct,15,947
15,RXRZR,161,2,711,Correct,15,737
15,NANAN,7,[1][3],[766][1149],Correct,15,869
15,KCKYK,14,2,931,Correct,15,928
15,XKXFX,162,2,1129,Correct,15,735
15,ZLZKZ,163,2,937,Correct,15,713
15,VCVZV,164,2,768,Correct,15,732
15,XCXVX,165,2,651,Correct,15,827
15,LKLZA,235,2,812,Correct,15,675
15,NCNCN,113,1,1315,Correct,15,863
15,YGYGY,191,1,851,Correct,15,944
15,VLVLV,15,2,762,Incorrect,15,789
15,XRXRX,152,1,672,Correct,15,894
15,KAKPK,81,[2][3],[741][1205],Correct,15,694
15,YZAZY,233,1,1259,Incorrect,15,708
15,CFCFC,113,1,709,Correct,15,787
15,VNVLV,161,2,1059,Correct,15,816
15,KPKVK,162,2,959,Correct,15,865
15,NCNRN,163,2,899,Correct,15,755
15,FGFGF,192,1,852,Correct,15,876
15,RCRYR,16,2,941,Correct,15,717
15,KRKCK,162,2,977,Correct,15,787
15,CRCRC,151,1,720,Correct,15,889
15,XPAPX,223,2,893,Incorrect,15,821
15,LPLXL,222,2,958,Correct,15,904
15,CGCVC,173,,,Incorrect,15,714
15,FKFZF,16,2,1299,Correct,15,684
15,CACAC,9,[1][3],[658][978],Correct,15,653
15,XCXCX,13,2,924,Incorrect,15,798
15,AXRXR,221,1,959,Correct,15,852
15,NKNRN,222,2,578,Correct,15,765
15,KNKFK,162,2,661,Correct,15,803
15,KAKAK,10,[1][3],[598][934],Correct,15,768
15,ZCZRZ,14,2,839,Correct,15,683
15,RPRPR,151,1,651,Correct,15,870
15,NCNCN,152,1,566,Correct,15,949
15,RYRGR,184,2,743,Correct,15,767
15,VPVPV,15,1,852,Correct,15,798
15,RCRCA,225,2,1402,Incorrect,15,756
15,KXKPK,222,2,1033,Correct,15,860
15,NPNPN,151,2,933,Incorrect,15,928
15,YCYCY,152,1,811,Correct,15,797
15,PXPAP,112,[2][3],[880][1248],Correct,15,742
15,ZCZNZ,14,2,986,Correct,15,768
15,KYKGK,185,2,831,Correct,15,758
15,ANLPL,231,2,1066,Correct,15,707
15,CXCPC,222,2,727,Correct,15,815
15,YRYRY,151,1,1187,Correct,15,815
15,LGLGL,196,1,700,Correct,15,882
15,VYVLV,16,2,1342,Correct,15,676
15,KVKVK,151,1,1489,Correct,15,827
15,RKRKR,152,,,Incorrect,15,741
15,VXVXV,153,1,730,Correct,15,875
15,XAXAX,12,[1][3],[789][1141],Correct,15,688
