Trial No,Stimulus,Trigger,Response,Response Time(ms),Correct,Block,Fixation Duration
Practice
OT Practice
1,SKSKS,15,1,1019,Correct,0,691
1,DLDUD,16,2,605,Correct,0,654
1,PDPGP,16,2,813,Correct,0,714
1,MWMWM,15,1,824,Correct,0,702
1,FTFTF,15,1,607,Correct,0,687
1,AXAMA,16,2,623,Correct,0,756
1,RYRGR,16,2,656,Correct,0,765
1,DODOD,15,1,554,Correct,0,852
1,QTQAQ,16,2,541,Correct,0,694
1,YEYEY,15,1,652,Correct,0,826
2,GYGDG,16,2,669,Correct,0,724
2,SWSWS,15,1,514,Correct,0,926
2,HLHUH,16,2,562,Correct,0,830
2,DEDED,15,1,480,Correct,0,841
2,ZPZOZ,16,2,477,Correct,0,934
2,ATATA,15,1,460,Correct,0,872
2,QOQOQ,15,2,403,False,0,691
2,FPFGF,16,2,749,Correct,0,681
2,TRTET,16,2,662,Correct,0,772
2,DQDQD,15,1,437,Correct,0,740
AT Practice
1,TKTKT,15,1,672,Correct,0,730
1,SLSUS,16,2,615,Correct,0,840
1,VZVGV,7,2,755,False,0,817
1,XWXZX,7,3,793,Correct,0,849
1,ATATA,15,1,642,Correct,0,743
1,HXZMH,16,2,958,Correct,0,826
1,TZTZT,7,3,843,Correct,0,843
1,UOUOU,15,1,557,Correct,0,887
1,ZTWAW,16,2,587,Correct,0,874
1,RZRER,7,3,775,Correct,0,874
2,JYJDJ,16,2,657,Correct,0,895
2,DWDWD,15,1,530,Correct,0,714
2,GNGNG,7,1,557,False,0,933
2,NEZEZ,16,1,838,Correct,0,925
2,RNROR,7,3,522,Correct,0,818
2,QTQNQ,7,3,609,Correct,0,676
2,HOHON,15,1,670,Correct,0,853
2,KPKGK,16,2,667,Correct,0,728
2,DRDED,16,1,705,False,0,915
2,LNLNL,7,3,666,Correct,0,840
4,GLGLG,15,1,699,Correct,0,727
4,DTDID,16,2,736,Correct,0,925
4,SMSGS,16,2,747,Correct,0,697
4,ZFZYZ,7,3,648,Correct,0,733
4,TSTFT,7,3,727,Correct,0,686
4,OFOFO,7,3,649,Correct,0,950
4,WYFGW,16,2,830,Correct,0,933
4,WYWYW,15,1,657,Correct,0,848
4,MFMCM,7,3,464,Correct,0,764
4,HQHEH,16,2,677,Correct,0,706
Trials
1,D,5,3,49683,New Target,1,758
1,ZNZYZ,161,2,781,Correct,1,777
1,FZFZF,151,1,626,Correct,1,907
1,RKRKR,152,1,652,Correct,1,949
1,RXRNR,161,2,639,Correct,1,693
1,CNCFC,162,2,849,Correct,1,740
1,PDPDP,7,1,778,Incorrect,1,768
1,CPCFC,14,2,658,Correct,1,823
1,VLVNV,162,2,689,Correct,1,845
1,KFKFK,151,1,730,Correct,1,906
1,ZNZNZ,152,1,763,Correct,1,716
1,KCKPD,235,2,665,Correct,1,743
1,ZKZFZ,222,2,772,Correct,1,901
1,NRNZN,162,2,848,Correct,1,792
1,KXKRK,163,2,628,Correct,1,909
1,YPYZY,164,2,631,Correct,1,684
1,FKDKF,223,1,857,Correct,1,718
1,RPRPR,113,1,749,Correct,1,852
1,VRVKV,161,2,677,Correct,1,874
1,RFRPR,162,2,674,Correct,1,862
1,KVKVK,151,1,790,Correct,1,709
1,YKYVY,161,2,636,Correct,1,871
1,VDVDV,8,1,658,Incorrect,1,666
1,DVZVZ,221,2,586,Incorrect,1,941
1,YFYFY,113,1,776,Correct,1,930
1,ZYZYZ,152,1,596,Correct,1,767
1,VLVXV,161,2,617,Correct,1,711
1,DPXZX,231,2,669,Correct,1,718
1,RYRYR,113,1,888,Correct,1,909
1,PDPNP,91,2,780,Incorrect,1,826
1,KXKXK,13,1,961,Correct,1,912
1,ZYZYZ,152,1,634,Correct,1,683
1,VKVKV,153,1,844,Correct,1,729
1,YZYZY,154,1,687,Correct,1,936
1,NLNZN,161,2,719,Correct,1,682
1,ZNDYZ,233,2,701,Correct,1,743
1,PCPXP,222,2,630,Correct,1,869
1,ZVZFZ,162,2,593,Correct,1,916
1,RCRZR,163,2,689,Correct,1,821
1,LRLRL,151,1,705,Correct,1,727
1,ZDZDZ,10,3,473,Correct,1,899
1,RNRZR,14,2,717,Correct,1,862
1,CXCYC,162,2,829,Correct,1,693
1,RCRLR,163,2,657,Correct,1,884
1,FRFRF,151,1,1140,Correct,1,694
1,XFXFX,152,1,672,Correct,1,796
1,RPRLR,161,2,825,Correct,1,943
1,YXYRY,162,2,622,Correct,1,910
1,FYFYF,151,1,698,Correct,1,909
1,YZYVY,161,2,532,Correct,1,898
1,YKYKY,151,1,654,Correct,1,672
1,XRXRX,152,1,691,Correct,1,651
1,XVXZX,161,2,509,Correct,1,852
1,PDPDP,11,3,475,Correct,1,919
1,ZFZFZ,13,1,599,Correct,1,688
1,PXPXP,152,1,628,Correct,1,918
1,LYLYL,153,1,584,Correct,1,727
1,NKNKD,225,1,662,Correct,1,943
1,ZNZNZ,113,1,662,Correct,1,738
1,PYPZP,161,2,688,Correct,1,886
1,XPXPX,151,1,657,Correct,1,684
1,VLVLV,152,1,638,Correct,1,815
1,PKPXP,161,2,734,Correct,1,778
1,FZFZF,151,1,556,Correct,1,745
1,LDLDL,12,1,536,Incorrect,1,944
2,U,5,3,2691,New Target,2,883
2,ZVZFZ,161,2,701,Correct,2,812
2,FZFZF,151,1,673,Correct,2,660
2,RFRFR,152,1,539,Correct,2,888
2,NZNKN,161,2,686,Correct,2,878
2,FZFNF,162,2,823,Correct,2,813
2,RXRXR,151,1,799,Correct,2,840
2,KRKYK,161,2,685,Correct,2,650
2,NZNPN,162,2,693,Correct,2,949
2,XPXPX,151,1,609,Correct,2,817
2,CUCUC,7,3,658,Correct,2,823
2,RFRFR,13,1,675,Correct,2,706
2,VYVXV,161,2,576,Correct,2,891
2,VDVDV,191,1,663,Correct,2,678
2,ZKZRZ,15,2,698,Correct,2,683
2,XCXCX,151,1,678,Correct,2,853
2,CNCUC,82,3,657,Correct,2,904
2,RCRCR,13,1,781,Correct,2,839
2,ZPZXZ,161,2,697,Correct,2,748
2,FKFYF,162,2,742,Correct,2,804
2,ZFZYZ,163,2,740,Correct,2,727
2,PXPXP,151,1,675,Correct,2,740
2,URCKC,231,2,1101,Correct,2,927
2,PCPCP,113,1,736,Correct,2,673
2,XNXNX,152,2,1056,Incorrect,2,673
2,RCRZR,161,2,676,Correct,2,668
2,XVXVX,151,1,579,Correct,2,772
2,NRNRN,152,1,612,Correct,2,781
2,FPFPF,225,1,553,Correct,2,696
2,XVXFX,222,2,541,Correct,2,726
2,PRPRP,151,1,650,Correct,2,938
2,FYFCF,161,2,659,Correct,2,914
2,XUXFX,91,3,480,Correct,2,824
2,CYCVC,14,2,737,Correct,2,940
2,VDVKV,172,2,730,Correct,2,864
2,YCYCY,15,1,583,Correct,2,750
2,NKNLN,161,2,700,Correct,2,767
2,XPUKX,233,2,611,Correct,2,923
2,ZPZPZ,113,1,736,Correct,2,906
2,KRKRK,152,1,786,Correct,2,697
2,XKXKX,153,1,955,Correct,2,841
2,YUYVY,101,3,700,Correct,2,831
2,XKXFU,235,2,1102,Correct,2,708
2,NFNFN,113,1,665,Correct,2,837
2,KDKDK,193,1,615,Correct,2,829
2,XYXKX,16,2,675,Correct,2,932
2,YZUZY,223,1,612,Correct,2,676
2,KFKVK,222,2,659,Correct,2,828
2,LYLYL,151,2,705,Incorrect,2,810
2,CXCDC,184,2,701,Incorrect,2,811
2,XZXNX,16,2,787,Correct,2,946
2,PXPXP,151,1,691,Correct,2,660
2,ZRZYZ,161,2,621,Correct,2,875
2,PUPYP,111,3,505,Correct,2,879
2,RNRNR,14,1,864,Correct,2,722
2,KDKDK,195,1,618,Correct,2,744
2,KNKNK,15,1,529,Correct,2,675
2,PRPKP,161,2,633,Correct,2,734
2,UNYNY,221,1,683,Correct,2,684
2,NYNYN,113,2,636,Incorrect,2,729
2,YXYXY,152,1,648,Incorrect,2,947
2,RDRDR,196,1,534,Correct,2,818
2,FCFCF,15,1,507,Correct,2,777
2,ZKZKZ,152,1,524,Correct,2,905
2,ZUZUZ,12,3,498,Correct,2,781
3,E,5,3,3276,New Target,3,732
3,YZYZY,151,1,629,Correct,3,835
3,VFVNV,161,2,740,Correct,3,789
3,KYKYK,151,1,581,Correct,3,665
3,NKNKN,152,1,697,Correct,3,775
3,XVXNX,161,2,643,Correct,3,946
3,RERFR,71,3,760,Correct,3,709
3,XNXNX,13,1,644,Correct,3,736
3,NXNXN,152,1,847,Correct,3,883
3,ZLZNZ,161,2,1405,Correct,3,672
3,CUCNC,171,2,901,Correct,3,666
3,FYFRF,16,2,1116,Correct,3,754
3,ZLZLZ,151,1,606,Correct,3,678
3,YZYZY,152,1,575,Correct,3,815
3,CYCYC,153,1,629,Correct,3,655
3,VUVUV,192,1,651,Correct,3,735
3,PXPRP,16,2,666,Correct,3,802
3,YPYPY,151,1,569,Correct,3,742
3,CECEC,8,3,815,Correct,3,669
3,VNENV,223,1,817,Correct,3,926
3,KRKFK,222,2,729,Correct,3,769
3,XLXLE,225,1,600,Correct,3,725
3,RFRUR,183,2,636,Correct,3,730
3,XRXLX,16,2,655,Correct,3,683
3,NZNPN,162,2,637,Correct,3,817
3,XZXZX,151,1,464,Correct,3,721
3,FZFZF,152,1,706,Correct,3,916
3,PFPFP,153,1,703,Correct,3,830
3,YZYXY,161,2,720,Correct,3,666
3,KEKEK,9,3,726,Correct,3,934
3,CXCPC,14,2,687,Correct,3,879
3,VXVXV,151,1,746,Correct,3,847
3,NUNZN,174,2,1075,Correct,3,858
3,RKRVR,16,2,672,Correct,3,854
3,XRXRX,151,1,732,Correct,3,891
3,ERNFN,231,2,740,Incorrect,3,927
3,YRYNY,222,2,852,Correct,3,688
3,PZPEP,102,3,821,Correct,3,950
3,ZYZXZ,14,2,639,Correct,3,716
3,RZRVR,162,2,650,Correct,3,891
3,XRXRX,151,1,732,Correct,3,801
3,KUKFK,175,2,651,Correct,3,670
3,RKRKR,15,1,607,Correct,3,707
3,ZFZFZ,152,1,710,Correct,3,671
3,YZYVY,161,2,729,Correct,3,701
3,XPXNX,162,2,643,Correct,3,831
3,YRYRY,151,1,689,Correct,3,785
3,EPVPV,221,1,849,Correct,3,795
3,CRCEC,112,2,669,Incorrect,3,711
3,RFRCR,14,2,1035,Correct,3,827
3,CPCVC,162,2,786,Correct,3,679
3,RXRCR,163,2,613,Correct,3,940
3,VNVLV,164,2,1188,Correct,3,857
3,ZXZXZ,151,1,685,Correct,3,871
3,ZCZCZ,152,1,693,Correct,3,948
3,PYPUP,186,2,588,Correct,3,909
3,YKYPY,16,2,818,Correct,3,676
3,YREXY,233,2,1212,Correct,3,791
3,ZKZKZ,113,1,725,Correct,3,835
3,XLXNX,161,2,849,Correct,3,838
3,KFKRE,235,2,775,Correct,3,750
3,RXRLR,222,2,881,Correct,3,825
3,RERXR,121,3,485,Correct,3,865
4,J,5,3,1596,New Target,4,855
4,CYCVC,161,2,735,Correct,4,929
4,RXRCR,162,2,587,Correct,4,819
4,FPFVF,163,2,691,Correct,4,658
4,LZLZL,151,1,1023,Correct,4,831
4,PLPLP,152,1,844,Correct,4,897
4,NPNPN,153,1,663,Correct,4,756
4,XZXZX,161,1,659,Incorrect,4,884
4,CNCKC,162,2,834,Correct,4,806
4,PCPYJ,235,2,675,Correct,4,934
4,VYVYV,113,1,796,Correct,4,938
4,RLRLR,152,1,835,Correct,4,890
4,CJCJC,7,3,688,Correct,4,685
4,ZLZLZ,13,1,754,Correct,4,654
4,FZFZF,152,1,640,Correct,4,728
4,CFCFC,153,1,576,Correct,4,806
4,PZPZP,154,1,592,Correct,4,862
4,XEXEX,191,1,672,Correct,4,894
4,NVNFN,16,2,707,Correct,4,724
4,KYKYK,151,1,673,Correct,4,733
4,ZNZVZ,161,2,671,Correct,4,787
4,YVJXY,233,2,1096,Correct,4,934
4,XFXFX,113,1,592,Correct,4,926
4,XNXNX,152,1,563,Correct,4,732
4,FJFKF,81,2,697,Incorrect,4,751
4,CZCYC,14,2,789,Correct,4,797
4,ZXZCZ,162,2,674,Correct,4,676
4,RYRYJ,225,1,732,Correct,4,918
4,FPFZF,222,2,748,Correct,4,726
4,XRXRX,151,1,666,Correct,4,795
4,YPYEY,182,2,678,Correct,4,809
4,XRXRX,15,1,754,Correct,4,857
4,XZXPX,161,2,868,Correct,4,671
4,CJCJC,9,3,763,Correct,4,829
4,ZXZVZ,14,2,744,Correct,4,766
4,VKVKV,151,1,661,Correct,4,778
4,VEVNV,173,2,621,Correct,4,938
4,ZKZVZ,16,2,745,Correct,4,853
4,XVXJX,102,3,680,Correct,4,741
4,RXRVR,14,2,708,Correct,4,823
4,LRLRL,151,1,912,Correct,4,807
4,YNJNY,223,2,679,Incorrect,4,807
4,NPNJN,222,3,724,Incorrect,4,827
4,ZEZEZ,194,1,783,Correct,4,810
4,ZNZNZ,15,1,619,Correct,4,721
4,YZYZY,152,1,602,Correct,4,820
4,XYXYX,153,1,608,Correct,4,665
4,ZXZXZ,221,1,725,Correct,4,726
4,LYLZL,222,2,764,Correct,4,882
4,CYCNC,162,2,681,Correct,4,755
4,XEXEX,195,1,592,Correct,4,923
4,CVCXC,16,2,645,Correct,4,718
4,ZPZXZ,162,2,692,Correct,4,805
4,FZFZF,151,1,786,Correct,4,801
4,RXRJR,112,3,809,Correct,4,890
4,PRPFP,14,2,767,Correct,4,900
4,PKPEP,186,2,686,Correct,4,662
4,XZXPX,16,2,844,Correct,4,751
4,JCZVZ,231,2,1238,Correct,4,690
4,RXRLR,222,2,1253,Correct,4,732
4,VZVZV,151,1,765,Correct,4,757
4,XJXJX,12,3,523,Correct,4,653
5,I,5,3,1507,New Target,5,657
5,PCPCP,151,1,863,Correct,5,799
5,XYXYX,152,1,538,Correct,5,698
5,VXVXV,153,2,615,Incorrect,5,935
5,XVXVX,154,1,584,Correct,5,731
5,ZRZXZ,161,2,706,Correct,5,938
5,FPFZF,162,2,754,Correct,5,684
5,ZYZYZ,151,1,684,Correct,5,859
5,RVRZR,161,2,747,Correct,5,766
5,CICIC,7,3,514,Correct,5,918
5,XLXLX,13,1,635,Correct,5,703
5,YVYVY,152,1,614,Correct,5,884
5,CJCJC,191,1,1346,Correct,5,912
5,FNFCF,16,2,811,Correct,5,737
5,PVPRP,162,2,746,Correct,5,659
5,FZFZF,151,1,598,Correct,5,717
5,NVIVN,223,1,652,Correct,5,685
5,CVCIC,82,3,745,Correct,5,890
5,ZXZXZ,13,2,645,Incorrect,5,812
5,FCFZF,161,2,807,Correct,5,709
5,IXRXR,221,1,747,Correct,5,924
5,ZPZNZ,222,2,747,Correct,5,710
5,VZVZV,151,1,504,Correct,5,729
5,YRYNY,161,2,621,Correct,5,745
5,VNVPV,162,2,689,Correct,5,719
5,RVRJR,182,2,1397,Correct,5,664
5,VRVRV,15,1,759,Correct,5,868
5,VIVIV,9,3,765,Correct,5,926
5,CXCVC,14,2,621,Correct,5,695
5,PZPZP,151,1,711,Correct,5,912
5,IXVKV,231,2,500,Correct,5,785
5,YJYCY,173,2,659,Incorrect,5,899
5,VYVYV,15,1,500,Correct,5,764
5,YVYVY,152,1,523,Correct,5,771
5,NVNVN,153,1,760,Correct,5,932
5,XYXVX,161,2,834,Correct,5,803
5,NJNCN,174,2,831,Correct,5,694
5,NXNYN,16,2,664,Correct,5,743
5,VXVCV,162,2,758,Correct,5,780
5,ZKZKZ,151,1,699,Correct,5,910
5,XRXYX,161,2,1011,Correct,5,939
5,ZCZXZ,162,2,661,Correct,5,803
5,KVKYI,235,2,646,Correct,5,751
5,CNCNC,113,1,821,Correct,5,750
5,RIRIR,10,3,704,Correct,5,730
5,VYVXV,14,2,828,Correct,5,810
5,FXIRF,233,2,1137,Correct,5,906
5,PFPFP,113,1,747,Correct,5,817
5,VPVPV,152,1,1085,Correct,5,665
5,ZJZJZ,195,1,924,Correct,5,783
5,ZVZNZ,16,2,828,Correct,5,912
5,YVYXY,162,2,808,Correct,5,693
5,PRPRP,151,1,997,Correct,5,742
5,YPYPY,152,1,677,Correct,5,885
5,ZIZPZ,111,3,947,Correct,5,754
5,NKNXN,14,2,882,Correct,5,940
5,RZRXR,162,2,700,Correct,5,683
5,RXRXR,151,1,773,Correct,5,891
5,ZJZJZ,196,1,769,Correct,5,819
5,CVCVI,225,1,1025,Incorrect,5,672
5,NKNKN,113,1,820,Correct,5,744
5,NRNZN,161,2,719,Correct,5,727
5,CNCNC,151,1,727,Correct,5,850
5,RFRIR,122,3,972,Correct,5,728
6,B,5,3,1173,New Target,6,901
6,YKYZY,161,2,763,Correct,6,933
6,VCVRV,162,2,581,Correct,6,817
6,XVXVX,151,1,604,Correct,6,931
6,KZKRK,161,2,720,Correct,6,940
6,ZVZXZ,162,2,838,Correct,6,947
6,RCRNR,163,2,701,Correct,6,665
6,CXCRC,164,2,822,Correct,6,654
6,VNBCV,233,2,744,Correct,6,824
6,CXCVC,222,2,934,Correct,6,835
6,RFRFR,151,1,879,Correct,6,901
6,XPXRX,161,2,799,Correct,6,756
6,RYRBR,72,3,611,Correct,6,898
6,ZKZKZ,13,1,622,Correct,6,922
6,FIFRF,171,2,634,Correct,6,928
6,VZVLV,16,2,566,Correct,6,908
6,RPRVR,162,2,647,Correct,6,911
6,YBYBY,8,3,864,Correct,6,932
6,PYPVP,14,2,757,Correct,6,899
6,NININ,192,1,1030,Correct,6,660
6,RNRNR,15,1,740,Correct,6,846
6,NXNVN,161,2,722,Correct,6,870
6,RNRNR,151,1,756,Correct,6,727
6,FRFVF,161,2,727,Correct,6,857
6,YVYFB,235,2,706,Incorrect,6,688
6,ZRZXZ,222,2,625,Correct,6,665
6,VNVIV,193,2,884,Incorrect,6,736
6,PXPNP,16,1,761,Incorrect,6,679
6,ZXZPZ,162,2,704,Correct,6,854
6,VBVBV,9,3,791,Correct,6,811
6,CXCXC,13,1,719,Correct,6,704
6,PCPFP,161,2,657,Correct,6,775
6,KNKNK,151,1,733,Correct,6,887
6,XIXIX,194,1,702,Correct,6,875
6,CYCYC,15,1,690,Correct,6,805
6,FVFYF,161,2,733,Correct,6,663
6,YNYRY,162,2,858,Correct,6,922
6,BVPXP,231,2,846,Correct,6,755
6,NXNXN,113,1,1207,Correct,6,896
6,FRFRF,152,1,741,Correct,6,808
6,YVYVY,153,1,624,Correct,6,741
6,ZKZCZ,161,2,722,Correct,6,870
6,VIVXV,175,2,805,Correct,6,861
6,PRBRP,223,1,882,Correct,6,653
6,YZYBY,102,3,973,Correct,6,684
6,CXCVC,14,2,744,Correct,6,786
6,FYFYF,151,1,961,Correct,6,687
6,VKVXV,161,2,1027,Correct,6,802
6,ZBZBZ,11,3,763,Correct,6,838
6,FPFNF,14,2,688,Correct,6,660
6,CXCXC,151,1,668,Correct,6,883
6,YCYCY,152,1,640,Correct,6,751
6,FPFPF,153,1,719,Correct,6,719
6,CVCVB,225,1,647,Correct,6,870
6,ZCZCZ,113,1,618,Correct,6,758
6,CZCNC,161,2,774,Correct,6,916
6,KIKFK,176,2,660,Correct,6,736
6,PXPXP,15,1,722,Correct,6,896
6,RYRYR,152,1,683,Correct,6,855
6,ZRZCZ,161,2,684,Correct,6,674
6,RVRVR,151,1,937,Correct,6,787
6,XYXNX,161,2,745,Correct,6,902
6,BVKVK,221,1,725,Correct,6,850
6,CBCBC,12,3,840,Correct,6,876
7,W,5,3,1319,New Target,7,861
7,RKRKR,151,1,611,Correct,7,693
7,CVCRC,161,2,675,Correct,7,741
7,PKPKP,151,1,589,Correct,7,905
7,FPFPF,152,1,614,Correct,7,695
7,VRVPV,161,2,938,Correct,7,884
7,ZKZYZ,162,2,834,Correct,7,850
7,PVPCP,233,2,744,Correct,7,809
7,KVKVK,113,1,918,Correct,7,780
7,YXYVY,161,2,1053,Correct,7,720
7,FNFNF,151,1,738,Correct,7,650
7,YWYWY,7,3,866,Correct,7,728
7,ZYZYZ,13,1,871,Correct,7,821
7,PYPYP,152,1,749,Correct,7,666
7,XRXRX,153,1,711,Correct,7,946
7,PXPXP,154,1,914,Correct,7,855
7,FCFBF,181,2,695,Correct,7,759
7,FVFVF,15,1,834,Correct,7,945
7,CYCZC,161,2,951,Correct,7,768
7,XZXVX,162,2,796,Correct,7,789
7,PFPFP,151,1,755,Correct,7,861
7,RVRLR,161,2,731,Correct,7,776
7,ZBZBZ,192,1,1359,Correct,7,737
7,VCVNV,16,2,993,Correct,7,926
7,NWNWN,8,3,724,Correct,7,868
7,XNXVX,14,2,743,Correct,7,898
7,CXCNC,162,2,807,Correct,7,741
7,YVYVW,225,1,742,Correct,7,850
7,VFVFV,113,1,766,Correct,7,820
7,VFWFV,223,1,677,Correct,7,715
7,CVCFC,222,2,705,Correct,7,915
7,YBYBY,193,1,1292,Correct,7,883
7,PYPYP,15,1,1488,Correct,7,933
7,NKNWN,91,2,1210,Incorrect,7,937
7,VNVNV,13,1,1090,Correct,7,693
7,RVRVR,152,1,726,Correct,7,812
7,FVFBF,184,2,706,Incorrect,7,785
7,VZVKV,16,2,669,Correct,7,888
7,VPVCV,162,2,681,Correct,7,784
7,WYZCZ,231,2,1172,Correct,7,896
7,PFPFP,113,1,628,Correct,7,745
7,PRPRP,152,1,718,Correct,7,924
7,NWNWN,10,3,747,Correct,7,801
7,VKVCV,14,2,665,Correct,7,832
7,WPYPY,221,1,567,Correct,7,687
7,VBVBV,195,1,1069,Correct,7,727
7,ZKZYZ,16,2,777,Correct,7,864
7,XYXYX,151,2,773,Incorrect,7,731
7,FZFXF,161,2,723,Correct,7,667
7,XKXKX,151,1,691,Correct,7,709
7,XPXPX,152,1,595,Correct,7,700
7,FWFWF,11,3,582,Correct,7,786
7,FNFBF,186,2,630,Correct,7,855
7,ZVZYZ,16,2,627,Correct,7,863
7,FZFZF,151,1,629,Correct,7,705
7,NPNFW,235,2,627,Correct,7,836
7,PCPCP,113,1,769,Correct,7,875
7,NKNWN,122,3,1326,Correct,7,767
8,M,5,3,1537,New Target,8,825
8,VYVNV,161,2,1089,Correct,8,918
8,KLKNK,162,2,749,Correct,8,662
8,NRNRN,151,1,1284,Correct,8,873
8,VNVFV,161,,,Incorrect,8,700
8,XNXNM,225,1,1389,Correct,8,901
8,CXCVC,222,2,728,Correct,8,668
8,KRKZK,162,2,709,Correct,8,807
8,NMNFN,71,3,521,Correct,8,672
8,ZFZFZ,13,1,628,Correct,8,824
8,YPYCY,161,2,726,Correct,8,832
8,KCKCK,151,1,646,Correct,8,774
8,VNVNV,152,1,700,Correct,8,655
8,LXLXL,153,1,677,Correct,8,676
8,CLCLC,154,1,800,Correct,8,701
8,NYNYN,155,1,698,Correct,8,741
8,LCMYL,233,2,780,Correct,8,797
8,NCNCN,113,1,1045,Correct,8,679
8,ZVZRZ,161,2,756,Correct,8,715
8,ZVZVZ,151,1,951,Correct,8,909
8,PZPVP,161,2,728,Correct,8,697
8,PWPNP,171,2,749,Correct,8,872
8,KLKCM,235,2,713,Correct,8,931
8,XMXMX,8,3,883,Correct,8,865
8,PRPXP,14,2,844,Correct,8,731
8,CVCYC,162,2,774,Correct,8,665
8,PXPMP,92,2,809,Incorrect,8,789
8,ZCZLZ,14,2,715,Correct,8,848
8,XWXWX,192,2,1438,Incorrect,8,890
8,ZCZLZ,16,2,743,Correct,8,889
8,MNCYC,231,2,719,Correct,8,773
8,ZXZXZ,113,1,691,Correct,8,854
8,YRYNY,161,2,772,Correct,8,873
8,ZLZPZ,162,2,679,Correct,8,913
8,VZVZV,151,1,938,Correct,8,888
8,MXPXP,221,1,1260,Correct,8,805
8,VWVWV,193,1,1100,Correct,8,909
8,PYPYP,16,1,704,Incorrect,8,905
8,XPXVX,162,2,765,Correct,8,697
8,XLXLX,151,1,709,Correct,8,699
8,YMYMY,10,3,829,Correct,8,784
8,VYVYV,13,1,728,Correct,8,705
8,PWPZP,174,2,745,Correct,8,903
8,PYPKP,16,2,1223,Correct,8,701
8,NPNXN,162,2,985,Correct,8,834
8,KVKVK,223,1,850,Correct,8,822
8,NVNFN,222,2,1046,Correct,8,740
8,XNXNX,151,1,808,Correct,8,668
8,YZYMY,112,2,575,Incorrect,8,720
8,PFPFP,13,1,667,Correct,8,785
8,ZWZWZ,195,1,804,Correct,8,847
8,PCPZP,16,2,844,Correct,8,745
8,LRLPL,162,2,930,Correct,8,735
8,CZCZC,151,1,627,Correct,8,744
8,NZNZN,152,1,691,Correct,8,667
8,CVCXC,161,2,571,Correct,8,770
8,XCXCX,151,1,523,Correct,8,768
8,YWYWY,196,1,634,Correct,8,794
8,NLNLN,15,1,650,Correct,8,658
8,VNVNV,152,1,643,Correct,8,796
8,ZMZMZ,12,1,677,Incorrect,8,702
9,S,5,3,959,New Target,9,761
9,NZNZN,151,1,678,Correct,9,774
9,KVKZK,161,2,571,Correct,9,919
9,LZLZL,151,1,572,Correct,9,698
9,XLXLX,152,1,551,Correct,9,829
9,ZXZXZ,153,2,666,Incorrect,9,700
9,KNKZK,161,2,819,Correct,9,865
9,NRNYN,162,2,660,Correct,9,819
9,CLCVC,163,2,772,Correct,9,750
9,ZCZFZ,164,2,643,Correct,9,861
9,NSNSN,7,3,515,Correct,9,714
9,VZVZV,13,1,655,Correct,9,872
9,NVNCN,161,2,796,Correct,9,680
9,VMVMV,191,1,673,Correct,9,783
9,CVCXC,16,2,966,Correct,9,916
9,ZYZRZ,162,2,727,Correct,9,676
9,XNXZX,163,2,716,Correct,9,933
9,PXPXP,151,1,657,Correct,9,813
9,VCVSV,82,3,631,Correct,9,889
9,PRPCP,14,2,753,Correct,9,840
9,ZMZMZ,192,1,661,Incorrect,9,867
9,ZFZFZ,15,1,623,Correct,9,781
9,FCFCF,152,1,635,Correct,9,712
9,YLYZY,161,2,665,Correct,9,754
9,KNKVK,162,2,691,Correct,9,772
9,SFPCP,231,2,991,Correct,9,733
9,RPRPR,113,1,1133,Correct,9,806
9,XMXMX,193,1,870,Correct,9,871
9,KFKFK,15,1,646,Correct,9,828
9,VSVSV,9,3,737,Correct,9,747
9,YVSVY,223,1,851,Correct,9,828
9,VPVPV,113,1,539,Correct,9,685
9,XZXZX,152,1,569,Correct,9,729
9,KZKXK,161,2,560,Correct,9,895
9,RFRPR,162,2,754,Correct,9,673
9,NVNVS,225,1,711,Correct,9,832
9,ZXZXZ,113,1,832,Correct,9,797
9,SRVRV,221,1,817,Correct,9,744
9,YCYCY,113,1,644,Correct,9,834
9,KMKZK,174,2,697,Correct,9,929
9,FZSVF,233,2,1172,Correct,9,736
9,VYVYV,113,1,675,Correct,9,926
9,LVLVL,152,1,601,Correct,9,908
9,YFYFY,153,1,563,Correct,9,838
9,NXNSN,102,3,667,Correct,9,916
9,FNFCF,14,2,724,Correct,9,842
9,KVKVK,151,1,573,Correct,9,796
9,VZVCV,161,2,703,Correct,9,734
9,ZYZMZ,185,2,616,Correct,9,789
9,VXVZV,16,2,884,Correct,9,698
9,VPVPV,151,1,596,Correct,9,816
9,RVRNS,235,2,684,Correct,9,904
9,YZYZY,113,1,557,Correct,9,662
9,ZSZSZ,11,3,704,Correct,9,653
9,FRFRF,13,1,772,Correct,9,933
9,ZMZMZ,196,1,628,Correct,9,917
9,NZNXN,16,2,942,Correct,9,889
9,LSLFL,121,3,625,Correct,9,680
10,Q,5,3,1523,New Target,10,891
10,ZVZPZ,161,2,1012,Correct,10,660
10,RZRZR,151,1,683,Correct,10,880
10,ZFZFZ,152,1,598,Correct,10,743
10,RZRZR,153,1,557,Correct,10,922
10,PZPXP,161,2,646,Correct,10,899
10,VFQPV,233,2,1062,Correct,10,694
10,ZPZRZ,222,2,631,Correct,10,667
10,CYCVC,162,2,658,Correct,10,784
10,CPCPC,151,1,591,Correct,10,685
10,YZYQY,72,2,601,Incorrect,10,831
10,FVFXF,14,2,576,Correct,10,898
10,YNYNQ,225,1,858,Correct,10,858
10,ZYZYZ,113,1,699,Correct,10,853
10,FRFSF,181,2,713,Incorrect,10,667
10,XNXPX,16,2,713,Correct,10,694
10,NXNXN,151,1,1102,Correct,10,767
10,PVPZP,161,2,716,Correct,10,705
10,XVXPX,162,2,619,Correct,10,688
10,FXFVF,163,2,1020,Correct,10,674
10,NSNKN,172,2,1171,Incorrect,10,838
10,VXVNV,16,2,667,Correct,10,858
10,XZXZX,151,1,1238,Correct,10,705
10,VQVQV,8,1,674,Incorrect,10,676
10,ZYZPZ,14,2,932,Correct,10,922
10,PZPSP,183,,,Incorrect,10,778
10,YVYVY,15,1,715,Correct,10,836
10,NCNQN,92,3,771,Correct,10,786
10,FCFVF,14,2,638,Correct,10,666
10,ZFZFZ,151,1,634,Correct,10,785
10,NSNSN,194,1,1048,Correct,10,784
10,YPYFY,16,2,628,Correct,10,694
10,ZKZKZ,151,1,719,Correct,10,816
10,QZRCR,231,2,801,Correct,10,865
10,YPYVY,222,2,860,Correct,10,682
10,ZNZNZ,151,1,688,Correct,10,718
10,VQVQV,10,3,698,Correct,10,757
10,RVRZR,14,2,715,Correct,10,895
10,KRKSK,185,2,1456,Correct,10,948
10,NPNPN,15,1,870,Correct,10,909
10,YPYPY,152,1,693,Correct,10,893
10,VCVYV,161,2,767,Correct,10,785
10,FPFNF,162,2,839,Correct,10,784
10,QVXVX,221,1,1260,Correct,10,733
10,ZVZRZ,222,2,563,Correct,10,739
10,LFLFL,151,1,547,Correct,10,746
10,VLVLV,152,1,551,Correct,10,689
10,KXQXK,223,1,943,Correct,10,851
10,YQYQY,11,3,613,Correct,10,673
10,YCYCY,13,1,770,Correct,10,753
10,PZPYP,161,2,710,Correct,10,828
10,LPLFL,162,2,897,Correct,10,659
10,VSVSV,196,1,638,Correct,10,855
10,VFVYQ,235,2,782,Correct,10,714
10,CZCXC,222,2,644,Correct,10,693
10,PVPCP,162,2,718,Correct,10,827
10,CXCXC,151,1,895,Correct,10,885
10,NZNZN,152,1,1181,Correct,10,882
10,YPYCY,161,2,568,Correct,10,672
10,ZQZQZ,12,3,704,Correct,10,904
11,T,5,3,1130,New Target,11,821
11,KFKFK,151,1,801,Correct,11,815
11,LZLZL,152,1,753,Correct,11,919
11,PFPVP,161,2,761,Correct,11,664
11,FRFPF,162,2,737,Correct,11,785
11,FZFZF,151,1,625,Correct,11,949
11,VTVTV,7,3,656,Correct,11,754
11,KYKCK,14,2,684,Correct,11,681
11,VPVPV,151,1,554,Correct,11,755
11,XQXQX,191,1,853,Correct,11,738
11,PZPYP,16,2,696,Correct,11,746
11,KXKLK,162,2,659,Correct,11,778
11,TCNCN,221,1,758,Correct,11,869
11,PZPNP,222,2,1037,Correct,11,777
11,RCRPR,162,2,876,Correct,11,764
11,PZPRT,235,2,699,Correct,11,823
11,XFXVX,222,2,783,Correct,11,915
11,LTLVL,81,3,864,Correct,11,940
11,ZCZPZ,14,2,742,Correct,11,695
11,NCNQN,182,2,668,Correct,11,884
11,XZXNX,16,2,626,Correct,11,831
11,ZPZPZ,151,1,716,Correct,11,775
11,CFCFC,152,1,711,Correct,11,764
11,VXTRV,233,2,1017,Correct,11,920
11,CFCVC,222,1,901,Incorrect,11,772
11,PYPYP,151,1,805,Correct,11,792
11,FQFYF,173,2,647,Correct,11,886
11,CNCFC,16,2,682,Correct,11,676
11,PTPTP,9,3,623,Correct,11,843
11,ZCZCZ,13,1,626,Correct,11,918
11,KZKZK,152,1,672,Correct,11,866
11,RLRVR,161,2,699,Correct,11,672
11,ZRZKZ,162,2,694,Correct,11,756
11,KLKLT,225,1,878,Correct,11,821
11,ZQZQZ,194,1,646,Correct,11,692
11,VZVZV,15,1,624,Correct,11,783
11,RVRZR,161,2,650,Correct,11,701
11,ZPZCZ,162,2,695,Correct,11,855
11,VYVYV,151,1,685,Correct,11,777
11,RVRVR,152,1,695,Correct,11,743
11,PTPTP,10,3,742,Correct,11,651
11,PXPXP,13,1,750,Correct,11,785
11,KCKCK,152,1,821,Correct,11,720
11,YVYVY,153,1,616,Correct,11,897
11,CYCYC,154,1,601,Correct,11,689
11,XCXCX,155,1,649,Correct,11,676
11,CYCQC,185,2,869,Correct,11,798
11,KCKNK,16,2,1150,Correct,11,698
11,VPVPV,151,1,775,Correct,11,706
11,TXFZF,231,2,701,Correct,11,770
11,NYNVN,222,2,761,Correct,11,678
11,VQVXV,176,2,982,Correct,11,654
11,ZRZRZ,15,1,745,Correct,11,682
11,VTVZV,111,2,976,Incorrect,11,733
11,PXPVP,14,2,802,Correct,11,704
11,FVFVF,151,1,818,Correct,11,892
11,VRVLV,161,2,629,Correct,11,914
11,YCYCY,151,1,579,Correct,11,671
11,XZTZX,223,1,628,Correct,11,721
11,VTVTV,12,3,580,Correct,11,688
12,O,5,3,1518,New Target,12,845
12,VXVLV,161,2,666,Correct,12,866
12,KVKCK,162,2,598,Correct,12,730
12,VLVLV,151,1,710,Correct,12,690
12,ZCZVZ,161,2,665,Correct,12,896
12,KFKFK,151,1,690,Correct,12,921
12,XKXKX,152,1,677,Correct,12,869
12,YXYXY,153,1,648,Correct,12,948
12,FVFVF,154,1,725,Correct,12,813
12,PVPOP,72,2,728,Incorrect,12,942
12,ZXZYZ,14,2,920,Correct,12,906
12,PXPVP,162,2,686,Correct,12,661
12,ZTZTZ,191,1,842,Correct,12,727
12,CVCKC,16,2,908,Correct,12,897
12,CKCKC,151,1,719,Correct,12,726
12,NPNPN,152,1,785,Correct,12,947
12,ZRZNZ,161,2,901,Correct,12,881
12,OZCZC,221,1,909,Correct,12,906
12,LFLFL,113,1,602,Correct,12,911
12,CXCXC,152,1,600,Correct,12,844
12,KPKPK,153,1,613,Correct,12,839
12,FRFKF,161,2,709,Correct,12,655
12,FOFOF,8,3,554,Correct,12,785
12,ZFZFZ,13,1,712,Correct,12,832
12,LKLZO,235,2,840,Correct,12,949
12,KLKZK,222,2,871,Correct,12,900
12,YXYCY,162,2,746,Correct,12,835
12,LOLOL,9,3,1012,Correct,12,701
12,XLXLX,13,1,747,Correct,12,924
12,XVXVX,152,1,702,Correct,12,932
12,FTFTF,192,1,1143,Correct,12,768
12,OXNZN,231,2,815,Correct,12,845
12,CZCZC,113,1,900,Correct,12,694
12,LZLZL,152,1,840,Correct,12,658
12,VLVPV,161,,,Incorrect,12,788
12,VYVYO,225,1,1111,Correct,12,690
12,XKXKX,113,1,625,Correct,12,753
12,RTRTR,193,1,666,Correct,12,775
12,KVKCK,16,2,801,Correct,12,884
12,ROROR,101,3,777,Correct,12,703
12,PRPRP,13,1,937,Correct,12,818
12,LYLVL,161,2,725,Correct,12,879
12,PLPLP,151,1,658,Correct,12,693
12,CTCTC,194,1,588,Correct,12,853
12,XZXYX,16,2,579,Correct,12,916
12,NKNKN,151,1,669,Correct,12,887
12,VLVZV,161,2,645,Correct,12,815
12,YOYOY,11,3,810,Correct,12,934
12,PZOZP,223,1,944,Correct,12,843
12,FYFYF,113,1,690,Correct,12,664
12,ZXZVZ,161,2,721,Correct,12,703
12,VKVZV,162,2,666,Correct,12,768
12,ZTZTZ,195,1,726,Correct,12,712
12,LKLZL,16,2,765,Correct,12,816
12,KCKVK,162,2,735,Correct,12,865
12,PXPKP,163,2,1019,Correct,12,710
12,KCOZK,233,2,769,Correct,12,933
12,FKFKF,113,1,1158,Correct,12,848
12,CTCRC,176,2,681,Correct,12,859
12,NXNXN,15,1,1007,Correct,12,917
12,KXKVK,161,2,1002,Correct,12,860
12,CPCOC,122,3,674,Correct,12,894
13,H,5,3,1156,New Target,13,847
13,VFVNV,151,2,1310,Incorrect,13,677
13,YVYVY,152,1,892,Correct,13,885
13,XVXVX,153,1,600,Correct,13,875
13,NRNXN,161,2,664,Correct,13,687
13,PZPKP,162,2,573,Correct,13,935
13,HLVLV,221,1,780,Correct,13,767
13,CXCZC,222,2,644,Correct,13,706
13,LHLYL,71,3,987,Correct,13,933
13,YKYFY,14,2,987,Correct,13,661
13,YOYRY,171,2,949,Correct,13,882
13,ZKZYZ,16,2,886,Correct,13,807
13,RZRZR,151,1,834,Correct,13,877
13,NFNYN,161,2,664,Correct,13,720
13,KVKFK,162,2,635,Correct,13,941
13,XFXYX,163,2,742,Correct,13,691
13,LKLVL,164,2,1197,Correct,13,855
13,NLNLN,151,1,958,Correct,13,875
13,XCXOX,182,2,948,Correct,13,717
13,FXFXF,15,2,786,Incorrect,13,782
13,VHVHV,8,3,696,Correct,13,734
13,PVPVP,13,1,624,Correct,13,856
13,CRCXC,161,2,731,Correct,13,833
13,NXNXN,151,1,676,Correct,13,754
13,XRXRX,152,1,1037,Correct,13,806
13,YFYXY,161,2,683,Correct,13,666
13,ZOZOZ,193,1,561,Correct,13,826
13,RZRZR,15,1,637,Correct,13,877
13,FKFKF,152,1,613,Correct,13,908
13,PFPFP,153,1,737,Correct,13,840
13,XYXHX,92,2,707,Incorrect,13,825
13,RZRKR,14,2,737,Correct,13,689
13,FLFLH,225,1,699,Correct,13,694
13,KRKRK,113,1,851,Correct,13,766
13,ZVZNZ,161,2,665,Correct,13,721
13,ZOZOZ,194,1,1028,Correct,13,723
13,FZFZF,15,1,699,Correct,13,912
13,FHFKF,101,2,733,Incorrect,13,923
13,ZXHLZ,233,2,681,Correct,13,703
13,FKFXF,222,2,860,Correct,13,912
13,CFCYC,162,2,1054,Correct,13,869
13,ZXZVZ,163,2,694,Correct,13,891
13,KCKOK,185,12,700,Incorrect,13,800
13,ZXZVH,235,2,773,Correct,13,761
13,CKCKC,113,2,729,Incorrect,13,893
13,ZXZCZ,161,2,661,Correct,13,724
13,YVYVY,151,1,668,Correct,13,928
13,RVHVR,223,1,727,Correct,13,761
13,ZRZRZ,113,1,686,Correct,13,766
13,ZHZHZ,11,3,807,Correct,13,757
13,VZVZV,13,1,618,Correct,13,780
13,HZVRV,231,2,754,Correct,13,925
13,FVFVF,113,1,581,Correct,13,852
13,RNRCR,161,2,713,Correct,13,947
13,COCOC,196,1,649,Correct,13,652
13,VNVXV,16,2,769,Correct,13,882
13,XHXHX,12,3,995,Correct,13,927
14,G,5,3,9496,New Target,14,839
14,FZFZF,151,1,893,Correct,14,930
14,RPRVR,161,2,692,Correct,14,719
14,XCXCX,151,1,711,Correct,14,847
14,YXYXY,152,1,1202,Correct,14,688
14,KZKZK,153,1,638,Correct,14,661
14,RYRKR,161,2,711,Correct,14,896
14,FYFNF,162,2,713,Correct,14,925
14,VKVKV,151,1,733,Correct,14,840
14,KPGPK,223,2,847,Incorrect,14,911
14,YNYNY,113,1,638,Correct,14,913
14,VYVYV,152,1,659,Correct,14,924
14,YCYXY,161,2,666,Correct,14,912
14,LKLGL,72,3,590,Correct,14,849
14,VXVXV,13,1,798,Correct,14,663
14,KCKVK,161,2,617,Correct,14,705
14,YKYKY,151,1,610,Correct,14,869
14,RHRXR,171,2,1423,Correct,14,708
14,FVFCF,16,2,665,Correct,14,851
14,YXYGY,82,3,991,Correct,14,866
14,CLCLC,13,1,734,Correct,14,844
14,ZXZCZ,161,2,704,Correct,14,922
14,VLVFV,162,2,923,Correct,14,693
14,CPCPG,225,1,837,Correct,14,867
14,KHKNK,172,2,1049,Correct,14,807
14,ZKZVZ,16,2,855,Correct,14,776
14,YKYLY,162,2,892,Correct,14,716
14,CNCNC,151,1,646,Correct,14,926
14,PGPGP,9,3,789,Correct,14,661
14,VPVPV,13,1,728,Correct,14,930
14,FXGRF,233,2,675,Correct,14,679
14,CYCVC,222,2,891,Correct,14,889
14,FNFNF,151,1,715,Correct,14,810
14,KFKCK,161,2,739,Correct,14,827
14,ZFZHZ,183,2,855,Correct,14,804
14,NXNXN,15,1,900,Correct,14,928
14,FNFNF,152,1,772,Correct,14,836
14,LXLNG,235,2,811,Correct,14,794
14,XKXVX,222,2,899,Correct,14,734
14,ZHZHZ,194,1,917,Correct,14,802
14,PFPFP,15,1,742,Correct,14,760
14,ZYZYZ,152,1,790,Correct,14,907
14,XPXVX,161,2,888,Correct,14,941
14,YCYCY,151,1,789,Correct,14,887
14,RGRGR,10,3,497,Correct,14,669
14,VRVRV,13,1,644,Correct,14,660
14,PKPNP,161,2,687,Correct,14,881
14,XGXGX,11,1,533,Incorrect,14,801
14,GZYVY,231,2,821,Correct,14,845
14,VCVNV,222,1,621,Incorrect,14,723
14,VHVHV,195,1,581,Correct,14,821
14,LXLNL,16,2,623,Correct,14,756
14,GKPKP,221,1,729,Correct,14,937
14,XRXPX,222,2,753,Correct,14,781
14,XNXNX,151,1,586,Correct,14,670
14,KHKNK,176,2,730,Incorrect,14,705
14,RZRZR,15,1,674,Correct,14,713
14,CGCFC,121,2,1162,Incorrect,14,927
15,A,5,3,1275,New Target,15,841
15,XRXFX,161,2,1032,Correct,15,853
15,RXRKR,162,2,1230,Correct,15,948
15,YRYRY,151,1,658,Correct,15,790
15,XPXPX,152,1,712,Correct,15,900
15,RPRPR,153,1,548,Correct,15,775
15,NCNCN,154,1,579,Correct,15,731
15,RXRZR,161,2,625,Correct,15,760
15,NANAN,7,3,488,Correct,15,884
15,KCKYK,14,2,668,Correct,15,716
15,XKXFX,162,1,563,Incorrect,15,896
15,ZLZKZ,163,2,613,Correct,15,675
15,VCVZV,164,2,651,Correct,15,913
15,XCXVX,165,2,613,Correct,15,827
15,LKLZA,235,2,641,Correct,15,776
15,NCNCN,113,1,594,Correct,15,723
15,YGYGY,191,1,690,Correct,15,693
15,VLVLV,15,1,590,Correct,15,709
15,XRXRX,152,1,715,Correct,15,753
15,KAKPK,81,3,805,Correct,15,692
15,YZAZY,233,1,904,Incorrect,15,885
15,CFCFC,113,1,761,Correct,15,792
15,VNVLV,161,2,703,Correct,15,692
15,KPKVK,162,2,808,Correct,15,854
15,NCNRN,163,,,Incorrect,15,891
15,FGFGF,192,1,695,Correct,15,949
15,RCRYR,16,2,725,Correct,15,653
15,KRKCK,162,2,650,Correct,15,805
15,CRCRC,151,1,850,Correct,15,850
15,XPAPX,223,1,616,Correct,15,838
15,LPLXL,222,2,717,Correct,15,903
15,CGCVC,173,2,839,Correct,15,710
15,FKFZF,16,2,683,Correct,15,724
15,CACAC,9,3,792,Correct,15,716
15,XCXCX,13,1,1092,Correct,15,661
15,AXRXR,221,1,659,Correct,15,668
15,NKNRN,222,2,721,Correct,15,726
15,KNKFK,162,2,739,Correct,15,920
15,KAKAK,10,3,1013,Correct,15,932
15,ZCZRZ,14,,,Incorrect,15,790
15,RPRPR,151,1,659,Correct,15,948
15,NCNCN,152,1,655,Correct,15,684
15,RYRGR,184,2,693,Correct,15,803
15,VPVPV,15,1,752,Correct,15,714
15,RCRCA,225,1,884,Correct,15,878
15,KXKPK,222,2,752,Correct,15,868
15,NPNPN,151,1,743,Correct,15,779
15,YCYCY,152,1,716,Correct,15,807
15,PXPAP,112,3,697,Correct,15,726
15,ZCZNZ,14,,,Incorrect,15,664
15,KYKGK,185,2,876,Correct,15,785
15,ANLPL,231,2,905,Correct,15,931
15,CXCPC,222,2,745,Correct,15,830
15,YRYRY,151,1,851,Correct,15,716
15,LGLGL,196,1,696,Correct,15,653
15,VYVLV,16,2,824,Correct,15,671
15,KVKVK,151,1,969,Correct,15,783
15,RKRKR,152,1,824,Correct,15,787
15,VXVXV,153,1,621,Correct,15,759
15,XAXAX,12,1,637,Incorrect,15,726
