Trial No,Stimulus,Trigger,Response,Response Time(ms),Correct,Block,Fixation Duration
Practice
OT Practice
1,SKSKS,15,,,False,0,794
1,DLDUD,16,2,1516,Correct,0,850
1,PDPGP,16,1,849,False,0,887
1,MWMWM,15,1,905,Correct,0,757
1,FTFTF,15,1,846,Correct,0,669
1,AXAMA,16,2,1347,Correct,0,790
1,RYRGR,16,2,801,Correct,0,864
1,DODOD,15,1,792,Correct,0,740
1,QTQAQ,16,2,767,Correct,0,789
1,YEYEY,15,1,792,Correct,0,766
2,GYGDG,16,2,887,Correct,0,749
2,SWSWS,15,1,711,Correct,0,858
2,HLHUH,16,2,860,Correct,0,945
2,DEDED,15,1,898,Correct,0,794
2,ZPZOZ,16,2,862,Correct,0,947
2,ATATA,15,1,728,Correct,0,671
2,QOQOQ,15,1,764,Correct,0,943
2,FPFGF,16,2,613,Correct,0,789
2,TRTET,16,2,727,Correct,0,650
2,DQDQD,15,1,993,Correct,0,786
4,PLPLP,15,1,1094,Correct,0,739
4,ATAIA,16,2,710,Correct,0,692
4,SKSGS,16,2,742,Correct,0,693
4,ZYZYZ,15,1,642,Correct,0,680
4,QSQSQ,15,1,850,Correct,0,714
4,TZTDT,16,2,563,Correct,0,816
4,JYJGJ,16,2,714,Correct,0,949
4,DYDYD,15,1,932,Correct,0,827
4,LTLCL,16,2,696,Correct,0,700
4,FQFEF,16,2,822,Correct,0,721
AT Practice
1,TKTKT,15,2,1069,False,0,668
1,SLSUS,16,2,1039,Correct,0,655
1,VZVGV,7,3,732,Correct,0,816
1,XWXZX,7,3,996,Correct,0,807
1,ATATA,15,1,745,Correct,0,662
1,HXZMH,16,2,1319,Correct,0,661
1,TZTZT,7,3,665,Correct,0,765
1,UOUOU,15,1,864,Correct,0,883
1,ZTWAW,16,2,895,Correct,0,916
1,RZRER,7,3,1184,Correct,0,811
2,JYJDJ,16,2,766,Correct,0,731
2,DWDWD,15,1,933,Correct,0,730
2,GNGNG,7,3,807,Correct,0,725
2,NEZEZ,16,1,1501,Correct,0,783
2,RNROR,7,3,876,Correct,0,668
2,QTQNQ,7,3,949,Correct,0,670
2,HOHON,15,1,773,Correct,0,845
2,KPKGK,16,3,1004,False,0,776
2,DRDED,16,,,False,0,856
2,LNLNL,7,3,719,Correct,0,781
4,GLGLG,15,1,1293,Correct,0,701
4,DTDID,16,2,1025,Correct,0,737
4,SMSGS,16,2,989,Correct,0,896
4,ZFZYZ,7,3,881,Correct,0,690
4,TSTFT,7,3,913,Correct,0,901
4,OFOFO,7,3,744,Correct,0,679
4,WYFGW,16,2,740,Correct,0,692
4,WYWYW,15,1,780,Correct,0,742
4,MFMCM,7,3,1026,Correct,0,812
4,HQHEH,16,2,1004,Correct,0,935
Trials
1,D,5,3,16755,New Target,1,755
1,ZNZYZ,161,2,1077,Correct,1,917
1,FZFZF,151,1,1366,Correct,1,717
1,RKRKR,152,1,1161,Correct,1,871
1,RXRNR,161,2,1065,Correct,1,723
1,CNCFC,162,2,1066,Correct,1,771
1,PDPDP,7,3,906,Correct,1,791
1,CPCFC,14,2,861,Correct,1,816
1,VLVNV,162,2,1042,Correct,1,851
1,KFKFK,151,1,785,Correct,1,870
1,ZNZNZ,152,1,986,Correct,1,776
1,KCKPD,235,2,781,Correct,1,761
1,ZKZFZ,222,2,1033,Correct,1,711
1,NRNZN,162,2,1015,Correct,1,843
1,KXKRK,163,2,824,Correct,1,812
1,YPYZY,164,2,646,Correct,1,683
1,FKDKF,223,2,997,Incorrect,1,851
1,RPRPR,113,1,997,Correct,1,805
1,VRVKV,161,2,1001,Correct,1,758
1,RFRPR,162,2,877,Correct,1,762
1,KVKVK,151,1,851,Correct,1,833
1,YKYVY,161,2,715,Correct,1,781
1,VDVDV,8,3,622,Correct,1,657
1,DVZVZ,221,1,897,Correct,1,746
1,YFYFY,113,1,1040,Correct,1,933
1,ZYZYZ,152,1,819,Correct,1,756
1,VLVXV,161,2,683,Correct,1,858
1,DPXZX,231,2,1019,Correct,1,726
1,RYRYR,113,3,889,Incorrect,1,883
1,PDPNP,91,3,1020,Correct,1,910
1,KXKXK,13,1,1104,Correct,1,705
1,ZYZYZ,152,1,859,Correct,1,909
1,VKVKV,153,1,752,Correct,1,849
1,YZYZY,154,1,785,Correct,1,655
1,NLNZN,161,2,873,Correct,1,805
1,ZNDYZ,233,2,1202,Correct,1,729
1,PCPXP,222,2,706,Correct,1,652
1,ZVZFZ,162,2,842,Correct,1,939
1,RCRZR,163,2,831,Correct,1,875
1,LRLRL,151,1,841,Correct,1,757
1,ZDZDZ,10,3,718,Correct,1,912
1,RNRZR,14,2,779,Correct,1,832
1,CXCYC,162,2,679,Correct,1,768
1,RCRLR,163,2,706,Correct,1,912
1,FRFRF,151,3,1060,Incorrect,1,764
1,XFXFX,152,1,1250,Correct,1,828
1,RPRLR,161,2,744,Correct,1,871
1,YXYRY,162,2,857,Correct,1,675
1,FYFYF,151,1,1014,Correct,1,652
1,YZYVY,161,2,820,Correct,1,929
1,YKYKY,151,1,908,Correct,1,803
1,XRXRX,152,1,689,Correct,1,836
1,XVXZX,161,2,850,Correct,1,779
1,PDPDP,11,3,902,Correct,1,884
1,ZFZFZ,13,1,926,Correct,1,698
1,PXPXP,152,1,1029,Correct,1,711
1,LYLYL,153,1,711,Correct,1,811
1,NKNKD,225,1,815,Correct,1,902
1,ZNZNZ,113,1,825,Correct,1,744
1,PYPZP,161,2,813,Correct,1,947
1,XPXPX,151,1,764,Correct,1,671
1,VLVLV,152,1,797,Correct,1,659
1,PKPXP,161,2,1205,Correct,1,893
1,FZFZF,151,1,884,Correct,1,654
1,LDLDL,12,3,1001,Correct,1,828
2,U,5,3,1371,New Target,2,677
2,ZVZFZ,161,2,808,Correct,2,939
2,FZFZF,151,1,1078,Correct,2,667
2,RFRFR,152,1,931,Correct,2,897
2,NZNKN,161,2,857,Correct,2,740
2,FZFNF,162,2,965,Correct,2,711
2,RXRXR,151,1,938,Correct,2,720
2,KRKYK,161,2,850,Correct,2,692
2,NZNPN,162,2,974,Correct,2,672
2,XPXPX,151,1,757,Correct,2,691
2,CUCUC,7,3,638,Correct,2,910
2,RFRFR,13,1,878,Correct,2,763
2,VYVXV,161,2,810,Correct,2,693
2,VDVDV,191,,,Incorrect,2,729
2,ZKZRZ,15,2,852,Correct,2,712
2,XCXCX,151,1,858,Correct,2,852
2,CNCUC,82,3,799,Correct,2,844
2,RCRCR,13,1,859,Correct,2,758
2,ZPZXZ,161,2,1059,Correct,2,710
2,FKFYF,162,2,916,Correct,2,755
2,ZFZYZ,163,2,780,Correct,2,673
2,PXPXP,151,1,776,Correct,2,749
2,URCKC,231,2,775,Correct,2,722
2,PCPCP,113,1,687,Correct,2,831
2,XNXNX,152,1,1052,Correct,2,827
2,RCRZR,161,2,706,Correct,2,658
2,XVXVX,151,2,1448,Incorrect,2,659
2,NRNRN,152,1,784,Correct,2,941
2,FPFPF,225,1,686,Correct,2,656
2,XVXFX,222,2,1067,Correct,2,866
2,PRPRP,151,1,749,Correct,2,676
2,FYFCF,161,2,727,Correct,2,865
2,XUXFX,91,3,543,Correct,2,936
2,CYCVC,14,2,787,Correct,2,826
2,VDVKV,172,2,637,Correct,2,784
2,YCYCY,15,1,734,Correct,2,805
2,NKNLN,161,2,629,Correct,2,919
2,XPUKX,233,2,694,Correct,2,785
2,ZPZPZ,113,1,1041,Correct,2,870
2,KRKRK,152,1,660,Correct,2,703
2,XKXKX,153,1,693,Correct,2,752
2,YUYVY,101,3,818,Correct,2,825
2,XKXFU,235,2,718,Correct,2,708
2,NFNFN,113,1,965,Correct,2,911
2,KDKDK,193,,,Incorrect,2,720
2,XYXKX,16,2,739,Correct,2,913
2,YZUZY,223,1,1002,Correct,2,888
2,KFKVK,222,2,1067,Correct,2,917
2,LYLYL,151,1,826,Correct,2,785
2,CXCDC,184,2,723,Incorrect,2,800
2,XZXNX,16,2,768,Correct,2,797
2,PXPXP,151,1,990,Correct,2,738
2,ZRZYZ,161,2,737,Correct,2,725
2,PUPYP,111,3,922,Correct,2,880
2,RNRNR,14,1,708,Correct,2,709
2,KDKDK,195,1,1086,Correct,2,844
2,KNKNK,15,1,1313,Correct,2,650
2,PRPKP,161,2,807,Correct,2,789
2,UNYNY,221,1,902,Correct,2,667
2,NYNYN,113,1,938,Correct,2,851
2,YXYXY,152,1,1002,Incorrect,2,916
2,RDRDR,196,1,736,Correct,2,657
2,FCFCF,15,1,716,Correct,2,797
2,ZKZKZ,152,1,757,Correct,2,861
2,ZUZUZ,12,3,813,Correct,2,878
3,E,5,3,1657,New Target,3,929
3,YZYZY,151,1,611,Correct,3,652
3,VFVNV,161,2,756,Correct,3,836
3,KYKYK,151,1,809,Correct,3,942
3,NKNKN,152,1,630,Correct,3,719
3,XVXNX,161,2,820,Correct,3,895
3,RERFR,71,3,832,Correct,3,707
3,XNXNX,13,1,811,Correct,3,783
3,NXNXN,152,1,1057,Correct,3,809
3,ZLZNZ,161,2,754,Correct,3,791
3,CUCNC,171,2,1130,Correct,3,922
3,FYFRF,16,2,793,Correct,3,726
3,ZLZLZ,151,1,695,Correct,3,707
3,YZYZY,152,1,1124,Correct,3,853
3,CYCYC,153,1,673,Correct,3,800
3,VUVUV,192,2,673,Incorrect,3,747
3,PXPRP,16,2,671,Correct,3,791
3,YPYPY,151,1,738,Correct,3,735
3,CECEC,8,3,718,Correct,3,773
3,VNENV,223,1,1088,Correct,3,657
3,KRKFK,222,2,750,Correct,3,785
3,XLXLE,225,1,861,Correct,3,660
3,RFRUR,183,2,792,Correct,3,731
3,XRXLX,16,2,755,Correct,3,756
3,NZNPN,162,2,1087,Correct,3,750
3,XZXZX,151,1,951,Correct,3,946
3,FZFZF,152,1,695,Correct,3,882
3,PFPFP,153,1,1196,Correct,3,659
3,YZYXY,161,2,886,Correct,3,737
3,KEKEK,9,3,729,Correct,3,871
3,CXCPC,14,2,795,Correct,3,690
3,VXVXV,151,1,972,Correct,3,685
3,NUNZN,174,2,874,Correct,3,888
3,RKRVR,16,2,831,Correct,3,831
3,XRXRX,151,3,758,Incorrect,3,868
3,ERNFN,231,2,739,Incorrect,3,718
3,YRYNY,222,2,784,Correct,3,823
3,PZPEP,102,3,703,Correct,3,655
3,ZYZXZ,14,2,750,Correct,3,724
3,RZRVR,162,2,860,Correct,3,697
3,XRXRX,151,1,936,Correct,3,690
3,KUKFK,175,2,1102,Correct,3,729
3,RKRKR,15,1,1449,Correct,3,838
3,ZFZFZ,152,2,1191,Incorrect,3,872
3,YZYVY,161,2,691,Correct,3,666
3,XPXNX,162,2,981,Correct,3,780
3,YRYRY,151,1,963,Correct,3,908
3,EPVPV,221,1,1366,Correct,3,820
3,CRCEC,112,3,1019,Correct,3,779
3,RFRCR,14,2,1071,Correct,3,696
3,CPCVC,162,2,735,Correct,3,784
3,RXRCR,163,2,808,Correct,3,860
3,VNVLV,164,2,732,Correct,3,903
3,ZXZXZ,151,1,724,Correct,3,922
3,ZCZCZ,152,1,740,Correct,3,671
3,PYPUP,186,2,734,Correct,3,881
3,YKYPY,16,2,648,Correct,3,833
3,YREXY,233,2,716,Correct,3,659
3,ZKZKZ,113,1,752,Correct,3,657
3,XLXNX,161,2,759,Correct,3,867
3,KFKRE,235,2,711,Correct,3,664
3,RXRLR,222,2,657,Correct,3,925
3,RERXR,121,3,785,Correct,3,827
4,J,5,3,1657,New Target,4,713
4,CYCVC,161,2,674,Correct,4,707
4,RXRCR,162,2,629,Correct,4,688
4,FPFVF,163,2,704,Correct,4,901
4,LZLZL,151,1,994,Correct,4,652
4,PLPLP,152,1,889,Correct,4,710
4,NPNPN,153,1,1342,Correct,4,858
4,XZXZX,161,1,832,Incorrect,4,851
4,CNCKC,162,2,781,Correct,4,688
4,PCPYJ,235,2,907,Correct,4,759
4,VYVYV,113,1,848,Correct,4,813
4,RLRLR,152,1,757,Correct,4,871
4,CJCJC,7,3,954,Correct,4,917
4,ZLZLZ,13,1,820,Correct,4,669
4,FZFZF,152,1,681,Correct,4,867
4,CFCFC,153,1,815,Correct,4,917
4,PZPZP,154,1,853,Correct,4,907
4,XEXEX,191,1,1098,Correct,4,880
4,NVNFN,16,2,771,Correct,4,927
4,KYKYK,151,1,1119,Correct,4,731
4,ZNZVZ,161,2,800,Correct,4,669
4,YVJXY,233,2,1341,Correct,4,743
4,XFXFX,113,1,621,Correct,4,883
4,XNXNX,152,1,714,Correct,4,910
4,FJFKF,81,3,966,Correct,4,840
4,CZCYC,14,2,664,Correct,4,869
4,ZXZCZ,162,2,725,Correct,4,799
4,RYRYJ,225,2,910,Incorrect,4,875
4,FPFZF,222,1,919,Incorrect,4,740
4,XRXRX,151,1,669,Correct,4,746
4,YPYEY,182,2,713,Correct,4,883
4,XRXRX,15,1,1336,Correct,4,662
4,XZXPX,161,2,747,Correct,4,828
4,CJCJC,9,3,776,Correct,4,777
4,ZXZVZ,14,2,633,Correct,4,685
4,VKVKV,151,1,793,Correct,4,774
4,VEVNV,173,2,753,Correct,4,882
4,ZKZVZ,16,2,648,Correct,4,904
4,XVXJX,102,3,715,Correct,4,669
4,RXRVR,14,2,856,Correct,4,786
4,LRLRL,151,1,1037,Correct,4,781
4,YNJNY,223,1,953,Correct,4,946
4,NPNJN,222,3,813,Incorrect,4,767
4,ZEZEZ,194,1,839,Correct,4,797
4,ZNZNZ,15,1,882,Correct,4,671
4,YZYZY,152,1,1069,Correct,4,683
4,XYXYX,153,1,737,Correct,4,692
4,ZXZXZ,221,2,1021,Incorrect,4,766
4,LYLZL,222,2,826,Correct,4,848
4,CYCNC,162,2,947,Correct,4,783
4,XEXEX,195,1,709,Correct,4,818
4,CVCXC,16,2,862,Correct,4,949
4,ZPZXZ,162,2,824,Correct,4,784
4,FZFZF,151,1,706,Correct,4,722
4,RXRJR,112,3,827,Correct,4,894
4,PRPFP,14,2,823,Correct,4,693
4,PKPEP,186,2,1156,Correct,4,660
4,XZXPX,16,2,813,Correct,4,833
4,JCZVZ,231,2,838,Correct,4,801
4,RXRLR,222,2,925,Correct,4,844
4,VZVZV,151,1,897,Correct,4,838
4,XJXJX,12,3,747,Correct,4,664
5,I,5,3,1843,New Target,5,846
5,PCPCP,151,1,760,Correct,5,854
5,XYXYX,152,1,898,Correct,5,829
5,VXVXV,153,1,1158,Correct,5,847
5,XVXVX,154,1,726,Correct,5,678
5,ZRZXZ,161,2,834,Correct,5,763
5,FPFZF,162,2,999,Correct,5,904
5,ZYZYZ,151,1,994,Correct,5,935
5,RVRZR,161,2,807,Correct,5,693
5,CICIC,7,3,753,Correct,5,763
5,XLXLX,13,1,946,Correct,5,650
5,YVYVY,152,1,890,Correct,5,747
5,CJCJC,191,2,1251,Incorrect,5,693
5,FNFCF,16,2,985,Correct,5,823
5,PVPRP,162,2,1500,Correct,5,843
5,FZFZF,151,1,650,Correct,5,799
5,NVIVN,223,1,1139,Correct,5,907
5,CVCIC,82,3,1188,Correct,5,777
5,ZXZXZ,13,1,1097,Correct,5,880
5,FCFZF,161,2,806,Correct,5,806
5,IXRXR,221,1,860,Correct,5,946
5,ZPZNZ,222,2,740,Correct,5,765
5,VZVZV,151,1,674,Correct,5,704
5,YRYNY,161,2,762,Correct,5,936
5,VNVPV,162,2,719,Correct,5,902
5,RVRJR,182,2,1038,Correct,5,726
5,VRVRV,15,1,702,Correct,5,775
5,VIVIV,9,3,641,Correct,5,667
5,CXCVC,14,2,721,Correct,5,744
5,PZPZP,151,1,668,Correct,5,872
5,IXVKV,231,2,812,Correct,5,787
5,YJYCY,173,2,1155,Incorrect,5,832
5,VYVYV,15,1,696,Correct,5,939
5,YVYVY,152,1,753,Correct,5,908
5,NVNVN,153,1,689,Correct,5,724
5,XYXVX,161,2,928,Correct,5,795
5,NJNCN,174,2,966,Correct,5,749
5,NXNYN,16,2,710,Correct,5,867
5,VXVCV,162,2,658,Correct,5,840
5,ZKZKZ,151,1,737,Correct,5,739
5,XRXYX,161,2,706,Correct,5,699
5,ZCZXZ,162,2,669,Correct,5,843
5,KVKYI,235,2,768,Correct,5,663
5,CNCNC,113,1,797,Correct,5,733
5,RIRIR,10,3,786,Correct,5,947
5,VYVXV,14,2,672,Correct,5,660
5,FXIRF,233,2,1085,Correct,5,861
5,PFPFP,113,1,925,Correct,5,715
5,VPVPV,152,1,726,Correct,5,698
5,ZJZJZ,195,2,1061,Incorrect,5,821
5,ZVZNZ,16,2,867,Correct,5,818
5,YVYXY,162,2,989,Correct,5,711
5,PRPRP,151,1,771,Correct,5,654
5,YPYPY,152,1,700,Correct,5,888
5,ZIZPZ,111,3,855,Correct,5,859
5,NKNXN,14,2,1159,Correct,5,941
5,RZRXR,162,2,885,Correct,5,704
5,RXRXR,151,1,855,Correct,5,915
5,ZJZJZ,196,2,858,Incorrect,5,910
5,CVCVI,225,1,1476,Incorrect,5,717
5,NKNKN,113,1,671,Correct,5,941
5,NRNZN,161,2,1120,Correct,5,747
5,CNCNC,151,1,749,Correct,5,809
5,RFRIR,122,3,1061,Correct,5,876
6,B,5,3,1182,New Target,6,863
6,YKYZY,161,2,894,Correct,6,762
6,VCVRV,162,2,904,Correct,6,673
6,XVXVX,151,1,878,Correct,6,748
6,KZKRK,161,2,853,Correct,6,805
6,ZVZXZ,162,2,814,Correct,6,751
6,RCRNR,163,2,808,Correct,6,730
6,CXCRC,164,2,781,Correct,6,873
6,VNBCV,233,2,1218,Correct,6,888
6,CXCVC,222,2,1151,Correct,6,704
6,RFRFR,151,1,845,Correct,6,785
6,XPXRX,161,2,1333,Correct,6,791
6,RYRBR,72,3,1273,Correct,6,865
6,ZKZKZ,13,1,734,Correct,6,852
6,FIFRF,171,2,1111,Correct,6,851
6,VZVLV,16,2,710,Correct,6,811
6,RPRVR,162,2,847,Correct,6,884
6,YBYBY,8,3,760,Correct,6,761
6,PYPVP,14,2,1201,Correct,6,844
6,NININ,192,2,1177,Incorrect,6,822
6,RNRNR,15,1,789,Correct,6,829
6,NXNVN,161,2,782,Correct,6,818
6,RNRNR,151,1,827,Correct,6,655
6,FRFVF,161,2,798,Correct,6,947
6,YVYFB,235,2,1147,Incorrect,6,693
6,ZRZXZ,222,2,855,Correct,6,755
6,VNVIV,193,2,783,Incorrect,6,809
6,PXPNP,16,2,732,Correct,6,741
6,ZXZPZ,162,2,618,Correct,6,721
6,VBVBV,9,3,734,Correct,6,688
6,CXCXC,13,1,702,Correct,6,653
6,PCPFP,161,2,593,Correct,6,656
6,KNKNK,151,1,654,Correct,6,894
6,XIXIX,194,1,1356,Correct,6,816
6,CYCYC,15,1,766,Correct,6,927
6,FVFYF,161,2,1167,Correct,6,659
6,YNYRY,162,2,868,Correct,6,898
6,BVPXP,231,2,688,Correct,6,714
6,NXNXN,113,1,986,Correct,6,854
6,FRFRF,152,1,830,Correct,6,742
6,YVYVY,153,1,726,Correct,6,860
6,ZKZCZ,161,2,671,Correct,6,900
6,VIVXV,175,2,782,Correct,6,771
6,PRBRP,223,1,826,Correct,6,713
6,YZYBY,102,3,887,Correct,6,730
6,CXCVC,14,2,1088,Correct,6,671
6,FYFYF,151,1,781,Correct,6,839
6,VKVXV,161,2,840,Correct,6,759
6,ZBZBZ,11,3,764,Correct,6,931
6,FPFNF,14,2,824,Correct,6,739
6,CXCXC,151,1,720,Correct,6,790
6,YCYCY,152,1,937,Correct,6,873
6,FPFPF,153,1,846,Correct,6,743
6,CVCVB,225,1,856,Correct,6,711
6,ZCZCZ,113,1,652,Correct,6,891
6,CZCNC,161,2,856,Correct,6,876
6,KIKFK,176,2,1209,Correct,6,946
6,PXPXP,15,1,755,Correct,6,766
6,RYRYR,152,1,702,Correct,6,849
6,ZRZCZ,161,2,737,Correct,6,672
6,RVRVR,151,1,977,Correct,6,687
6,XYXNX,161,2,743,Correct,6,753
6,BVKVK,221,1,834,Correct,6,881
6,CBCBC,12,3,781,Correct,6,684
7,W,5,3,4405,New Target,7,859
7,RKRKR,151,1,974,Correct,7,713
7,CVCRC,161,2,804,Correct,7,743
7,PKPKP,151,1,730,Correct,7,933
7,FPFPF,152,1,870,Correct,7,834
7,VRVPV,161,2,1248,Correct,7,721
7,ZKZYZ,162,2,840,Correct,7,796
7,PVPCP,233,2,719,Correct,7,829
7,KVKVK,113,1,668,Correct,7,803
7,YXYVY,161,2,729,Correct,7,843
7,FNFNF,151,1,843,Correct,7,690
7,YWYWY,7,3,821,Correct,7,799
7,ZYZYZ,13,1,894,Correct,7,825
7,PYPYP,152,1,691,Correct,7,850
7,XRXRX,153,1,722,Correct,7,743
7,PXPXP,154,1,700,Correct,7,829
7,FCFBF,181,2,1533,Correct,7,670
7,FVFVF,15,1,864,Correct,7,702
7,CYCZC,161,2,775,Correct,7,797
7,XZXVX,162,2,834,Correct,7,824
7,PFPFP,151,1,1130,Correct,7,745
7,RVRLR,161,2,1062,Correct,7,831
7,ZBZBZ,192,2,931,Incorrect,7,891
7,VCVNV,16,2,774,Correct,7,809
7,NWNWN,8,3,1052,Correct,7,875
7,XNXVX,14,2,1062,Correct,7,934
7,CXCNC,162,2,769,Correct,7,949
7,YVYVW,225,1,923,Correct,7,819
7,VFVFV,113,1,742,Correct,7,745
7,VFWFV,223,1,881,Correct,7,818
7,CVCFC,222,2,801,Correct,7,935
7,YBYBY,193,1,1277,Correct,7,752
7,PYPYP,15,1,644,Correct,7,835
7,NKNWN,91,2,772,Incorrect,7,816
7,VNVNV,13,1,1026,Correct,7,783
7,RVRVR,152,1,787,Correct,7,730
7,FVFBF,184,2,970,Incorrect,7,839
7,VZVKV,16,2,765,Correct,7,741
7,VPVCV,162,2,844,Correct,7,726
7,WYZCZ,231,2,790,Correct,7,781
7,PFPFP,113,1,717,Correct,7,876
7,PRPRP,152,1,1080,Correct,7,812
7,NWNWN,10,3,1032,Correct,7,709
7,VKVCV,14,2,779,Correct,7,724
7,WPYPY,221,1,757,Correct,7,799
7,VBVBV,195,1,1341,Correct,7,891
7,ZKZYZ,16,2,901,Correct,7,729
7,XYXYX,151,1,936,Correct,7,863
7,FZFXF,161,2,897,Correct,7,683
7,XKXKX,151,1,792,Correct,7,745
7,XPXPX,152,1,1024,Correct,7,881
7,FWFWF,11,,,Incorrect,7,693
7,FNFBF,186,2,722,Correct,7,708
7,ZVZYZ,16,2,849,Correct,7,701
7,FZFZF,151,1,884,Correct,7,892
7,NPNFW,235,2,813,Correct,7,778
7,PCPCP,113,1,825,Correct,7,708
7,NKNWN,122,3,1151,Correct,7,872
8,M,5,3,1747,New Target,8,860
8,VYVNV,161,2,1135,Correct,8,650
8,KLKNK,162,2,806,Correct,8,947
8,NRNRN,151,1,715,Correct,8,875
8,VNVFV,161,2,744,Correct,8,738
8,XNXNM,225,1,999,Correct,8,772
8,CXCVC,222,2,918,Correct,8,859
8,KRKZK,162,2,862,Correct,8,726
8,NMNFN,71,3,871,Correct,8,760
8,ZFZFZ,13,1,734,Correct,8,815
8,YPYCY,161,2,819,Correct,8,943
8,KCKCK,151,1,622,Correct,8,722
8,VNVNV,152,1,1149,Correct,8,875
8,LXLXL,153,1,899,Correct,8,913
8,CLCLC,154,1,709,Correct,8,879
8,NYNYN,155,1,881,Correct,8,831
8,LCMYL,233,2,710,Correct,8,848
8,NCNCN,113,1,776,Correct,8,667
8,ZVZRZ,161,2,817,Correct,8,783
8,ZVZVZ,151,1,621,Correct,8,705
8,PZPVP,161,2,798,Correct,8,734
8,PWPNP,171,2,1213,Correct,8,658
8,KLKCM,235,2,812,Correct,8,680
8,XMXMX,8,3,860,Correct,8,657
8,PRPXP,14,2,818,Correct,8,875
8,CVCYC,162,2,886,Correct,8,905
8,PXPMP,92,3,842,Correct,8,836
8,ZCZLZ,14,2,745,Correct,8,691
8,XWXWX,192,1,1509,Correct,8,812
8,ZCZLZ,16,2,844,Correct,8,948
8,MNCYC,231,2,1282,Correct,8,838
8,ZXZXZ,113,1,806,Correct,8,904
8,YRYNY,161,2,720,Correct,8,818
8,ZLZPZ,162,2,776,Correct,8,950
8,VZVZV,151,1,864,Correct,8,911
8,MXPXP,221,1,791,Correct,8,767
8,VWVWV,193,1,1454,Correct,8,926
8,PYPYP,16,1,772,Incorrect,8,662
8,XPXVX,162,2,738,Correct,8,718
8,XLXLX,151,1,718,Correct,8,810
8,YMYMY,10,3,970,Correct,8,861
8,VYVYV,13,1,751,Correct,8,804
8,PWPZP,174,2,710,Correct,8,912
8,PYPKP,16,2,968,Correct,8,700
8,NPNXN,162,2,1258,Correct,8,807
8,KVKVK,223,1,1058,Correct,8,812
8,NVNFN,222,2,926,Correct,8,878
8,XNXNX,151,1,974,Correct,8,939
8,YZYMY,112,3,1041,Correct,8,772
8,PFPFP,13,1,788,Correct,8,743
8,ZWZWZ,195,1,1088,Correct,8,715
8,PCPZP,16,2,1004,Correct,8,888
8,LRLPL,162,2,1274,Correct,8,922
8,CZCZC,151,1,879,Correct,8,836
8,NZNZN,152,1,919,Correct,8,731
8,CVCXC,161,2,737,Correct,8,650
8,XCXCX,151,1,694,Correct,8,936
8,YWYWY,196,1,1271,Correct,8,735
8,NLNLN,15,2,1389,Incorrect,8,837
8,VNVNV,152,1,1173,Correct,8,698
8,ZMZMZ,12,3,929,Correct,8,785
9,S,5,3,3679,New Target,9,918
9,NZNZN,151,1,813,Correct,9,699
9,KVKZK,161,2,775,Correct,9,780
9,LZLZL,151,1,739,Correct,9,783
9,XLXLX,152,1,620,Correct,9,853
9,ZXZXZ,153,1,967,Correct,9,902
9,KNKZK,161,2,935,Correct,9,841
9,NRNYN,162,2,841,Correct,9,902
9,CLCVC,163,2,757,Correct,9,675
9,ZCZFZ,164,2,657,Correct,9,740
9,NSNSN,7,3,642,Correct,9,771
9,VZVZV,13,1,687,Correct,9,790
9,NVNCN,161,2,699,Correct,9,819
9,VMVMV,191,2,1161,Incorrect,9,743
9,CVCXC,16,2,776,Correct,9,734
9,ZYZRZ,162,2,712,Correct,9,663
9,XNXZX,163,2,722,Correct,9,863
9,PXPXP,151,1,739,Correct,9,661
9,VCVSV,82,3,807,Correct,9,689
9,PRPCP,14,2,843,Correct,9,863
9,ZMZMZ,192,1,1072,Incorrect,9,890
9,ZFZFZ,15,1,652,Correct,9,867
9,FCFCF,152,1,661,Correct,9,925
9,YLYZY,161,2,675,Correct,9,855
9,KNKVK,162,2,719,Correct,9,891
9,SFPCP,231,2,1115,Correct,9,824
9,RPRPR,113,1,951,Correct,9,855
9,XMXMX,193,1,856,Correct,9,886
9,KFKFK,15,1,701,Correct,9,855
9,VSVSV,9,3,831,Correct,9,681
9,YVSVY,223,1,1429,Correct,9,837
9,VPVPV,113,1,651,Correct,9,711
9,XZXZX,152,1,703,Correct,9,713
9,KZKXK,161,2,872,Correct,9,858
9,RFRPR,162,2,775,Correct,9,943
9,NVNVS,225,1,817,Correct,9,839
9,ZXZXZ,113,1,1015,Correct,9,906
9,SRVRV,221,1,645,Correct,9,873
9,YCYCY,113,1,674,Correct,9,893
9,KMKZK,174,2,703,Correct,9,832
9,FZSVF,233,2,729,Correct,9,835
9,VYVYV,113,1,657,Correct,9,905
9,LVLVL,152,1,852,Correct,9,694
9,YFYFY,153,1,626,Correct,9,650
9,NXNSN,102,2,789,Incorrect,9,681
9,FNFCF,14,2,817,Correct,9,788
9,KVKVK,151,1,633,Correct,9,810
9,VZVCV,161,2,782,Correct,9,674
9,ZYZMZ,185,2,1436,Correct,9,677
9,VXVZV,16,2,798,Correct,9,763
9,VPVPV,151,1,757,Correct,9,800
9,RVRNS,235,2,910,Correct,9,805
9,YZYZY,113,1,725,Correct,9,811
9,ZSZSZ,11,3,722,Correct,9,841
9,FRFRF,13,1,1092,Correct,9,689
9,ZMZMZ,196,1,886,Correct,9,678
9,NZNXN,16,2,816,Correct,9,698
9,LSLFL,121,3,764,Correct,9,750
10,Q,5,3,5762,New Target,10,931
10,ZVZPZ,161,2,959,Correct,10,910
10,RZRZR,151,1,676,Correct,10,742
10,ZFZFZ,152,1,885,Correct,10,726
10,RZRZR,153,1,640,Correct,10,701
10,PZPXP,161,2,827,Correct,10,941
10,VFQPV,233,2,900,Correct,10,741
10,ZPZRZ,222,2,959,Correct,10,688
10,CYCVC,162,2,1016,Correct,10,707
10,CPCPC,151,1,893,Correct,10,756
10,YZYQY,72,3,1185,Correct,10,784
10,FVFXF,14,2,830,Correct,10,755
10,YNYNQ,225,1,883,Correct,10,847
10,ZYZYZ,113,1,714,Correct,10,824
10,FRFSF,181,2,1147,Incorrect,10,677
10,XNXPX,16,2,710,Correct,10,853
10,NXNXN,151,1,1064,Correct,10,668
10,PVPZP,161,2,1051,Correct,10,723
10,XVXPX,162,2,1032,Correct,10,814
10,FXFVF,163,2,1175,Correct,10,856
10,NSNKN,172,2,1126,Incorrect,10,735
10,VXVNV,16,2,961,Correct,10,894
10,XZXZX,151,1,905,Correct,10,662
10,VQVQV,8,3,1055,Correct,10,731
10,ZYZPZ,14,2,851,Correct,10,683
10,PZPSP,183,2,1097,Correct,10,889
10,YVYVY,15,1,808,Correct,10,703
10,NCNQN,92,2,940,Incorrect,10,919
10,FCFVF,14,2,977,Correct,10,798
10,ZFZFZ,151,1,985,Correct,10,655
10,NSNSN,194,2,941,Incorrect,10,796
10,YPYFY,16,2,834,Correct,10,816
10,ZKZKZ,151,1,713,Correct,10,802
10,QZRCR,231,2,1033,Correct,10,655
10,YPYVY,222,2,745,Correct,10,821
10,ZNZNZ,151,1,647,Correct,10,715
10,VQVQV,10,3,838,Correct,10,817
10,RVRZR,14,2,846,Correct,10,848
10,KRKSK,185,2,1157,Correct,10,827
10,NPNPN,15,1,1173,Correct,10,670
10,YPYPY,152,1,717,Correct,10,884
10,VCVYV,161,2,887,Correct,10,913
10,FPFNF,162,2,762,Correct,10,921
10,QVXVX,221,1,897,Correct,10,950
10,ZVZRZ,222,2,706,Correct,10,908
10,LFLFL,151,1,704,Correct,10,836
10,VLVLV,152,1,842,Correct,10,858
10,KXQXK,223,1,902,Correct,10,709
10,YQYQY,11,3,811,Correct,10,869
10,YCYCY,13,1,961,Correct,10,921
10,PZPYP,161,2,1097,Correct,10,672
10,LPLFL,162,2,935,Correct,10,791
10,VSVSV,196,,,Incorrect,10,859
10,VFVYQ,235,2,847,Correct,10,915
10,CZCXC,222,2,695,Correct,10,772
10,PVPCP,162,2,739,Correct,10,816
10,CXCXC,151,1,755,Correct,10,742
10,NZNZN,152,1,685,Correct,10,857
10,YPYCY,161,2,743,Correct,10,842
10,ZQZQZ,12,3,799,Correct,10,925
11,T,5,3,2978,New Target,11,751
11,KFKFK,151,1,1363,Correct,11,893
11,LZLZL,152,1,748,Correct,11,676
11,PFPVP,161,2,794,Correct,11,682
11,FRFPF,162,2,948,Correct,11,835
11,FZFZF,151,1,691,Correct,11,938
11,VTVTV,7,3,770,Correct,11,760
11,KYKCK,14,2,734,Correct,11,769
11,VPVPV,151,1,868,Correct,11,883
11,XQXQX,191,1,1276,Correct,11,796
11,PZPYP,16,2,823,Correct,11,706
11,KXKLK,162,2,782,Correct,11,853
11,TCNCN,221,1,1274,Correct,11,724
11,PZPNP,222,2,782,Correct,11,877
11,RCRPR,162,2,796,Correct,11,738
11,PZPRT,235,2,760,Correct,11,767
11,XFXVX,222,2,838,Correct,11,752
11,LTLVL,81,3,698,Correct,11,863
11,ZCZPZ,14,2,787,Correct,11,875
11,NCNQN,182,2,1005,Correct,11,849
11,XZXNX,16,2,961,Correct,11,697
11,ZPZPZ,151,1,1098,Correct,11,680
11,CFCFC,152,1,831,Correct,11,661
11,VXTRV,233,2,871,Correct,11,740
11,CFCVC,222,2,946,Correct,11,724
11,PYPYP,151,1,796,Correct,11,658
11,FQFYF,173,2,772,Correct,11,890
11,CNCFC,16,2,1152,Correct,11,786
11,PTPTP,9,3,862,Correct,11,746
11,ZCZCZ,13,1,854,Correct,11,747
11,KZKZK,152,1,681,Correct,11,900
11,RLRVR,161,2,1095,Correct,11,827
11,ZRZKZ,162,2,844,Correct,11,660
11,KLKLT,225,1,1495,Correct,11,687
11,ZQZQZ,194,1,868,Correct,11,874
11,VZVZV,15,1,555,Correct,11,807
11,RVRZR,161,2,697,Correct,11,928
11,ZPZCZ,162,2,604,Correct,11,700
11,VYVYV,151,1,765,Correct,11,812
11,RVRVR,152,1,642,Correct,11,886
11,PTPTP,10,3,917,Correct,11,722
11,PXPXP,13,1,943,Correct,11,666
11,KCKCK,152,1,664,Correct,11,746
11,YVYVY,153,1,1008,Correct,11,900
11,CYCYC,154,1,627,Correct,11,807
11,XCXCX,155,1,625,Correct,11,835
11,CYCQC,185,2,724,Correct,11,749
11,KCKNK,16,2,714,Correct,11,935
11,VPVPV,151,1,647,Correct,11,792
11,TXFZF,231,2,907,Correct,11,692
11,NYNVN,222,1,1267,Incorrect,11,682
11,VQVXV,176,2,797,Correct,11,775
11,ZRZRZ,15,1,721,Correct,11,908
11,VTVZV,111,3,969,Correct,11,938
11,PXPVP,14,2,795,Correct,11,808
11,FVFVF,151,1,639,Correct,11,922
11,VRVLV,161,2,691,Correct,11,652
11,YCYCY,151,1,674,Correct,11,747
11,XZTZX,223,1,788,Correct,11,680
11,VTVTV,12,3,923,Correct,11,867
12,O,5,3,2631,New Target,12,830
12,VXVLV,161,2,708,Correct,12,803
12,KVKCK,162,2,886,Correct,12,717
12,VLVLV,151,1,816,Correct,12,703
12,ZCZVZ,161,2,762,Correct,12,800
12,KFKFK,151,1,720,Correct,12,928
12,XKXKX,152,1,860,Correct,12,848
12,YXYXY,153,1,801,Correct,12,894
12,FVFVF,154,1,925,Correct,12,705
12,PVPOP,72,3,1117,Correct,12,950
12,ZXZYZ,14,2,824,Correct,12,863
12,PXPVP,162,2,855,Correct,12,659
12,ZTZTZ,191,2,1220,Incorrect,12,674
12,CVCKC,16,2,716,Correct,12,788
12,CKCKC,151,1,677,Correct,12,882
12,NPNPN,152,1,912,Correct,12,894
12,ZRZNZ,161,2,1508,Correct,12,890
12,OZCZC,221,1,1496,Correct,12,701
12,LFLFL,113,1,681,Correct,12,789
12,CXCXC,152,1,804,Correct,12,856
12,KPKPK,153,1,657,Correct,12,755
12,FRFKF,161,2,1450,Correct,12,877
12,FOFOF,8,3,790,Correct,12,930
12,ZFZFZ,13,1,685,Correct,12,851
12,LKLZO,235,2,780,Correct,12,761
12,KLKZK,222,2,849,Correct,12,929
12,YXYCY,162,2,1095,Correct,12,811
12,LOLOL,9,3,570,Correct,12,709
12,XLXLX,13,1,1244,Correct,12,791
12,XVXVX,152,1,695,Correct,12,774
12,FTFTF,192,1,1296,Correct,12,886
12,OXNZN,231,2,807,Correct,12,726
12,CZCZC,113,1,896,Correct,12,841
12,LZLZL,152,1,676,Correct,12,822
12,VLVPV,161,2,722,Correct,12,815
12,VYVYO,225,1,813,Correct,12,866
12,XKXKX,113,1,651,Correct,12,708
12,RTRTR,193,1,652,Correct,12,799
12,KVKCK,16,2,712,Correct,12,858
12,ROROR,101,3,773,Correct,12,789
12,PRPRP,13,1,1088,Correct,12,786
12,LYLVL,161,2,1256,Correct,12,917
12,PLPLP,151,1,867,Correct,12,764
12,CTCTC,194,1,841,Correct,12,854
12,XZXYX,16,2,902,Correct,12,651
12,NKNKN,151,1,1080,Correct,12,856
12,VLVZV,161,2,1000,Correct,12,784
12,YOYOY,11,3,1003,Correct,12,715
12,PZOZP,223,1,812,Correct,12,795
12,FYFYF,113,1,748,Correct,12,662
12,ZXZVZ,161,2,754,Correct,12,933
12,VKVZV,162,2,887,Correct,12,947
12,ZTZTZ,195,1,990,Correct,12,757
12,LKLZL,16,2,880,Correct,12,840
12,KCKVK,162,2,1080,Correct,12,723
12,PXPKP,163,2,752,Correct,12,938
12,KCOZK,233,2,890,Correct,12,850
12,FKFKF,113,1,706,Correct,12,720
12,CTCRC,176,2,750,Correct,12,803
12,NXNXN,15,1,861,Correct,12,721
12,KXKVK,161,2,685,Correct,12,889
12,CPCOC,122,3,1037,Correct,12,747
13,H,5,3,1192,New Target,13,733
13,VFVNV,151,2,922,Incorrect,13,863
13,YVYVY,152,1,862,Correct,13,870
13,XVXVX,153,1,714,Correct,13,664
13,NRNXN,161,2,965,Correct,13,877
13,PZPKP,162,2,968,Correct,13,825
13,HLVLV,221,1,780,Correct,13,770
13,CXCZC,222,2,735,Correct,13,949
13,LHLYL,71,3,999,Correct,13,925
13,YKYFY,14,2,1113,Correct,13,808
13,YOYRY,171,2,1397,Correct,13,844
13,ZKZYZ,16,2,1033,Correct,13,749
13,RZRZR,151,1,714,Correct,13,746
13,NFNYN,161,2,1334,Correct,13,815
13,KVKFK,162,2,911,Correct,13,675
13,XFXYX,163,2,825,Correct,13,657
13,LKLVL,164,2,708,Correct,13,673
13,NLNLN,151,1,1219,Correct,13,769
13,XCXOX,182,2,1256,Correct,13,936
13,FXFXF,15,1,829,Correct,13,945
13,VHVHV,8,3,835,Correct,13,823
13,PVPVP,13,1,1066,Correct,13,843
13,CRCXC,161,2,772,Correct,13,885
13,NXNXN,151,1,779,Correct,13,833
13,XRXRX,152,1,742,Correct,13,862
13,YFYXY,161,2,949,Correct,13,662
13,ZOZOZ,193,1,1275,Correct,13,828
13,RZRZR,15,1,814,Correct,13,923
13,FKFKF,152,1,755,Correct,13,906
13,PFPFP,153,1,769,Correct,13,786
13,XYXHX,92,3,906,Correct,13,811
13,RZRKR,14,2,1233,Correct,13,727
13,FLFLH,225,1,860,Correct,13,769
13,KRKRK,113,1,936,Correct,13,720
13,ZVZNZ,161,2,706,Correct,13,693
13,ZOZOZ,194,1,1043,Correct,13,661
13,FZFZF,15,1,733,Correct,13,936
13,FHFKF,101,3,1213,Correct,13,673
13,ZXHLZ,233,2,1373,Correct,13,664
13,FKFXF,222,2,747,Correct,13,903
13,CFCYC,162,2,1207,Correct,13,765
13,ZXZVZ,163,2,829,Correct,13,859
13,KCKOK,185,2,1043,Correct,13,904
13,ZXZVH,235,2,944,Correct,13,810
13,CKCKC,113,1,900,Correct,13,750
13,ZXZCZ,161,2,843,Correct,13,761
13,YVYVY,151,1,911,Correct,13,927
13,RVHVR,223,1,711,Correct,13,715
13,ZRZRZ,113,1,610,Correct,13,825
13,ZHZHZ,11,3,963,Correct,13,794
13,VZVZV,13,1,1120,Correct,13,934
13,HZVRV,231,2,1176,Correct,13,932
13,FVFVF,113,1,679,Correct,13,713
13,RNRCR,161,2,783,Correct,13,925
13,COCOC,196,1,1274,Correct,13,811
13,VNVXV,16,2,1039,Correct,13,917
13,XHXHX,12,3,933,Correct,13,665
14,G,5,3,1613,New Target,14,669
14,FZFZF,151,1,860,Correct,14,838
14,RPRVR,161,2,773,Correct,14,764
14,XCXCX,151,1,869,Correct,14,672
14,YXYXY,152,1,824,Correct,14,879
14,KZKZK,153,1,798,Correct,14,817
14,RYRKR,161,2,903,Correct,14,873
14,FYFNF,162,2,988,Correct,14,808
14,VKVKV,151,1,757,Correct,14,675
14,KPGPK,223,1,1001,Correct,14,929
14,YNYNY,113,1,696,Correct,14,849
14,VYVYV,152,1,609,Correct,14,865
14,YCYXY,161,2,761,Correct,14,662
14,LKLGL,72,2,903,Incorrect,14,750
14,VXVXV,13,1,956,Correct,14,879
14,KCKVK,161,2,780,Correct,14,942
14,YKYKY,151,1,747,Correct,14,723
14,RHRXR,171,2,1079,Correct,14,780
14,FVFCF,16,2,892,Correct,14,669
14,YXYGY,82,1,1046,Incorrect,14,704
14,CLCLC,13,1,737,Correct,14,925
14,ZXZCZ,161,2,1243,Correct,14,878
14,VLVFV,162,2,1016,Correct,14,705
14,CPCPG,225,1,863,Correct,14,677
14,KHKNK,172,2,745,Correct,14,731
14,ZKZVZ,16,2,849,Correct,14,922
14,YKYLY,162,2,841,Correct,14,755
14,CNCNC,151,1,693,Correct,14,685
14,PGPGP,9,3,739,Correct,14,828
14,VPVPV,13,1,1376,Correct,14,728
14,FXGRF,233,2,673,Correct,14,853
14,CYCVC,222,2,815,Correct,14,872
14,FNFNF,151,1,732,Correct,14,710
14,KFKCK,161,2,1137,Correct,14,948
14,ZFZHZ,183,2,910,Correct,14,810
14,NXNXN,15,1,758,Correct,14,768
14,FNFNF,152,1,687,Correct,14,813
14,LXLNG,235,2,1021,Correct,14,800
14,XKXVX,222,2,959,Correct,14,811
14,ZHZHZ,194,1,1183,Correct,14,897
14,PFPFP,15,1,891,Correct,14,772
14,ZYZYZ,152,1,899,Correct,14,712
14,XPXVX,161,2,825,Correct,14,822
14,YCYCY,151,1,723,Correct,14,813
14,RGRGR,10,3,802,Correct,14,747
14,VRVRV,13,1,1096,Correct,14,895
14,PKPNP,161,2,873,Correct,14,758
14,XGXGX,11,3,717,Correct,14,887
14,GZYVY,231,2,967,Correct,14,895
14,VCVNV,222,2,1269,Correct,14,917
14,VHVHV,195,1,1290,Correct,14,887
14,LXLNL,16,2,782,Correct,14,856
14,GKPKP,221,1,914,Correct,14,907
14,XRXPX,222,2,1319,Correct,14,801
14,XNXNX,151,1,1084,Correct,14,808
14,KHKNK,176,2,1319,Incorrect,14,882
14,RZRZR,15,1,634,Correct,14,869
14,CGCFC,121,3,966,Correct,14,900
15,A,5,3,1913,New Target,15,839
15,XRXFX,161,2,1344,Correct,15,692
15,RXRKR,162,2,1058,Correct,15,902
15,YRYRY,151,1,1026,Correct,15,811
15,XPXPX,152,1,755,Correct,15,782
15,RPRPR,153,1,705,Correct,15,704
15,NCNCN,154,1,701,Correct,15,925
15,RXRZR,161,2,1029,Correct,15,942
15,NANAN,7,3,1079,Correct,15,692
15,KCKYK,14,2,967,Correct,15,770
15,XKXFX,162,2,860,Correct,15,725
15,ZLZKZ,163,2,760,Correct,15,704
15,VCVZV,164,2,713,Correct,15,696
15,XCXVX,165,2,663,Correct,15,800
15,LKLZA,235,2,711,Correct,15,770
15,NCNCN,113,1,1089,Correct,15,895
15,YGYGY,191,1,1440,Correct,15,683
15,VLVLV,15,1,796,Correct,15,946
15,XRXRX,152,1,681,Correct,15,779
15,KAKPK,81,3,790,Correct,15,812
15,YZAZY,233,1,782,Incorrect,15,864
15,CFCFC,113,1,935,Correct,15,788
15,VNVLV,161,2,831,Correct,15,690
15,KPKVK,162,2,787,Correct,15,922
15,NCNRN,163,2,859,Correct,15,893
15,FGFGF,192,1,1230,Correct,15,917
15,RCRYR,16,2,858,Correct,15,741
15,KRKCK,162,2,861,Correct,15,881
15,CRCRC,151,1,1014,Correct,15,761
15,XPAPX,223,1,1384,Correct,15,709
15,LPLXL,222,2,911,Correct,15,691
15,CGCVC,173,2,993,Correct,15,872
15,FKFZF,16,2,868,Correct,15,788
15,CACAC,9,3,1133,Correct,15,772
15,XCXCX,13,1,1063,Correct,15,909
15,AXRXR,221,1,897,Correct,15,928
15,NKNRN,222,2,1272,Correct,15,792
15,KNKFK,162,2,662,Correct,15,657
15,KAKAK,10,3,1126,Correct,15,812
15,ZCZRZ,14,2,728,Correct,15,711
15,RPRPR,151,1,946,Correct,15,901
15,NCNCN,152,1,643,Correct,15,851
15,RYRGR,184,2,835,Correct,15,768
15,VPVPV,15,1,925,Correct,15,762
15,RCRCA,225,1,760,Correct,15,653
15,KXKPK,222,2,700,Correct,15,920
15,NPNPN,151,1,868,Correct,15,944
15,YCYCY,152,1,688,Correct,15,654
15,PXPAP,112,3,1548,Correct,15,819
15,ZCZNZ,14,2,944,Correct,15,671
15,KYKGK,185,2,721,Correct,15,858
15,ANLPL,231,2,1246,Correct,15,803
15,CXCPC,222,2,743,Correct,15,796
15,YRYRY,151,1,820,Correct,15,742
15,LGLGL,196,1,1099,Correct,15,825
15,VYVLV,16,2,955,Correct,15,791
15,KVKVK,151,1,909,Correct,15,831
15,RKRKR,152,1,885,Correct,15,696
15,VXVXV,153,1,874,Correct,15,824
15,XAXAX,12,3,972,Correct,15,927
