Trial No,Stimulus,Trigger,Response,Response Time(ms),Correct,Block,Fixation Duration
Practice
OT Practice
1,SKSKS,15,,,False,0,844
1,DLDUD,16,2,1198,Correct,0,823
1,PDPGP,16,2,997,Correct,0,731
1,MWMWM,15,1,743,Correct,0,654
1,FTFTF,15,1,755,Correct,0,676
1,AXAMA,16,2,1286,Correct,0,878
1,RYRGR,16,2,778,Correct,0,753
1,DODOD,15,1,820,Correct,0,685
1,QTQAQ,16,1,855,False,0,875
1,YEYEY,15,1,805,Correct,0,946
2,GYGDG,16,2,1303,Correct,0,943
2,SWSWS,15,1,709,Correct,0,917
2,HLHUH,16,2,958,Correct,0,867
2,DEDED,15,1,627,Correct,0,680
2,ZPZOZ,16,2,849,Correct,0,780
2,ATATA,15,1,665,Correct,0,691
2,QOQOQ,15,1,834,Correct,0,798
2,FPFGF,16,2,831,Correct,0,942
2,TRTET,16,2,688,Correct,0,903
2,DQDQD,15,1,782,Correct,0,691
4,PLPLP,15,1,825,Correct,0,837
4,ATAIA,16,2,765,Correct,0,807
4,SKSGS,16,2,1507,Correct,0,833
4,ZYZYZ,15,1,700,Correct,0,878
4,QSQSQ,15,1,776,Correct,0,717
4,TZTDT,16,2,943,Correct,0,820
4,JYJGJ,16,2,676,Correct,0,680
4,DYDYD,15,1,590,Correct,0,837
4,LTLCL,16,2,730,Correct,0,936
4,FQFEF,16,2,653,Correct,0,938
1,SKSKS,15,1,663,Correct,0,832
1,DLDUD,16,2,589,Correct,0,847
1,PDPGP,16,2,678,Correct,0,944
1,MWMWM,15,1,624,Correct,0,814
1,FTFTF,15,1,868,Correct,0,661
1,AXAMA,16,2,598,Correct,0,808
1,RYRGR,16,2,662,Correct,0,686
1,DODOD,15,1,512,Correct,0,815
1,QTQAQ,16,2,718,Correct,0,920
1,YEYEY,15,1,663,Correct,0,788
2,GYGDG,16,2,803,Correct,0,917
2,SWSWS,15,1,570,Correct,0,834
2,HLHUH,16,2,631,Correct,0,808
2,DEDED,15,1,599,Correct,0,744
2,ZPZOZ,16,2,586,Correct,0,680
2,ATATA,15,1,621,Correct,0,670
2,QOQOQ,15,1,633,Correct,0,842
2,FPFGF,16,2,769,Correct,0,853
2,TRTET,16,2,823,Correct,0,824
2,DQDQD,15,1,927,Correct,0,734
DT Practice
1,TKTKT,15,1,1300,Correct,0,871
1,SLSUS,16,,,False,0,889
1,VZVGV,7,[2],[1093],False,0,936
1,XWXZX,7,,,False,0,774
1,ATATA,15,1,1144,Correct,0,702
1,HXZMH,16,2,1178,Correct,0,950
1,TZTZT,7,[1][3],[1026][1153],Correct,0,790
1,UOUOU,15,2,872,False,0,686
1,ZTWAW,16,2,936,Correct,0,905
1,RZRER,7,[2],[1126],False,0,883
2,JYJDJ,16,2,889,Correct,0,841
2,DWDWD,15,2,1174,False,0,938
2,GNGNG,7,[1][3],[842][890],Correct,0,775
2,NEZEZ,16,1,1049,Correct,0,849
2,RNROR,7,[2],[796],False,0,671
2,QTQNQ,7,[1][2],[1101][1308],False,0,739
2,HOHON,15,2,1032,False,0,784
2,KPKGK,16,2,935,Correct,0,709
2,DRDED,16,2,869,Correct,0,881
2,LNLNL,7,[1][3],[984][1128],Correct,0,865
4,GLGLG,15,2,926,False,0,834
4,DTDID,16,2,813,Correct,0,867
4,SMSGS,16,2,774,Correct,0,760
4,ZFZYZ,7,[1][3],[1034][1242],False,0,937
4,TSTFT,7,[2][3],[1511][1591],Correct,0,798
4,OFOFO,7,[1][3],[1001][1017],Correct,0,789
4,WYFGW,16,2,925,Correct,0,827
4,WYWYW,15,1,1241,Correct,0,935
4,MFMCM,7,[1][2],[1025][1505],False,0,843
4,HQHEH,16,2,1046,Correct,0,678
1,TKTKT,15,1,1347,Correct,0,792
1,SLSUS,16,2,887,Correct,0,732
1,VZVGV,7,[2][3],[1054][1230],Correct,0,706
1,XWXZX,7,[1][3],[932][1060],False,0,806
1,ATATA,15,1,939,Correct,0,948
1,HXZMH,16,2,1319,Correct,0,945
1,TZTZT,7,[1][3],[756][852],Correct,0,858
1,UOUOU,15,1,895,Correct,0,925
1,ZTWAW,16,2,887,Correct,0,684
1,RZRER,7,[1][2],[919][1239],False,0,736
Trials
1,D,5,3,4542,New Target,1,749
1,ZNZYZ,161,2,1091,Correct,1,843
1,FZFZF,151,1,1461,Correct,1,722
1,RKRKR,152,1,1209,Correct,1,730
1,RXRNR,161,2,814,Correct,1,874
1,CNCFC,162,2,933,Correct,1,823
1,PDPDP,7,,,Incorrect,1,813
1,CPCFC,14,2,748,Correct,1,770
1,VLVNV,162,2,660,Correct,1,906
1,KFKFK,151,2,1118,Incorrect,1,881
1,ZNZNZ,152,1,1230,Correct,1,666
1,KCKPD,235,2,852,Correct,1,867
1,ZKZFZ,222,2,938,Correct,1,856
1,NRNZN,162,2,832,Correct,1,666
1,KXKRK,163,2,774,Correct,1,835
1,YPYZY,164,2,750,Correct,1,889
1,FKDKF,223,2,773,Incorrect,1,932
1,RPRPR,113,1,960,Correct,1,830
1,VRVKV,161,2,941,Correct,1,942
1,RFRPR,162,2,909,Correct,1,883
1,KVKVK,151,1,1001,Correct,1,680
1,YKYVY,161,2,1098,Correct,1,759
1,VDVDV,8,[1][3],[797][909],Correct,1,698
1,DVZVZ,221,1,986,Correct,1,811
1,YFYFY,113,1,1022,Correct,1,787
1,ZYZYZ,152,1,738,Correct,1,684
1,VLVXV,161,2,733,Correct,1,843
1,DPXZX,231,2,796,Correct,1,730
1,RYRYR,113,1,824,Correct,1,790
1,PDPNP,91,[2][3],[1027][1155],Correct,1,855
1,KXKXK,13,1,1105,Correct,1,847
1,ZYZYZ,152,1,716,Correct,1,843
1,VKVKV,153,1,1114,Correct,1,799
1,YZYZY,154,1,768,Correct,1,925
1,NLNZN,161,2,768,Correct,1,720
1,ZNDYZ,233,2,727,Correct,1,902
1,PCPXP,222,2,695,Correct,1,713
1,ZVZFZ,162,2,619,Correct,1,651
1,RCRZR,163,2,615,Correct,1,875
1,LRLRL,151,1,726,Correct,1,804
1,ZDZDZ,10,[1][3],[771][850],Correct,1,701
1,RNRZR,14,2,654,Correct,1,938
1,CXCYC,162,2,673,Correct,1,737
1,RCRLR,163,2,605,Correct,1,886
1,FRFRF,151,1,783,Correct,1,719
1,XFXFX,152,1,831,Correct,1,658
1,RPRLR,161,2,757,Correct,1,905
1,YXYRY,162,2,1172,Correct,1,662
1,FYFYF,151,1,812,Correct,1,909
1,YZYVY,161,2,792,Correct,1,722
1,YKYKY,151,1,752,Correct,1,798
1,XRXRX,152,1,857,Correct,1,861
1,XVXZX,161,2,1028,Correct,1,718
1,PDPDP,11,[1][3],[758][902],Correct,1,918
1,ZFZFZ,13,1,963,Correct,1,707
1,PXPXP,152,1,707,Correct,1,863
1,LYLYL,153,1,689,Correct,1,798
1,NKNKD,225,1,758,Correct,1,656
1,ZNZNZ,113,1,785,Correct,1,756
1,PYPZP,161,2,892,Correct,1,753
1,XPXPX,151,1,656,Correct,1,811
1,VLVLV,152,1,686,Correct,1,876
1,PKPXP,161,1,695,Incorrect,1,879
1,FZFZF,151,1,788,Correct,1,785
1,LDLDL,12,[1][3],[845][893],Correct,1,849
2,U,5,3,751,New Target,2,937
2,ZVZFZ,161,2,1409,Correct,2,882
2,FZFZF,151,1,838,Correct,2,733
2,RFRFR,152,1,765,Correct,2,839
2,NZNKN,161,2,955,Correct,2,695
2,FZFNF,162,2,849,Correct,2,760
2,RXRXR,151,1,836,Correct,2,946
2,KRKYK,161,2,952,Correct,2,874
2,NZNPN,162,2,781,Correct,2,789
2,XPXPX,151,1,953,Correct,2,752
2,CUCUC,7,[1][3],[985][1033],Correct,2,730
2,RFRFR,13,1,863,Correct,2,697
2,VYVXV,161,1,888,Incorrect,2,797
2,VDVDV,191,2,1304,Incorrect,2,924
2,ZKZRZ,15,2,1339,Correct,2,855
2,XCXCX,151,1,980,Correct,2,751
2,CNCUC,82,[2][3],[1252][1396],Correct,2,695
2,RCRCR,13,1,808,Correct,2,757
2,ZPZXZ,161,2,691,Correct,2,752
2,FKFYF,162,2,768,Correct,2,782
2,ZFZYZ,163,2,778,Correct,2,748
2,PXPXP,151,1,933,Correct,2,748
2,URCKC,231,2,941,Correct,2,738
2,PCPCP,113,1,779,Correct,2,914
2,XNXNX,152,1,885,Correct,2,776
2,RCRZR,161,2,1020,Correct,2,712
2,XVXVX,151,1,1001,Correct,2,925
2,NRNRN,152,1,790,Correct,2,882
2,FPFPF,225,1,731,Correct,2,897
2,XVXFX,222,2,826,Correct,2,695
2,PRPRP,151,1,704,Correct,2,894
2,FYFCF,161,2,1231,Correct,2,758
2,XUXFX,91,[2][3],[1108][1268],Correct,2,654
2,CYCVC,14,2,1041,Correct,2,726
2,VDVKV,172,2,1092,Correct,2,704
2,YCYCY,15,1,830,Correct,2,887
2,NKNLN,161,2,1176,Correct,2,771
2,XPUKX,233,2,1543,Correct,2,743
2,ZPZPZ,113,1,838,Correct,2,758
2,KRKRK,152,1,1033,Correct,2,946
2,XKXKX,153,1,688,Correct,2,657
2,YUYVY,101,[2][3],[675][818],Correct,2,760
2,XKXFU,235,2,903,Correct,2,684
2,NFNFN,113,1,754,Correct,2,663
2,KDKDK,193,1,624,Correct,2,691
2,XYXKX,16,2,819,Correct,2,729
2,YZUZY,223,2,1404,Incorrect,2,804
2,KFKVK,222,2,1180,Correct,2,852
2,LYLYL,151,1,680,Correct,2,779
2,CXCDC,184,2,913,Incorrect,2,944
2,XZXNX,16,2,808,Correct,2,774
2,PXPXP,151,1,707,Correct,2,780
2,ZRZYZ,161,2,853,Correct,2,657
2,PUPYP,111,[2][3],[1023][1151],Correct,2,766
2,RNRNR,14,1,832,Correct,2,838
2,KDKDK,195,1,840,Correct,2,766
2,KNKNK,15,1,797,Correct,2,842
2,PRPKP,161,2,1170,Correct,2,902
2,UNYNY,221,1,1080,Correct,2,896
2,NYNYN,113,1,807,Correct,2,809
2,YXYXY,152,1,709,Incorrect,2,701
2,RDRDR,196,1,781,Correct,2,944
2,FCFCF,15,1,612,Correct,2,898
2,ZKZKZ,152,1,787,Correct,2,809
2,ZUZUZ,12,[2][3],[843][1019],Incorrect,2,818
3,E,5,3,2191,New Target,3,773
3,YZYZY,151,1,964,Correct,3,902
3,VFVNV,161,2,1212,Correct,3,704
3,KYKYK,151,1,824,Correct,3,719
3,NKNKN,152,1,881,Correct,3,806
3,XVXNX,161,2,1080,Correct,3,839
3,RERFR,71,[2][3],[1055][1183],Correct,3,840
3,XNXNX,13,1,714,Correct,3,731
3,NXNXN,152,1,772,Correct,3,894
3,ZLZNZ,161,2,761,Correct,3,934
3,CUCNC,171,2,1125,Correct,3,799
3,FYFRF,16,2,849,Correct,3,797
3,ZLZLZ,151,1,900,Correct,3,887
3,YZYZY,152,1,821,Correct,3,913
3,CYCYC,153,1,763,Correct,3,906
3,VUVUV,192,2,1483,Incorrect,3,704
3,PXPRP,16,2,791,Correct,3,910
3,YPYPY,151,1,688,Correct,3,745
3,CECEC,8,[1][3],[1153][1233],Correct,3,786
3,VNENV,223,1,1380,Correct,3,672
3,KRKFK,222,2,1368,Correct,3,731
3,XLXLE,225,1,912,Correct,3,691
3,RFRUR,183,2,1397,Correct,3,771
3,XRXLX,16,2,727,Correct,3,844
3,NZNPN,162,2,703,Correct,3,898
3,XZXZX,151,1,1457,Correct,3,654
3,FZFZF,152,1,642,Correct,3,754
3,PFPFP,153,1,662,Correct,3,710
3,YZYXY,161,2,752,Correct,3,900
3,KEKEK,9,[1][3],[936][1048],Correct,3,945
3,CXCPC,14,2,741,Correct,3,723
3,VXVXV,151,1,770,Correct,3,760
3,NUNZN,174,2,811,Correct,3,888
3,RKRVR,16,2,880,Correct,3,897
3,XRXRX,151,1,794,Correct,3,657
3,ERNFN,231,2,913,Incorrect,3,845
3,YRYNY,222,2,759,Correct,3,811
3,PZPEP,102,[2][3],[1053][1213],Correct,3,780
3,ZYZXZ,14,2,899,Correct,3,876
3,RZRVR,162,2,686,Correct,3,705
3,XRXRX,151,1,749,Correct,3,803
3,KUKFK,175,2,1300,Correct,3,896
3,RKRKR,15,1,756,Correct,3,903
3,ZFZFZ,152,1,1003,Correct,3,934
3,YZYVY,161,2,1323,Correct,3,873
3,XPXNX,162,2,826,Correct,3,934
3,YRYRY,151,1,703,Correct,3,881
3,EPVPV,221,1,865,Correct,3,665
3,CRCEC,112,[2][3],[1001][1128],Correct,3,750
3,RFRCR,14,2,1021,Correct,3,909
3,CPCVC,162,2,762,Correct,3,881
3,RXRCR,163,2,1148,Correct,3,720
3,VNVLV,164,2,713,Correct,3,745
3,ZXZXZ,151,1,819,Correct,3,882
3,ZCZCZ,152,1,712,Correct,3,838
3,PYPUP,186,2,923,Correct,3,654
3,YKYPY,16,2,1023,Correct,3,745
3,YREXY,233,2,1109,Correct,3,757
3,ZKZKZ,113,1,927,Correct,3,879
3,XLXNX,161,2,754,Correct,3,822
3,KFKRE,235,2,1055,Correct,3,710
3,RXRLR,222,2,699,Correct,3,874
3,RERXR,121,[2][3],[1125][1237],Correct,3,679
4,J,5,3,2227,New Target,4,739
4,CYCVC,161,2,1034,Correct,4,799
4,RXRCR,162,2,827,Correct,4,806
4,FPFVF,163,2,824,Correct,4,666
4,LZLZL,151,1,867,Correct,4,735
4,PLPLP,152,1,853,Correct,4,880
4,NPNPN,153,1,1174,Correct,4,939
4,XZXZX,161,1,684,Incorrect,4,923
4,CNCKC,162,2,1504,Correct,4,653
4,PCPYJ,235,2,1298,Correct,4,725
4,VYVYV,113,,,Incorrect,4,796
4,RLRLR,152,1,677,Correct,4,797
4,CJCJC,7,[1][3],[1118][1150],Correct,4,796
4,ZLZLZ,13,1,1012,Correct,4,900
4,FZFZF,152,1,760,Correct,4,795
4,CFCFC,153,1,965,Correct,4,688
4,PZPZP,154,1,573,Correct,4,678
4,XEXEX,191,1,658,Correct,4,722
4,NVNFN,16,1,1165,Incorrect,4,916
4,KYKYK,151,1,1330,Correct,4,916
4,ZNZVZ,161,2,773,Correct,4,783
4,YVJXY,233,2,763,Correct,4,887
4,XFXFX,113,2,904,Incorrect,4,780
4,XNXNX,152,1,688,Correct,4,753
4,FJFKF,81,[2][3],[1081][1225],Correct,4,784
4,CZCYC,14,2,813,Correct,4,885
4,ZXZCZ,162,2,985,Correct,4,770
4,RYRYJ,225,,,Incorrect,4,926
4,FPFZF,222,2,699,Correct,4,912
4,XRXRX,151,1,523,Correct,4,739
4,YPYEY,182,2,557,Correct,4,861
4,XRXRX,15,1,607,Correct,4,851
4,XZXPX,161,2,467,Correct,4,709
4,CJCJC,9,[2][3],[912][1024],Incorrect,4,750
4,ZXZVZ,14,2,871,Correct,4,745
4,VKVKV,151,2,1107,Incorrect,4,657
4,VEVNV,173,2,1189,Correct,4,674
4,ZKZVZ,16,2,1472,Correct,4,798
4,XVXJX,102,[2][3],[1202][1346],Correct,4,863
4,RXRVR,14,2,858,Correct,4,809
4,LRLRL,151,1,867,Correct,4,731
4,YNJNY,223,1,928,Correct,4,651
4,NPNJN,222,2,1128,Correct,4,687
4,ZEZEZ,194,1,705,Correct,4,924
4,ZNZNZ,15,1,737,Correct,4,790
4,YZYZY,152,1,783,Correct,4,712
4,XYXYX,153,1,887,Correct,4,810
4,ZXZXZ,221,1,1016,Correct,4,910
4,LYLZL,222,1,968,Incorrect,4,798
4,CYCNC,162,2,870,Correct,4,922
4,XEXEX,195,1,703,Correct,4,711
4,CVCXC,16,2,762,Correct,4,853
4,ZPZXZ,162,2,947,Correct,4,821
4,FZFZF,151,1,763,Correct,4,724
4,RXRJR,112,[2][3],[973][1085],Correct,4,697
4,PRPFP,14,2,980,Correct,4,773
4,PKPEP,186,2,728,Correct,4,736
4,XZXPX,16,2,1011,Correct,4,794
4,JCZVZ,231,2,1301,Correct,4,785
4,RXRLR,222,2,1034,Correct,4,880
4,VZVZV,151,1,925,Correct,4,722
4,XJXJX,12,[1][3],[1016][1144],Correct,4,751
5,I,5,3,2526,New Target,5,936
5,PCPCP,151,1,835,Correct,5,709
5,XYXYX,152,1,651,Correct,5,754
5,VXVXV,153,1,777,Correct,5,855
5,XVXVX,154,1,707,Correct,5,778
5,ZRZXZ,161,2,782,Correct,5,910
5,FPFZF,162,2,724,Correct,5,927
5,ZYZYZ,151,1,880,Correct,5,749
5,RVRZR,161,2,682,Correct,5,683
5,CICIC,7,[1][3],[824][968],Correct,5,782
5,XLXLX,13,1,821,Correct,5,732
5,YVYVY,152,1,745,Correct,5,938
5,CJCJC,191,2,930,Incorrect,5,855
5,FNFCF,16,2,906,Correct,5,689
5,PVPRP,162,2,788,Correct,5,711
5,FZFZF,151,1,715,Correct,5,879
5,NVIVN,223,1,1098,Correct,5,716
5,CVCIC,82,[2][3],[1093][1253],Correct,5,737
5,ZXZXZ,13,1,735,Correct,5,741
5,FCFZF,161,2,907,Correct,5,790
5,IXRXR,221,1,899,Correct,5,710
5,ZPZNZ,222,2,710,Correct,5,824
5,VZVZV,151,1,805,Correct,5,766
5,YRYNY,161,2,650,Correct,5,948
5,VNVPV,162,2,709,Correct,5,939
5,RVRJR,182,2,1214,Correct,5,895
5,VRVRV,15,1,908,Correct,5,669
5,VIVIV,9,[1][3],[1039][1118],Correct,5,897
5,CXCVC,14,2,801,Correct,5,910
5,PZPZP,151,1,666,Correct,5,856
5,IXVKV,231,2,1142,Correct,5,860
5,YJYCY,173,2,1058,Incorrect,5,796
5,VYVYV,15,1,644,Correct,5,720
5,YVYVY,152,1,996,Correct,5,790
5,NVNVN,153,1,973,Correct,5,655
5,XYXVX,161,2,801,Correct,5,760
5,NJNCN,174,2,1024,Correct,5,717
5,NXNYN,16,2,1195,Correct,5,912
5,VXVCV,162,2,802,Correct,5,873
5,ZKZKZ,151,1,973,Correct,5,763
5,XRXYX,161,2,851,Correct,5,662
5,ZCZXZ,162,2,652,Correct,5,709
5,KVKYI,235,2,968,Correct,5,871
5,CNCNC,113,1,727,Correct,5,876
5,RIRIR,10,[1][3],[1037][1149],Correct,5,721
5,VYVXV,14,2,717,Correct,5,761
5,FXIRF,233,2,769,Correct,5,653
5,PFPFP,113,1,911,Correct,5,725
5,VPVPV,152,1,703,Correct,5,946
5,ZJZJZ,195,1,1353,Correct,5,908
5,ZVZNZ,16,2,1003,Correct,5,898
5,YVYXY,162,2,696,Correct,5,851
5,PRPRP,151,1,900,Correct,5,810
5,YPYPY,152,1,1147,Correct,5,784
5,ZIZPZ,111,[2][2],[712][1064],Incorrect,5,737
5,NKNXN,14,2,1340,Correct,5,936
5,RZRXR,162,2,804,Correct,5,739
5,RXRXR,151,1,1026,Correct,5,659
5,ZJZJZ,196,1,1124,Correct,5,771
5,CVCVI,225,1,817,Incorrect,5,827
5,NKNKN,113,1,889,Correct,5,876
5,NRNZN,161,2,961,Correct,5,705
5,CNCNC,151,1,672,Correct,5,903
5,RFRIR,122,[2][3],[1063][1206],Correct,5,863
6,B,5,3,1743,New Target,6,821
6,YKYZY,161,2,1114,Correct,6,728
6,VCVRV,162,2,772,Correct,6,840
6,XVXVX,151,1,642,Correct,6,701
6,KZKRK,161,2,765,Correct,6,946
6,ZVZXZ,162,2,795,Correct,6,744
6,RCRNR,163,2,826,Correct,6,679
6,CXCRC,164,2,672,Correct,6,858
6,VNBCV,233,2,738,Correct,6,763
6,CXCVC,222,2,723,Correct,6,673
6,RFRFR,151,1,881,Correct,6,748
6,XPXRX,161,2,979,Correct,6,872
6,RYRBR,72,[2][3],[861][1021],Correct,6,760
6,ZKZKZ,13,1,706,Correct,6,780
6,FIFRF,171,2,734,Correct,6,860
6,VZVLV,16,2,938,Correct,6,759
6,RPRVR,162,2,747,Correct,6,929
6,YBYBY,8,[1][3],[968][1144],Correct,6,772
6,PYPVP,14,2,649,Correct,6,885
6,NININ,192,1,653,Correct,6,675
6,RNRNR,15,1,972,Correct,6,812
6,NXNVN,161,2,764,Correct,6,897
6,RNRNR,151,1,808,Correct,6,773
6,FRFVF,161,2,990,Correct,6,907
6,YVYFB,235,2,1147,Incorrect,6,948
6,ZRZXZ,222,2,716,Correct,6,698
6,VNVIV,193,2,899,Incorrect,6,919
6,PXPNP,16,2,696,Correct,6,787
6,ZXZPZ,162,2,772,Correct,6,863
6,VBVBV,9,[1][3],[759][919],Correct,6,714
6,CXCXC,13,1,883,Correct,6,729
6,PCPFP,161,2,917,Correct,6,929
6,KNKNK,151,1,937,Correct,6,858
6,XIXIX,194,1,831,Correct,6,706
6,CYCYC,15,1,658,Correct,6,923
6,FVFYF,161,2,1092,Correct,6,724
6,YNYRY,162,2,1161,Correct,6,658
6,BVPXP,231,2,1076,Correct,6,806
6,NXNXN,113,1,851,Correct,6,777
6,FRFRF,152,1,778,Correct,6,845
6,YVYVY,153,1,837,Correct,6,744
6,ZKZCZ,161,2,912,Correct,6,716
6,VIVXV,175,2,806,Correct,6,756
6,PRBRP,223,2,1037,Incorrect,6,869
6,YZYBY,102,[2][3],[1034][1194],Correct,6,747
6,CXCVC,14,2,798,Correct,6,917
6,FYFYF,151,1,850,Correct,6,918
6,VKVXV,161,2,740,Correct,6,907
6,ZBZBZ,11,[1][3],[721][897],Correct,6,939
6,FPFNF,14,2,662,Correct,6,878
6,CXCXC,151,1,611,Correct,6,901
6,YCYCY,152,1,645,Correct,6,811
6,FPFPF,153,1,697,Correct,6,717
6,CVCVB,225,1,1064,Correct,6,698
6,ZCZCZ,113,1,1054,Correct,6,673
6,CZCNC,161,2,845,Correct,6,852
6,KIKFK,176,2,1124,Correct,6,802
6,PXPXP,15,1,949,Correct,6,715
6,RYRYR,152,1,603,Correct,6,760
6,ZRZCZ,161,2,783,Correct,6,680
6,RVRVR,151,1,776,Correct,6,798
6,XYXNX,161,2,1076,Correct,6,722
6,BVKVK,221,1,833,Correct,6,843
6,CBCBC,12,[1][3],[793][921],Correct,6,851
7,W,5,3,2390,New Target,7,866
7,RKRKR,151,1,1095,Correct,7,808
7,CVCRC,161,2,929,Correct,7,914
7,PKPKP,151,1,1127,Correct,7,845
7,FPFPF,152,1,662,Correct,7,708
7,VRVPV,161,2,874,Correct,7,713
7,ZKZYZ,162,2,963,Correct,7,723
7,PVPCP,233,2,785,Correct,7,919
7,KVKVK,113,1,826,Correct,7,819
7,YXYVY,161,2,802,Correct,7,795
7,FNFNF,151,2,667,Incorrect,7,888
7,YWYWY,7,[1][3],[905][1001],Correct,7,888
7,ZYZYZ,13,1,1045,Correct,7,662
7,PYPYP,152,1,741,Correct,7,759
7,XRXRX,153,1,749,Correct,7,914
7,PXPXP,154,1,718,Correct,7,667
7,FCFBF,181,2,768,Correct,7,697
7,FVFVF,15,1,840,Correct,7,826
7,CYCZC,161,2,946,Correct,7,736
7,XZXVX,162,2,720,Correct,7,913
7,PFPFP,151,1,703,Correct,7,737
7,RVRLR,161,2,860,Correct,7,804
7,ZBZBZ,192,1,647,Correct,7,726
7,VCVNV,16,2,736,Correct,7,946
7,NWNWN,8,[1][3],[800][1008],Correct,7,673
7,XNXVX,14,2,914,Correct,7,688
7,CXCNC,162,2,1094,Correct,7,818
7,YVYVW,225,,,Incorrect,7,789
7,VFVFV,113,1,733,Correct,7,843
7,VFWFV,223,,,Incorrect,7,843
7,CVCFC,222,2,741,Correct,7,684
7,YBYBY,193,1,831,Correct,7,833
7,PYPYP,15,1,658,Correct,7,931
7,NKNWN,91,[2][27],[1145][1385],Incorrect,7,791
7,VNVNV,13,1,936,Correct,7,894
7,RVRVR,152,1,763,Correct,7,867
7,FVFBF,184,2,1260,Incorrect,7,675
7,VZVKV,16,2,943,Correct,7,879
7,VPVCV,162,2,700,Correct,7,931
7,WYZCZ,231,2,652,Correct,7,779
7,PFPFP,113,1,718,Correct,7,745
7,PRPRP,152,1,742,Correct,7,910
7,NWNWN,10,[1][3],[829][924],Correct,7,745
7,VKVCV,14,2,721,Correct,7,811
7,WPYPY,221,1,750,Correct,7,800
7,VBVBV,195,1,694,Correct,7,883
7,ZKZYZ,16,2,775,Correct,7,780
7,XYXYX,151,1,855,Correct,7,675
7,FZFXF,161,2,1236,Correct,7,709
7,XKXKX,151,1,800,Correct,7,738
7,XPXPX,152,1,618,Correct,7,733
7,FWFWF,11,[1][3],[917][1045],Correct,7,928
7,FNFBF,186,2,732,Correct,7,881
7,ZVZYZ,16,2,985,Correct,7,754
7,FZFZF,151,1,957,Correct,7,720
7,NPNFW,235,2,1022,Correct,7,869
7,PCPCP,113,1,1294,Correct,7,837
7,NKNWN,122,[2][3],[977][1153],Correct,7,729
8,M,5,3,2599,New Target,8,658
8,VYVNV,161,2,1041,Correct,8,942
8,KLKNK,162,2,1014,Correct,8,671
8,NRNRN,151,1,874,Correct,8,712
8,VNVFV,161,2,1104,Correct,8,827
8,XNXNM,225,1,919,Correct,8,949
8,CXCVC,222,2,779,Correct,8,844
8,KRKZK,162,2,658,Correct,8,933
8,NMNFN,71,[2][3],[988][1148],Correct,8,893
8,ZFZFZ,13,1,882,Correct,8,846
8,YPYCY,161,2,597,Correct,8,868
8,KCKCK,151,1,825,Correct,8,733
8,VNVNV,152,1,1013,Correct,8,719
8,LXLXL,153,1,816,Correct,8,944
8,CLCLC,154,1,892,Correct,8,758
8,NYNYN,155,1,803,Correct,8,783
8,LCMYL,233,2,862,Correct,8,760
8,NCNCN,113,1,744,Correct,8,706
8,ZVZRZ,161,2,820,Correct,8,870
8,ZVZVZ,151,1,688,Correct,8,652
8,PZPVP,161,2,779,Correct,8,807
8,PWPNP,171,2,1251,Correct,8,893
8,KLKCM,235,2,1321,Correct,8,845
8,XMXMX,8,[1][3],[843][987],Correct,8,679
8,PRPXP,14,2,781,Correct,8,862
8,CVCYC,162,2,1084,Correct,8,675
8,PXPMP,92,[2][3],[993][1201],Correct,8,795
8,ZCZLZ,14,2,815,Correct,8,721
8,XWXWX,192,1,1560,Correct,8,806
8,ZCZLZ,16,2,754,Correct,8,881
8,MNCYC,231,2,960,Correct,8,736
8,ZXZXZ,113,1,930,Correct,8,880
8,YRYNY,161,2,745,Correct,8,708
8,ZLZPZ,162,2,856,Correct,8,753
8,VZVZV,151,1,767,Correct,8,744
8,MXPXP,221,1,996,Correct,8,898
8,VWVWV,193,1,891,Correct,8,661
8,PYPYP,16,1,687,Incorrect,8,855
8,XPXVX,162,2,1335,Correct,8,906
8,XLXLX,151,1,713,Correct,8,832
8,YMYMY,10,[1][3],[976][1136],Correct,8,696
8,VYVYV,13,1,690,Correct,8,771
8,PWPZP,174,2,1106,Correct,8,705
8,PYPKP,16,2,822,Correct,8,651
8,NPNXN,162,2,962,Correct,8,695
8,KVKVK,223,1,810,Correct,8,664
8,NVNFN,222,2,1041,Correct,8,809
8,XNXNX,151,1,883,Correct,8,727
8,YZYMY,112,[2][3],[1040][1216],Correct,8,907
8,PFPFP,13,1,1114,Correct,8,771
8,ZWZWZ,195,1,743,Correct,8,817
8,PCPZP,16,2,656,Correct,8,877
8,LRLPL,162,1,613,Incorrect,8,658
8,CZCZC,151,1,760,Correct,8,752
8,NZNZN,152,1,685,Correct,8,912
8,CVCXC,161,2,681,Correct,8,879
8,XCXCX,151,1,650,Correct,8,749
8,YWYWY,196,1,1039,Correct,8,689
8,NLNLN,15,1,813,Correct,8,832
8,VNVNV,152,1,679,Correct,8,743
8,ZMZMZ,12,[1][3],[1110][1302],Correct,8,883
9,S,5,3,1743,New Target,9,921
9,NZNZN,151,1,1105,Correct,9,863
9,KVKZK,161,2,813,Correct,9,858
9,LZLZL,151,1,728,Correct,9,775
9,XLXLX,152,1,595,Correct,9,863
9,ZXZXZ,153,1,743,Correct,9,769
9,KNKZK,161,2,744,Correct,9,662
9,NRNYN,162,2,1301,Correct,9,803
9,CLCVC,163,2,831,Correct,9,688
9,ZCZFZ,164,2,587,Correct,9,655
9,NSNSN,7,[1][3],[767][959],Correct,9,690
9,VZVZV,13,1,943,Correct,9,777
9,NVNCN,161,2,766,Correct,9,896
9,VMVMV,191,1,935,Correct,9,833
9,CVCXC,16,2,1117,Correct,9,763
9,ZYZRZ,162,2,762,Correct,9,761
9,XNXZX,163,2,741,Correct,9,776
9,PXPXP,151,1,672,Correct,9,846
9,VCVSV,82,[2][3],[944][1120],Correct,9,829
9,PRPCP,14,2,848,Correct,9,918
9,ZMZMZ,192,1,1365,Incorrect,9,895
9,ZFZFZ,15,1,937,Correct,9,788
9,FCFCF,152,1,616,Correct,9,915
9,YLYZY,161,2,814,Correct,9,656
9,KNKVK,162,2,841,Correct,9,682
9,SFPCP,231,2,669,Correct,9,927
9,RPRPR,113,1,1174,Correct,9,903
9,XMXMX,193,1,708,Correct,9,691
9,KFKFK,15,1,690,Correct,9,788
9,VSVSV,9,[1][3],[700][892],Correct,9,658
9,YVSVY,223,1,822,Correct,9,707
9,VPVPV,113,1,639,Correct,9,794
9,XZXZX,152,1,624,Correct,9,720
9,KZKXK,161,2,846,Correct,9,836
9,RFRPR,162,2,1137,Correct,9,915
9,NVNVS,225,1,812,Correct,9,840
9,ZXZXZ,113,1,748,Correct,9,662
9,SRVRV,221,1,1433,Correct,9,702
9,YCYCY,113,1,762,Correct,9,843
9,KMKZK,174,2,917,Correct,9,844
9,FZSVF,233,2,1054,Correct,9,679
9,VYVYV,113,1,911,Correct,9,717
9,LVLVL,152,1,737,Correct,9,902
9,YFYFY,153,1,698,Correct,9,947
9,NXNSN,102,[2][3],[1106][1282],Correct,9,753
9,FNFCF,14,2,811,Correct,9,804
9,KVKVK,151,1,777,Correct,9,697
9,VZVCV,161,2,886,Correct,9,695
9,ZYZMZ,185,2,1344,Correct,9,690
9,VXVZV,16,2,990,Correct,9,946
9,VPVPV,151,1,831,Correct,9,809
9,RVRNS,235,2,873,Correct,9,763
9,YZYZY,113,1,700,Correct,9,906
9,ZSZSZ,11,[1][3],[784][960],Correct,9,696
9,FRFRF,13,1,679,Correct,9,766
9,ZMZMZ,196,1,833,Correct,9,938
9,NZNXN,16,2,1159,Correct,9,847
9,LSLFL,121,[2][3],[994][1202],Correct,9,671
10,Q,5,3,1739,New Target,10,688
10,ZVZPZ,161,2,1198,Correct,10,743
10,RZRZR,151,1,794,Correct,10,789
10,ZFZFZ,152,1,697,Correct,10,674
10,RZRZR,153,1,662,Correct,10,824
10,PZPXP,161,2,875,Correct,10,678
10,VFQPV,233,2,1280,Correct,10,815
10,ZPZRZ,222,2,1020,Correct,10,706
10,CYCVC,162,2,752,Correct,10,750
10,CPCPC,151,1,668,Correct,10,757
10,YZYQY,72,[2][3],[1081][1273],Correct,10,767
10,FVFXF,14,2,683,Correct,10,870
10,YNYNQ,225,1,1064,Correct,10,775
10,ZYZYZ,113,1,616,Correct,10,752
10,FRFSF,181,2,667,Incorrect,10,722
10,XNXPX,16,2,675,Correct,10,903
10,NXNXN,151,1,671,Correct,10,927
10,PVPZP,161,2,680,Correct,10,917
10,XVXPX,162,2,684,Correct,10,660
10,FXFVF,163,2,859,Correct,10,781
10,NSNKN,172,2,737,Incorrect,10,796
10,VXVNV,16,2,926,Correct,10,737
10,XZXZX,151,1,547,Correct,10,763
10,VQVQV,8,[1][3],[765][893],Correct,10,868
10,ZYZPZ,14,2,834,Correct,10,768
10,PZPSP,183,2,1301,Correct,10,910
10,YVYVY,15,1,890,Correct,10,855
10,NCNQN,92,[2][3],[975][1183],Correct,10,842
10,FCFVF,14,2,1501,Correct,10,916
10,ZFZFZ,151,1,703,Correct,10,692
10,NSNSN,194,1,777,Correct,10,907
10,YPYFY,16,2,870,Correct,10,760
10,ZKZKZ,151,1,657,Correct,10,665
10,QZRCR,231,2,1279,Correct,10,856
10,YPYVY,222,2,788,Correct,10,830
10,ZNZNZ,151,1,767,Correct,10,797
10,VQVQV,10,[1][3],[828][1036],Correct,10,708
10,RVRZR,14,2,695,Correct,10,813
10,KRKSK,185,2,739,Correct,10,877
10,NPNPN,15,1,707,Correct,10,711
10,YPYPY,152,1,1046,Correct,10,688
10,VCVYV,161,2,737,Correct,10,941
10,FPFNF,162,2,890,Correct,10,835
10,QVXVX,221,1,833,Correct,10,822
10,ZVZRZ,222,2,1059,Correct,10,938
10,LFLFL,151,1,616,Correct,10,692
10,VLVLV,152,1,618,Correct,10,769
10,KXQXK,223,1,751,Correct,10,675
10,YQYQY,11,[1][3],[678][1014],Correct,10,937
10,YCYCY,13,1,724,Correct,10,738
10,PZPYP,161,2,1156,Correct,10,736
10,LPLFL,162,2,913,Correct,10,772
10,VSVSV,196,1,1018,Correct,10,705
10,VFVYQ,235,2,1051,Correct,10,812
10,CZCXC,222,2,837,Correct,10,915
10,PVPCP,162,2,1021,Correct,10,780
10,CXCXC,151,1,878,Correct,10,846
10,NZNZN,152,1,740,Correct,10,847
10,YPYCY,161,2,741,Correct,10,703
10,ZQZQZ,12,[1][3],[1013][1189],Correct,10,785
11,T,5,3,1827,New Target,11,805
11,KFKFK,151,1,718,Correct,11,879
11,LZLZL,152,1,764,Correct,11,787
11,PFPVP,161,2,754,Correct,11,893
11,FRFPF,162,2,877,Correct,11,747
11,FZFZF,151,1,692,Correct,11,765
11,VTVTV,7,[1][3],[712][888],Correct,11,758
11,KYKCK,14,2,679,Correct,11,685
11,VPVPV,151,1,634,Correct,11,717
11,XQXQX,191,1,1333,Correct,11,900
11,PZPYP,16,2,692,Correct,11,946
11,KXKLK,162,2,705,Correct,11,789
11,TCNCN,221,1,681,Correct,11,905
11,PZPNP,222,2,930,Correct,11,942
11,RCRPR,162,2,675,Correct,11,919
11,PZPRT,235,2,1154,Correct,11,805
11,XFXVX,222,2,664,Correct,11,927
11,LTLVL,81,[2],[926],Incorrect,11,912
11,ZCZPZ,14,2,1062,Correct,11,853
11,NCNQN,182,2,640,Correct,11,925
11,XZXNX,16,2,1012,Correct,11,658
11,ZPZPZ,151,1,873,Correct,11,762
11,CFCFC,152,1,801,Correct,11,709
11,VXTRV,233,2,654,Correct,11,666
11,CFCVC,222,2,640,Correct,11,741
11,PYPYP,151,1,613,Correct,11,668
11,FQFYF,173,2,626,Correct,11,855
11,CNCFC,16,2,599,Correct,11,720
11,PTPTP,9,[1][3],[649][857],Correct,11,681
11,ZCZCZ,13,1,662,Correct,11,947
11,KZKZK,152,1,805,Correct,11,800
11,RLRVR,161,2,639,Correct,11,807
11,ZRZKZ,162,2,834,Correct,11,707
11,KLKLT,225,1,937,Correct,11,837
11,ZQZQZ,194,1,802,Correct,11,678
11,VZVZV,15,1,741,Correct,11,921
11,RVRZR,161,2,767,Correct,11,854
11,ZPZCZ,162,2,728,Correct,11,806
11,VYVYV,151,1,665,Correct,11,706
11,RVRVR,152,1,964,Correct,11,895
11,PTPTP,10,[1][3],[842][1066],Correct,11,931
11,PXPXP,13,1,683,Correct,11,821
11,KCKCK,152,1,1267,Correct,11,888
11,YVYVY,153,1,620,Correct,11,802
11,CYCYC,154,1,618,Correct,11,862
11,XCXCX,155,1,522,Correct,11,811
11,CYCQC,185,2,685,Correct,11,851
11,KCKNK,16,2,681,Correct,11,785
11,VPVPV,151,1,570,Correct,11,688
11,TXFZF,231,2,653,Correct,11,812
11,NYNVN,222,2,1025,Correct,11,712
11,VQVXV,176,2,771,Correct,11,786
11,ZRZRZ,15,1,706,Correct,11,700
11,VTVZV,111,[2][3],[1043][1283],Correct,11,946
11,PXPVP,14,2,694,Correct,11,913
11,FVFVF,151,1,917,Correct,11,794
11,VRVLV,161,2,1284,Correct,11,894
11,YCYCY,151,1,703,Correct,11,718
11,XZTZX,223,1,937,Correct,11,861
11,VTVTV,12,[1][3],[762][1018],Correct,11,744
12,O,5,3,1821,New Target,12,811
12,VXVLV,161,2,894,Correct,12,944
12,KVKCK,162,2,695,Correct,12,658
12,VLVLV,151,1,1000,Correct,12,702
12,ZCZVZ,161,2,710,Correct,12,931
12,KFKFK,151,1,658,Correct,12,787
12,XKXKX,152,1,675,Correct,12,752
12,YXYXY,153,1,565,Correct,12,743
12,FVFVF,154,1,633,Correct,12,775
12,PVPOP,72,[2][3],[754][930],Correct,12,921
12,ZXZYZ,14,2,860,Correct,12,854
12,PXPVP,162,2,1038,Correct,12,931
12,ZTZTZ,191,1,1182,Correct,12,767
12,CVCKC,16,2,680,Correct,12,751
12,CKCKC,151,1,645,Correct,12,819
12,NPNPN,152,1,695,Correct,12,716
12,ZRZNZ,161,2,851,Correct,12,865
12,OZCZC,221,1,613,Correct,12,950
12,LFLFL,113,1,633,Correct,12,716
12,CXCXC,152,1,728,Correct,12,793
12,KPKPK,153,1,521,Correct,12,676
12,FRFKF,161,2,714,Correct,12,836
12,FOFOF,8,[1][3],[708][852],Correct,12,711
12,ZFZFZ,13,1,607,Correct,12,728
12,LKLZO,235,2,691,Correct,12,683
12,KLKZK,222,2,864,Correct,12,832
12,YXYCY,162,2,835,Correct,12,877
12,LOLOL,9,[1][3],[1241][1497],Correct,12,713
12,XLXLX,13,1,770,Correct,12,889
12,XVXVX,152,1,735,Correct,12,763
12,FTFTF,192,1,600,Correct,12,808
12,OXNZN,231,2,771,Correct,12,947
12,CZCZC,113,1,601,Correct,12,891
12,LZLZL,152,2,1036,Incorrect,12,768
12,VLVPV,161,2,749,Correct,12,817
12,VYVYO,225,1,636,Correct,12,686
12,XKXKX,113,1,620,Correct,12,749
12,RTRTR,193,1,544,Correct,12,694
12,KVKCK,16,2,766,Correct,12,948
12,ROROR,101,[1][3],[683][875],Correct,12,737
12,PRPRP,13,1,785,Correct,12,677
12,LYLVL,161,2,1255,Correct,12,919
12,PLPLP,151,1,781,Correct,12,898
12,CTCTC,194,1,844,Correct,12,671
12,XZXYX,16,2,827,Correct,12,946
12,NKNKN,151,1,943,Correct,12,941
12,VLVZV,161,2,755,Correct,12,811
12,YOYOY,11,[1][3],[700][1020],Correct,12,717
12,PZOZP,223,1,715,Correct,12,748
12,FYFYF,113,1,570,Correct,12,756
12,ZXZVZ,161,2,829,Correct,12,783
12,VKVZV,162,2,851,Correct,12,883
12,ZTZTZ,195,1,732,Correct,12,761
12,LKLZL,16,2,867,Correct,12,875
12,KCKVK,162,2,668,Correct,12,769
12,PXPKP,163,2,664,Correct,12,825
12,KCOZK,233,2,1109,Correct,12,804
12,FKFKF,113,1,1060,Correct,12,728
12,CTCRC,176,2,850,Correct,12,865
12,NXNXN,15,2,764,Incorrect,12,682
12,KXKVK,161,2,981,Correct,12,871
12,CPCOC,122,[2][3],[1081][1273],Correct,12,853
13,H,5,3,1577,New Target,13,676
13,VFVNV,151,2,650,Incorrect,13,726
13,YVYVY,152,1,685,Correct,13,659
13,XVXVX,153,1,856,Correct,13,875
13,NRNXN,161,2,683,Correct,13,907
13,PZPKP,162,2,731,Correct,13,699
13,HLVLV,221,1,1211,Correct,13,664
13,CXCZC,222,2,793,Correct,13,692
13,LHLYL,71,[2][3],[782][957],Correct,13,783
13,YKYFY,14,2,858,Correct,13,884
13,YOYRY,171,2,703,Correct,13,849
13,ZKZYZ,16,2,730,Correct,13,838
13,RZRZR,151,1,745,Correct,13,756
13,NFNYN,161,2,741,Correct,13,760
13,KVKFK,162,2,579,Correct,13,758
13,XFXYX,163,2,642,Correct,13,921
13,LKLVL,164,2,696,Correct,13,677
13,NLNLN,151,2,626,Incorrect,13,881
13,XCXOX,182,2,869,Correct,13,752
13,FXFXF,15,1,603,Correct,13,808
13,VHVHV,8,[1][3],[782][974],Correct,13,931
13,PVPVP,13,1,773,Correct,13,726
13,CRCXC,161,2,877,Correct,13,929
13,NXNXN,151,1,729,Correct,13,652
13,XRXRX,152,1,641,Correct,13,930
13,YFYXY,161,2,1214,Correct,13,880
13,ZOZOZ,193,1,709,Correct,13,854
13,RZRZR,15,1,694,Correct,13,690
13,FKFKF,152,1,642,Correct,13,823
13,PFPFP,153,1,516,Correct,13,677
13,XYXHX,92,[2][3],[828][1020],Correct,13,726
13,RZRKR,14,2,815,Correct,13,922
13,FLFLH,225,1,823,Correct,13,804
13,KRKRK,113,1,619,Correct,13,900
13,ZVZNZ,161,2,653,Correct,13,772
13,ZOZOZ,194,1,733,Correct,13,750
13,FZFZF,15,1,602,Correct,13,790
13,FHFKF,101,[2][3],[748][972],Correct,13,753
13,ZXHLZ,233,2,1284,Correct,13,814
13,FKFXF,222,2,952,Correct,13,908
13,CFCYC,162,2,779,Correct,13,770
13,ZXZVZ,163,2,969,Correct,13,666
13,KCKOK,185,2,722,Correct,13,659
13,ZXZVH,235,2,1039,Correct,13,813
13,CKCKC,113,1,922,Correct,13,853
13,ZXZCZ,161,2,778,Correct,13,939
13,YVYVY,151,1,761,Correct,13,670
13,RVHVR,223,1,833,Correct,13,876
13,ZRZRZ,113,1,558,Correct,13,677
13,ZHZHZ,11,[1][3],[658][898],Correct,13,837
13,VZVZV,13,1,651,Correct,13,888
13,HZVRV,231,2,887,Correct,13,882
13,FVFVF,113,,,Incorrect,13,910
13,RNRCR,161,2,743,Correct,13,674
13,COCOC,196,1,833,Correct,13,913
13,VNVXV,16,2,700,Correct,13,674
13,XHXHX,12,[1][3],[783][959],Correct,13,677
14,G,5,3,2012,New Target,14,716
14,FZFZF,151,1,717,Correct,14,651
14,RPRVR,161,2,677,Correct,14,950
14,XCXCX,151,1,887,Correct,14,760
14,YXYXY,152,1,609,Correct,14,679
14,KZKZK,153,1,527,Correct,14,892
14,RYRKR,161,2,895,Correct,14,905
14,FYFNF,162,2,759,Correct,14,717
14,VKVKV,151,1,766,Correct,14,921
14,KPGPK,223,1,1243,Correct,14,716
14,YNYNY,113,1,623,Correct,14,936
14,VYVYV,152,1,580,Correct,14,717
14,YCYXY,161,2,663,Correct,14,755
14,LKLGL,72,[2][3],[1056][1216],Correct,14,879
14,VXVXV,13,1,645,Correct,14,808
14,KCKVK,161,2,710,Correct,14,783
14,YKYKY,151,1,742,Correct,14,731
14,RHRXR,171,2,803,Correct,14,816
14,FVFCF,16,2,681,Correct,14,896
14,YXYGY,82,[2][3],[804][996],Correct,14,658
14,CLCLC,13,1,715,Correct,14,758
14,ZXZCZ,161,2,773,Correct,14,925
14,VLVFV,162,2,771,Correct,14,757
14,CPCPG,225,1,834,Correct,14,675
14,KHKNK,172,2,980,Correct,14,938
14,ZKZVZ,16,2,1450,Correct,14,712
14,YKYLY,162,2,1244,Correct,14,722
14,CNCNC,151,1,898,Correct,14,894
14,PGPGP,9,[1][3],[668][860],Correct,14,760
14,VPVPV,13,2,889,Incorrect,14,752
14,FXGRF,233,2,928,Correct,14,730
14,CYCVC,222,2,808,Correct,14,677
14,FNFNF,151,1,583,Correct,14,712
14,KFKCK,161,2,806,Correct,14,834
14,ZFZHZ,183,2,720,Correct,14,785
14,NXNXN,15,1,713,Correct,14,848
14,FNFNF,152,1,640,Correct,14,930
14,LXLNG,235,2,885,Correct,14,677
14,XKXVX,222,2,877,Correct,14,772
14,ZHZHZ,194,1,744,Correct,14,689
14,PFPFP,15,1,655,Correct,14,872
14,ZYZYZ,152,1,666,Correct,14,868
14,XPXVX,161,2,731,Correct,14,779
14,YCYCY,151,1,569,Correct,14,674
14,RGRGR,10,[1][3],[770][962],Correct,14,884
14,VRVRV,13,1,693,Correct,14,732
14,PKPNP,161,2,721,Correct,14,816
14,XGXGX,11,[1][3],[705][929],Correct,14,772
14,GZYVY,231,2,736,Correct,14,704
14,VCVNV,222,2,748,Correct,14,802
14,VHVHV,195,1,743,Correct,14,779
14,LXLNL,16,2,665,Correct,14,722
14,GKPKP,221,2,741,Incorrect,14,872
14,XRXPX,222,2,946,Correct,14,693
14,XNXNX,151,1,740,Correct,14,822
14,KHKNK,176,2,675,Incorrect,14,750
14,RZRZR,15,1,645,Correct,14,687
14,CGCFC,121,[2][3],[1193][1369],Correct,14,724
15,A,5,3,7314,New Target,15,655
15,XRXFX,161,2,604,Correct,15,740
15,RXRKR,162,2,797,Correct,15,863
15,YRYRY,151,1,600,Correct,15,739
15,XPXPX,152,1,654,Correct,15,653
15,RPRPR,153,1,858,Correct,15,896
15,NCNCN,154,1,623,Correct,15,837
15,RXRZR,161,2,723,Correct,15,726
15,NANAN,7,[1][3],[636][1068],Correct,15,918
15,KCKYK,14,2,663,Correct,15,751
15,XKXFX,162,2,693,Correct,15,868
15,ZLZKZ,163,2,583,Correct,15,677
15,VCVZV,164,2,652,Correct,15,708
15,XCXVX,165,2,568,Correct,15,899
15,LKLZA,235,2,732,Correct,15,756
15,NCNCN,113,1,743,Correct,15,817
15,YGYGY,191,1,950,Correct,15,715
15,VLVLV,15,1,656,Correct,15,679
15,XRXRX,152,1,608,Correct,15,755
15,KAKPK,81,[2][3],[1061][1205],Correct,15,759
15,YZAZY,233,1,576,Incorrect,15,931
15,CFCFC,113,1,535,Correct,15,681
15,VNVLV,161,2,572,Correct,15,799
15,KPKVK,162,2,589,Correct,15,798
15,NCNRN,163,2,693,Correct,15,657
15,FGFGF,192,1,649,Correct,15,656
15,RCRYR,16,2,503,Correct,15,829
15,KRKCK,162,2,531,Correct,15,658
15,CRCRC,151,1,777,Correct,15,715
15,XPAPX,223,1,531,Correct,15,810
15,LPLXL,222,2,805,Correct,15,894
15,CGCVC,173,2,750,Correct,15,837
15,FKFZF,16,2,695,Correct,15,766
15,CACAC,9,[1][3],[601][777],Correct,15,868
15,XCXCX,13,1,600,Correct,15,673
15,AXRXR,221,1,1003,Correct,15,744
15,NKNRN,222,2,811,Correct,15,842
15,KNKFK,162,2,624,Correct,15,895
15,KAKAK,10,[1][3],[690][898],Correct,15,836
15,ZCZRZ,14,2,799,Correct,15,786
15,RPRPR,151,1,668,Correct,15,715
15,NCNCN,152,1,1071,Correct,15,710
15,RYRGR,184,2,909,Correct,15,804
15,VPVPV,15,1,739,Correct,15,757
15,RCRCA,225,1,647,Correct,15,663
15,KXKPK,222,2,680,Correct,15,705
15,NPNPN,151,1,457,Correct,15,687
15,YCYCY,152,1,661,Correct,15,709
15,PXPAP,112,[2][3],[844][1020],Correct,15,662
15,ZCZNZ,14,2,693,Correct,15,740
15,KYKGK,185,2,646,Correct,15,701
15,ANLPL,231,2,1013,Correct,15,819
15,CXCPC,222,2,903,Correct,15,795
15,YRYRY,151,1,688,Correct,15,679
15,LGLGL,196,1,724,Correct,15,690
15,VYVLV,16,2,797,Correct,15,879
15,KVKVK,151,1,717,Correct,15,656
15,RKRKR,152,1,770,Correct,15,941
15,VXVXV,153,1,590,Correct,15,761
15,XAXAX,12,[1][3],[688][976],Correct,15,756
