Trial No,Stimulus,Trigger,Response,Response Time(ms),Correct,Block,Fixation Duration
Practice
OT Practice
1,SKSKS,15,,,False,0,865
1,DLDUD,16,2,1387,Correct,0,790
1,PDPGP,16,1,651,False,0,733
1,MWMWM,15,1,1426,Correct,0,921
1,FTFTF,15,1,799,Correct,0,815
1,AXAMA,16,2,1088,Correct,0,883
1,RYRGR,16,2,982,Correct,0,893
1,DODOD,15,1,617,Correct,0,707
1,QTQAQ,16,2,802,Correct,0,860
1,YEYEY,15,1,597,Correct,0,853
2,GYGDG,16,2,752,Correct,0,652
2,SWSWS,15,1,723,Correct,0,938
2,HLHUH,16,2,716,Correct,0,736
2,DEDED,15,1,484,Correct,0,821
2,ZPZOZ,16,2,643,Correct,0,895
2,ATATA,15,1,830,Correct,0,875
2,QOQOQ,15,1,868,Correct,0,863
2,FPFGF,16,2,819,Correct,0,787
2,TRTET,16,2,854,Correct,0,871
2,DQDQD,15,1,617,Correct,0,832
AT Practice
1,TKTKT,15,2,803,False,0,723
1,SLSUS,16,2,1156,Correct,0,852
1,VZVGV,7,3,1272,Correct,0,944
1,XWXZX,7,2,905,False,0,914
1,ATATA,15,1,1483,Correct,0,796
1,HXZMH,16,2,658,Correct,0,873
1,TZTZT,7,3,506,Correct,0,857
1,UOUOU,15,1,831,Correct,0,728
1,ZTWAW,16,2,1336,Correct,0,657
1,RZRER,7,3,676,Correct,0,939
2,JYJDJ,16,2,740,Correct,0,738
2,DWDWD,15,1,530,Correct,0,663
2,GNGNG,7,3,813,Correct,0,910
2,NEZEZ,16,1,1029,Correct,0,719
2,RNROR,7,2,918,False,0,679
2,QTQNQ,7,3,1015,Correct,0,818
2,HOHON,15,1,763,Correct,0,652
2,KPKGK,16,3,1136,False,0,910
2,DRDED,16,,,False,0,766
2,LNLNL,7,3,870,Correct,0,746
4,GLGLG,15,1,960,Correct,0,846
4,DTDID,16,3,673,False,0,689
4,SMSGS,16,2,1226,Correct,0,923
4,ZFZYZ,7,3,541,Correct,0,814
4,TSTFT,7,3,832,Correct,0,711
4,OFOFO,7,3,571,Correct,0,653
4,WYFGW,16,2,873,Correct,0,860
4,WYWYW,15,2,878,False,0,718
4,MFMCM,7,3,982,Correct,0,709
4,HQHEH,16,2,753,Correct,0,903
Trials
1,D,5,3,1259,New Target,1,847
1,BNBYB,161,2,958,Correct,1,852
1,FBFBF,151,1,1070,Correct,1,944
1,RKRKR,152,1,846,Correct,1,753
1,QSQNQ,161,2,699,Correct,1,668
1,CTCFC,162,3,841,Incorrect,1,776
1,PDPDP,7,3,1009,Correct,1,850
1,OPOFO,14,2,722,Correct,1,791
1,HLHNH,162,2,890,Correct,1,919
1,MFMFM,151,2,838,Incorrect,1,661
1,BTBTB,152,1,685,Correct,1,842
1,MCMPD,235,2,593,Correct,1,664
1,BMBFB,222,2,692,Correct,1,762
1,NTNZN,162,2,627,Correct,1,744
1,MXMRM,163,2,729,Correct,1,726
1,APABA,164,2,607,Correct,1,935
1,FMDMF,223,2,635,Incorrect,1,888
1,QPQPQ,113,1,561,Correct,1,669
1,VQVMV,161,2,648,Correct,1,680
1,RERPR,162,2,582,Correct,1,814
1,KVKVK,151,1,634,Correct,1,707
1,AKAHA,161,2,812,Correct,1,797
1,VDVDV,8,1,490,Incorrect,1,690
1,DUGUG,221,1,637,Correct,1,862
1,AFAFA,113,1,624,Correct,1,711
1,GYGYG,152,1,529,Correct,1,770
1,VXVSV,161,2,564,Correct,1,842
1,DOWGW,231,2,889,Correct,1,689
1,QYQYQ,113,1,531,Correct,1,759
1,ODONO,91,3,618,Correct,1,721
1,MSMSM,13,1,631,Correct,1,866
1,GYGYG,152,1,545,Correct,1,914
1,UMUMU,153,1,479,Correct,1,904
1,BZBZB,154,1,520,Correct,1,721
1,NTNBN,161,2,665,Correct,1,885
1,GNDYG,233,2,648,Correct,1,770
1,OCOSO,222,2,753,Correct,1,916
1,BHBFB,162,2,753,Correct,1,692
1,QCQBQ,163,2,670,Correct,1,707
1,LQLQL,151,1,813,Correct,1,771
1,ZDZDZ,10,3,645,Correct,1,788
1,QNQZQ,14,2,692,Correct,1,854
1,CSCYC,162,2,636,Correct,1,913
1,RCRLR,163,2,697,Correct,1,904
1,FRFRF,151,1,747,Correct,1,655
1,WFWFW,152,1,537,Correct,1,693
1,QOQLQ,161,2,602,Correct,1,832
1,AWAQA,162,2,566,Correct,1,940
1,EAEAE,151,1,589,Correct,1,680
1,AGAUA,161,2,558,Correct,1,792
1,YMYMY,151,1,445,Correct,1,846
1,XQXQX,152,1,502,Correct,1,839
1,SHSGS,161,2,584,Correct,1,852
1,PDPDP,11,1,505,Incorrect,1,843
1,ZGZGZ,13,1,608,Correct,1,732
1,OXOXO,152,1,513,Correct,1,788
1,LYLYL,153,1,553,Correct,1,651
1,NKNKD,225,1,742,Correct,1,937
1,GNGNG,113,3,705,Incorrect,1,837
1,OYOBO,161,2,701,Correct,1,798
1,SOSOS,151,1,594,Correct,1,655
1,VHVHV,152,1,582,Correct,1,682
1,OKOXO,161,2,852,Correct,1,909
1,EZEZE,151,1,567,Correct,1,943
1,LDLDL,12,3,726,Correct,1,925
2,U,5,3,1121,New Target,2,878
2,BVBEB,161,2,649,Correct,2,710
2,FBFBF,151,1,523,Correct,2,676
2,RFRFR,152,1,700,Correct,2,904
2,NBNKN,161,2,540,Correct,2,710
2,MKMNM,162,2,716,Correct,2,888
2,QXQXQ,151,1,652,Correct,2,704
2,MQMYM,161,2,655,Correct,2,682
2,TGTPT,162,2,631,Correct,2,940
2,XOXOX,151,1,563,Correct,2,898
2,CUCUC,7,3,764,Correct,2,665
2,RFRFR,13,1,604,Correct,2,653
2,VYVSV,161,2,555,Correct,2,879
2,VDVDV,191,1,511,Correct,2,725
2,GKGQG,15,2,602,Correct,2,668
2,SCSCS,151,1,718,Correct,2,776
2,CTCUC,82,3,758,Correct,2,872
2,RCRCR,13,1,577,Correct,2,815
2,BOBXB,161,2,518,Correct,2,754
2,FMFAF,162,1,727,Incorrect,2,813
2,BEBAB,163,2,767,Correct,2,888
2,PWPWP,151,1,623,Correct,2,662
2,UQCKC,231,2,701,Correct,2,846
2,OCOCO,113,1,669,Correct,2,763
2,TNTNT,152,1,813,Correct,2,752
2,QCQGQ,161,2,778,Correct,2,657
2,WVWVW,151,1,787,Correct,2,834
2,TQTQT,152,1,557,Correct,2,804
2,FOFOF,225,1,583,Correct,2,673
2,WVWFW,222,2,693,Correct,2,889
2,SWSWS,151,1,484,Correct,2,704
2,FYFCF,161,2,650,Correct,2,749
2,SUSWS,91,2,447,Incorrect,2,675
2,CACHC,14,2,618,Correct,2,750
2,VDVKV,172,2,506,Correct,2,802
2,YCYCY,15,1,483,Correct,2,712
2,NMNTN,161,2,523,Correct,2,756
2,XOUKX,233,2,554,Correct,2,923
2,BPBPB,113,2,552,Incorrect,2,893
2,MRMRM,152,1,717,Correct,2,686
2,XMXMX,153,1,827,Correct,2,811
2,AUAHA,101,2,557,Incorrect,2,923
2,XKXEU,235,2,835,Correct,2,727
2,TFTFT,113,1,636,Correct,2,778
2,MDMDM,193,1,1278,Correct,2,768
2,WYWMW,16,2,679,Correct,2,784
2,AZUZA,223,3,1128,Incorrect,2,740
2,KEKHK,222,2,677,Correct,2,828
2,LALAL,151,1,596,Correct,2,786
2,CWCDC,184,2,531,Incorrect,2,882
2,SGSTS,16,2,833,Correct,2,904
2,PXPXP,151,1,637,Correct,2,655
2,GRGYG,161,2,792,Correct,2,883
2,PUPOP,111,3,622,Correct,2,937
2,RNRNR,14,1,940,Correct,2,837
2,KDKDK,195,1,775,Correct,2,652
2,KTKTK,15,1,805,Correct,2,759
2,OROKO,161,1,658,Incorrect,2,705
2,UNANA,221,1,1460,Correct,2,705
2,TATAT,113,1,667,Correct,2,650
2,AWAWA,152,1,789,Incorrect,2,918
2,RDRDR,196,1,720,Correct,2,739
2,FCFCF,15,1,604,Correct,2,795
2,ZMZMZ,152,1,616,Correct,2,916
2,BUBUB,12,3,568,Correct,2,801
3,E,5,3,1253,New Target,3,877
3,YZYZY,151,1,640,Correct,3,735
3,VFVNV,161,2,768,Correct,3,791
3,KAKAK,151,1,636,Correct,3,719
3,TKTKT,152,1,557,Correct,3,814
3,WHWTW,161,2,644,Correct,3,689
3,QEQFQ,71,3,805,Correct,3,814
3,XNXNX,13,1,1406,Correct,3,829
3,TXTXT,152,1,641,Correct,3,811
3,GLGNG,161,2,1060,Correct,3,775
3,CUCTC,171,2,757,Correct,3,667
3,FAFQF,16,2,851,Correct,3,718
3,ZLZLZ,151,1,730,Correct,3,821
3,YZYZY,152,1,550,Correct,3,768
3,CYCYC,153,1,891,Correct,3,776
3,HUHUH,192,1,1202,Correct,3,760
3,OSORO,16,2,993,Correct,3,663
3,YOYOY,151,1,551,Correct,3,662
3,CECEC,8,3,649,Correct,3,800
3,VNENV,223,1,874,Correct,3,781
3,KQKFK,222,2,948,Correct,3,777
3,XLXLE,225,1,792,Correct,3,747
3,QUQUQ,193,1,1262,Correct,3,890
3,SWSLS,16,2,723,Correct,3,879
3,NBNPN,162,2,837,Correct,3,708
3,SGSGS,151,1,698,Correct,3,891
3,FBFBF,152,1,840,Correct,3,757
3,PFPFP,153,1,622,Correct,3,829
3,AGASA,161,2,778,Correct,3,944
3,KEKEK,9,3,872,Correct,3,716
3,CWCOC,14,2,634,Correct,3,916
3,HXHXH,151,1,952,Correct,3,877
3,NUNZN,174,2,680,Correct,3,905
3,QMQVQ,16,2,696,Correct,3,738
3,SQSQS,151,1,584,Correct,3,769
3,ERNFN,231,2,614,Incorrect,3,889
3,AQANA,222,2,480,Correct,3,921
3,OBOEO,102,3,952,Correct,3,782
3,SYSXS,14,2,705,Correct,3,653
3,QBQHQ,162,2,586,Correct,3,860
3,XQXQX,151,1,528,Correct,3,702
3,KUKFK,175,2,974,Correct,3,935
3,RKRKR,15,2,581,Incorrect,3,666
3,GFGFG,152,1,747,Correct,3,696
3,YBYVY,161,2,538,Correct,3,653
3,SPSTS,162,2,640,Correct,3,728
3,AQAQA,151,1,704,Correct,3,747
3,EPVPV,221,2,521,Incorrect,3,887
3,CQCEC,112,2,648,Incorrect,3,907
3,RFRCR,14,2,935,Correct,3,827
3,CPCVC,162,2,960,Correct,3,697
3,RXRCR,163,2,618,Correct,3,660
3,TNTLT,164,2,762,Correct,3,845
3,BSBSB,151,1,676,Correct,3,773
3,ZBZBZ,152,2,1042,Incorrect,3,845
3,OYOUO,186,1,592,Incorrect,3,876
3,AKAOA,16,2,708,Correct,3,776
3,YQEWY,233,3,555,Incorrect,3,914
3,ZMZMZ,113,1,732,Correct,3,853
3,SWSTS,161,2,714,Correct,3,744
3,MFMQE,235,2,643,Correct,3,898
3,RSRLR,222,2,492,Correct,3,938
3,QEQWQ,121,2,495,Incorrect,3,847
4,K,5,3,1471,New Target,4,733
4,CACHC,161,2,688,Correct,4,868
4,RWRCR,162,2,680,Correct,4,918
4,FOFVF,163,2,656,Correct,4,915
4,LGLGL,151,1,732,Correct,4,888
4,PLPLP,152,1,760,Correct,4,839
4,NPNPN,153,1,737,Correct,4,860
4,SGSZS,161,2,640,Correct,4,760
4,DNDMD,162,2,969,Correct,4,917
4,OCOAK,235,2,641,Correct,4,682
4,VYVYV,113,1,626,Correct,4,796
4,RLRLR,152,1,581,Correct,4,727
4,DKDKD,7,3,865,Correct,4,902
4,ZLZLZ,13,1,582,Correct,4,818
4,FZFZF,152,1,599,Correct,4,811
4,CFCFC,153,1,516,Correct,4,900
4,OZOZO,154,1,528,Correct,4,927
4,XEXEX,191,1,1378,Correct,4,781
4,NVNFN,16,2,708,Correct,4,865
4,AYAYA,151,1,602,Correct,4,931
4,BNBVB,161,2,640,Correct,4,674
4,AHKXA,233,2,1244,Correct,4,882
4,WFWFW,113,2,722,Incorrect,4,899
4,SNSNS,152,1,649,Correct,4,917
4,FKFMF,81,1,803,Incorrect,4,892
4,DZDYD,14,2,896,Correct,4,760
4,GXGDG,162,2,613,Correct,4,839
4,AYAYK,225,1,571,Correct,4,684
4,FPFGF,222,2,1052,Correct,4,890
4,WRWRW,151,1,763,Correct,4,844
4,YPYEY,182,2,619,Correct,4,667
4,SQSQS,15,1,745,Correct,4,866
4,WZWPW,161,2,600,Correct,4,712
4,CKCKC,9,1,564,Incorrect,4,899
4,BWBVB,14,2,868,Correct,4,813
4,HMHMH,151,1,583,Correct,4,896
4,VEVNV,173,2,648,Correct,4,812
4,GMGVG,16,2,695,Correct,4,814
4,XHXKX,102,3,648,Correct,4,662
4,QXQRQ,14,2,566,Correct,4,871
4,LQLQL,151,1,594,Correct,4,908
4,ALELA,223,2,566,Incorrect,4,763
4,TPTKT,222,2,627,Correct,4,948
4,GEGEG,194,1,614,Correct,4,804
4,ZNZNZ,15,1,782,Correct,4,932
4,YZYZY,152,1,696,Correct,4,845
4,SYSYS,153,1,619,Correct,4,691
4,ZSZSZ,221,1,501,Correct,4,937
4,LALGL,222,2,691,Correct,4,932
4,CYCTC,162,2,933,Correct,4,681
4,WEWEW,195,1,619,Correct,4,699
4,CHCSC,16,2,728,Correct,4,899
4,GWGXG,162,2,659,Correct,4,882
4,FGFGF,151,1,638,Correct,4,856
4,QWQKQ,112,3,750,Correct,4,783
4,OQOFO,14,2,653,Correct,4,725
4,PMPEP,186,2,731,Correct,4,804
4,WBWPW,16,2,683,Correct,4,675
4,KCDHD,231,2,635,Correct,4,682
4,RSRWR,222,2,598,Correct,4,905
4,HGHGH,151,1,650,Correct,4,739
4,SKSKS,12,3,643,Correct,4,925
5,L,5,3,1819,New Target,5,877
5,PDPDP,151,1,808,Correct,5,700
5,WAWAW,152,1,639,Correct,5,833
5,HWHWH,153,1,490,Correct,5,909
5,SHSHS,154,1,432,Correct,5,748
5,BRBWB,161,1,468,Incorrect,5,859
5,FPFBF,162,2,903,Correct,5,937
5,GAGAG,151,1,559,Correct,5,682
5,QVQGQ,161,2,679,Correct,5,658
5,CLCLC,7,3,629,Correct,5,836
5,XWXWX,13,1,727,Correct,5,826
5,AUAUA,152,1,702,Correct,5,889
5,CKCKC,191,1,783,Correct,5,737
5,FNFCF,16,2,743,Correct,5,806
5,UHUQU,162,2,655,Correct,5,899
5,FZFZF,151,1,958,Correct,5,758
5,THLHT,223,1,1166,Correct,5,946
5,CUCLC,82,3,830,Correct,5,710
5,BSBSB,13,1,760,Correct,5,792
5,FDFBF,161,2,791,Correct,5,728
5,LXRXR,221,2,832,Incorrect,5,824
5,ZOZNZ,222,2,1164,Correct,5,742
5,UZUZU,151,1,698,Correct,5,686
5,AQATA,161,2,547,Correct,5,923
5,UNUPU,162,2,625,Correct,5,929
5,RVRKR,182,2,525,Correct,5,859
5,URURU,15,1,628,Correct,5,706
5,VLVLV,9,3,497,Correct,5,880
5,DXDVD,14,2,666,Correct,5,720
5,PZPZP,151,1,732,Correct,5,705
5,LXUMU,231,2,938,Correct,5,772
5,AKADA,173,2,733,Incorrect,5,806
5,HYHYH,15,1,952,Correct,5,871
5,AVAVA,152,1,829,Correct,5,777
5,TUTUT,153,1,677,Correct,5,757
5,XYXWX,161,2,674,Correct,5,875
5,TKTDT,174,2,612,Correct,5,669
5,NXNYN,16,2,661,Correct,5,775
5,USUCU,162,1,611,Incorrect,5,868
5,ZMZMZ,151,1,786,Correct,5,794
5,WRWAW,161,2,681,Correct,5,898
5,GWGXG,162,2,636,Correct,5,651
5,MUMYL,235,2,651,Correct,5,875
5,CNCNC,113,1,743,Correct,5,884
5,RLRLR,10,3,879,Correct,5,880
5,UAUWU,14,2,708,Correct,5,900
5,FXLRF,233,2,707,Correct,5,724
5,PFPFP,113,1,655,Correct,5,790
5,HPHPH,152,1,585,Correct,5,887
5,GKGKG,195,1,607,Correct,5,657
5,ZUZTZ,16,2,748,Correct,5,903
5,AVASA,162,2,860,Correct,5,722
5,PRPRP,151,1,676,Correct,5,735
5,YPYPY,152,1,560,Correct,5,864
5,ZLZOZ,111,3,865,Correct,5,800
5,WMWSW,14,1,1046,Incorrect,5,894
5,RZRXR,162,2,858,Correct,5,692
5,QWQWQ,151,1,752,Correct,5,812
5,ZKZKZ,196,1,1020,Correct,5,736
5,CVCVL,225,2,1256,Correct,5,911
5,NMNMN,113,1,912,Correct,5,798
5,TRTGT,161,2,952,Correct,5,759
5,CTCTC,151,1,640,Correct,5,723
5,RKRLR,122,3,746,Correct,5,947
6,B,5,3,1723,New Target,6,941
6,YMYGY,161,2,1146,Correct,6,894
6,HUHRH,162,2,538,Correct,6,714
6,WHWHW,151,1,795,Correct,6,901
6,MGMRM,161,2,552,Correct,6,777
6,ZVZWZ,162,2,665,Correct,6,862
6,RCRTR,163,2,554,Correct,6,759
6,DSDRD,164,2,587,Correct,6,888
6,VTBDV,233,2,574,Correct,6,784
6,DSDHD,222,2,574,Correct,6,894
6,QEQEQ,151,1,609,Correct,6,735
6,XOXQX,161,2,723,Correct,6,732
6,RARBR,72,3,751,Correct,6,766
6,GMGMG,13,1,636,Correct,6,706
6,ELERE,171,2,664,Correct,6,903
6,HZHUH,16,2,587,Correct,6,713
6,RHRVR,162,2,680,Correct,6,927
6,YBYBY,8,3,1396,Correct,6,800
6,PYPVP,14,2,980,Correct,6,927
6,TLTLT,192,1,645,Correct,6,845
6,QTQTQ,15,1,838,Correct,6,750
6,NXNVN,161,2,545,Correct,6,733
6,QNQNQ,151,1,774,Correct,6,749
6,FUFHF,161,2,592,Correct,6,854
6,YVYFB,235,2,582,Incorrect,6,698
6,WQWSW,222,2,741,Correct,6,875
6,HNHLH,193,2,579,Incorrect,6,694
6,OSOTO,16,2,778,Correct,6,705
6,GWGOG,162,2,512,Correct,6,883
6,UBUBU,9,3,500,Correct,6,826
6,CWCWC,13,1,654,Correct,6,681
6,OCOEO,161,2,719,Correct,6,725
6,MNMNM,151,1,601,Correct,6,853
6,XLXLX,194,1,768,Correct,6,662
6,AYAYA,15,1,653,Correct,6,767
6,FUFAF,161,2,862,Correct,6,698
6,ANAQA,162,2,649,Correct,6,665
6,BUPWP,231,2,1144,Correct,6,802
6,WSWSW,113,1,660,Correct,6,783
6,FRFRF,152,1,930,Correct,6,805
6,AUAUA,153,1,521,Correct,6,741
6,GMGCG,161,2,761,Correct,6,926
6,HLHWH,175,2,999,Correct,6,694
6,PQBQP,223,1,796,Correct,6,762
6,AZABA,102,2,903,Incorrect,6,760
6,CWCVC,14,2,722,Correct,6,675
6,FAFAF,151,1,609,Correct,6,774
6,VMVSV,161,2,626,Correct,6,791
6,GBGBG,11,3,503,Correct,6,663
6,FOFNF,14,2,620,Correct,6,768
6,DSDSD,151,1,823,Correct,6,944
6,YDYDY,152,1,780,Correct,6,880
6,FOFOF,153,1,763,Correct,6,655
6,CHCHB,225,1,1065,Correct,6,741
6,ZCZCZ,113,1,611,Correct,6,928
6,DZDGD,161,2,1251,Correct,6,864
6,MLMEM,176,2,796,Correct,6,756
6,PXPXP,15,2,709,Incorrect,6,823
6,QYQYQ,152,1,675,Correct,6,800
6,GRGCG,161,2,703,Correct,6,829
6,QVQVQ,151,1,576,Correct,6,693
6,XYXNX,161,2,639,Correct,6,884
6,BHMHM,221,2,975,Incorrect,6,805
6,CBCBC,12,1,574,Incorrect,6,883
