Trial No,Stimulus,Trigger,Response,Response Time(ms),Correct,Block,Fixation Duration
Practice
OT Practice
1,SKSKS,15,1,666,Correct,0,946
1,DLDUD,16,2,789,Correct,0,769
1,PDPGP,16,2,872,Correct,0,663
1,MWMWM,15,1,782,Correct,0,757
1,FTFTF,15,1,769,Correct,0,831
1,AXAMA,16,2,685,Correct,0,684
1,RYRGR,16,2,862,Correct,0,745
1,DODOD,15,1,823,Correct,0,799
1,QTQAQ,16,2,704,Correct,0,895
1,YEYEY,15,1,639,Correct,0,677
AT Practice
1,TKTKT,15,1,983,Correct,0,738
1,SLSUS,16,2,716,Correct,0,842
1,VZVGV,7,1,703,False,0,778
1,XWXZX,7,3,794,Correct,0,832
1,ATATA,15,1,934,Correct,0,752
1,HXZMH,16,2,953,Correct,0,833
1,TZTZT,7,3,890,Correct,0,926
1,UOUOU,15,1,861,Correct,0,869
1,ZTWAW,16,2,977,Correct,0,822
1,RZRER,7,3,1411,Correct,0,721
2,JYJDJ,16,2,1399,Correct,0,950
2,DWDWD,15,1,906,Correct,0,734
2,GNGNG,7,3,796,Correct,0,878
2,NEZEZ,16,1,969,Correct,0,709
2,RNROR,7,3,965,Correct,0,939
2,QTQNQ,7,3,1015,Correct,0,804
2,HOHON,15,1,701,Correct,0,683
2,KPKGK,16,2,1308,Correct,0,736
2,DRDED,16,2,1164,Correct,0,921
2,LNLNL,7,3,712,Correct,0,885
Trials
1,D,5,3,4547,New Target,1,947
1,BYBYB,151,1,912,Correct,1,675
1,FBFBF,152,1,766,Correct,1,759
1,RKRKR,153,2,841,Incorrect,1,869
1,QSQNQ,161,2,852,Correct,1,911
1,CTCFC,162,2,863,Correct,1,700
1,PDPNP,71,3,864,Correct,1,770
1,OPOFO,14,2,1215,Correct,1,654
1,HLHNH,162,2,922,Correct,1,783
1,MFMFM,151,1,1125,Correct,1,860
1,BTBTB,152,1,871,Correct,1,686
1,MCMPD,235,2,863,Correct,1,903
1,BMBFB,222,2,816,Correct,1,944
1,NTNZN,162,2,801,Correct,1,937
1,MXMRM,163,2,773,Correct,1,950
1,APABA,164,2,1099,Correct,1,678
1,FMDMF,223,2,906,Incorrect,1,724
1,QPQPQ,111,1,860,Correct,1,651
1,VQVMV,161,2,784,Correct,1,930
1,RERPR,162,2,917,Correct,1,876
1,KVKVK,151,1,947,Correct,1,765
1,AKAHA,161,2,926,Correct,1,734
1,VDVDV,8,3,729,Correct,1,814
1,DUGUG,221,2,1028,Incorrect,1,845
1,AFAFA,111,1,843,Correct,1,763
1,GYGYG,152,1,692,Correct,1,715
1,VXVSV,161,2,959,Correct,1,872
1,DOWGW,231,2,1344,Correct,1,906
1,QYQYQ,111,1,737,Correct,1,861
1,ODONO,91,3,1013,Correct,1,782
1,MSMSM,13,1,860,Correct,1,675
1,GYGYG,152,1,855,Correct,1,751
1,UMUMU,153,1,770,Correct,1,657
1,BZBZB,154,1,730,Correct,1,660
1,NTNBN,161,2,812,Correct,1,678
1,GNDYG,233,2,1333,Correct,1,835
1,OCOSO,222,2,870,Correct,1,888
1,BHBFB,162,2,849,Correct,1,920
1,QCQBQ,163,2,739,Correct,1,898
1,LQLQL,151,1,837,Correct,1,805
1,ZDZDZ,10,3,811,Correct,1,932
1,QNQZQ,14,2,1433,Correct,1,886
1,CSCYC,162,2,781,Correct,1,746
1,RCRLR,163,2,788,Correct,1,651
1,FRFRF,151,1,770,Correct,1,889
1,WFWFW,152,1,829,Correct,1,857
1,QOQLQ,161,2,1018,Correct,1,685
1,AWAQA,162,2,1264,Correct,1,793
1,EAEAE,151,1,1081,Correct,1,845
1,AGAUA,161,2,916,Correct,1,900
1,YMYMY,151,1,997,Correct,1,925
1,XQXQX,152,1,761,Correct,1,897
1,SHSGS,161,2,831,Correct,1,745
1,PDPDP,11,3,877,Correct,1,824
1,ZGZGZ,13,1,783,Correct,1,929
1,OXOXO,152,1,1004,Correct,1,809
1,LYLYL,153,1,1179,Correct,1,879
1,NKNKD,225,1,962,Correct,1,929
1,GNGNG,111,1,865,Correct,1,663
1,OYOBO,161,2,759,Correct,1,791
1,SOSOS,151,1,752,Correct,1,886
1,VHVHV,152,1,754,Correct,1,875
1,OKOXO,161,2,833,Correct,1,751
1,EZEZE,151,,,Incorrect,1,891
1,LDLDL,12,3,1092,Correct,1,736
2,U,5,3,1210,New Target,2,947
2,BVBEB,161,,,Incorrect,2,882
2,FBFBF,151,1,1391,Correct,2,751
2,RFRFR,152,1,980,Correct,2,804
2,NBNKN,161,2,929,Correct,2,943
2,MKMNM,162,2,1074,Correct,2,699
2,QXQXQ,151,1,1339,Correct,2,778
2,MQMYM,161,2,819,Correct,2,862
2,TGTPT,162,2,1076,Correct,2,824
2,XOXOX,151,1,1302,Correct,2,879
2,CUCUC,7,1,921,Incorrect,2,906
2,RFRFR,13,1,683,Correct,2,653
2,VYVSV,161,2,763,Correct,2,757
2,BEBAB,162,2,914,Correct,2,743
2,GKGQG,163,2,866,Correct,2,881
2,SCSCS,151,1,697,Correct,2,834
2,CTCUC,82,2,800,Incorrect,2,683
2,RCRCR,13,1,1064,Correct,2,813
2,BOBXB,161,2,780,Correct,2,811
2,FMFAF,162,2,954,Correct,2,945
2,VSVDV,181,2,802,Correct,2,797
2,PWPWP,15,1,865,Correct,2,846
2,UQCKC,231,2,761,Correct,2,858
2,OCOCO,151,1,698,Correct,2,762
2,TNTNT,152,1,902,Correct,2,861
2,QCQGQ,161,2,953,Correct,2,651
2,WVWVW,151,1,1125,Correct,2,759
2,TQTQT,152,1,881,Correct,2,879
2,FOFOF,225,1,1235,Correct,2,941
2,WVWFW,161,2,1382,Correct,2,669
2,SWSWS,151,1,1065,Correct,2,783
2,FYFCF,161,2,728,Correct,2,739
2,SUSWS,91,2,750,Incorrect,2,757
2,CACHC,14,2,1167,Correct,2,670
2,VDVKV,172,2,1217,Correct,2,816
2,YCYCY,15,1,764,Correct,2,928
2,NMNTN,161,2,985,Correct,2,724
2,XOUKX,233,2,930,Correct,2,742
2,BPBPB,151,1,768,Correct,2,728
2,MRMRM,152,1,926,Correct,2,928
2,XMXMX,153,1,1046,Correct,2,660
2,AUAHA,101,2,1149,Incorrect,2,822
2,XKXEU,235,,,Incorrect,2,724
2,TFTFT,151,1,732,Correct,2,775
2,MOMDM,183,2,1289,Correct,2,719
2,WYWMW,16,2,923,Correct,2,887
2,AZUZA,223,3,1087,Incorrect,2,858
2,KEKHK,161,2,932,Correct,2,786
2,LALAL,151,1,948,Correct,2,682
2,CWCDC,184,2,904,Incorrect,2,891
2,SGSTS,16,2,876,Correct,2,891
2,PXPXP,151,1,1415,Correct,2,853
2,GRGYG,161,2,758,Correct,2,930
2,PUPOP,111,2,856,Incorrect,2,850
2,RNRNR,14,1,730,Correct,2,686
2,MDMDM,195,1,1271,Correct,2,905
2,KTKTK,15,1,1057,Correct,2,710
2,OROKO,161,2,1156,Correct,2,906
2,UNANA,221,1,1140,Correct,2,662
2,TATAT,151,1,683,Correct,2,944
2,AWAWA,152,1,699,Incorrect,2,828
2,CTCDC,186,2,895,Incorrect,2,808
2,FCFCF,15,1,746,Correct,2,661
2,ZMZMZ,152,1,944,Correct,2,949
2,BUBUB,12,1,707,Incorrect,2,784
3,E,5,3,7476,New Target,3,778
3,YZYZY,151,,,Incorrect,3,680
3,VFVNV,161,2,1128,Correct,3,918
3,KAKAK,151,1,791,Correct,3,705
3,TKTKT,152,,,Incorrect,3,677
3,WHWTW,161,2,1331,Correct,3,941
3,QEQFQ,71,3,1022,Correct,3,699
3,XNXNX,13,1,1118,Correct,3,846
3,TXTXT,152,2,1303,Incorrect,3,710
3,GLGNG,161,2,1243,Correct,3,902
3,CUCTC,171,2,1448,Correct,3,665
3,FAFQF,16,2,1229,Correct,3,759
3,ZLZLZ,151,1,972,Correct,3,771
3,YZYZY,152,2,1237,Incorrect,3,871
3,CYCYC,153,1,960,Correct,3,865
3,HUHUH,192,1,736,Correct,3,840
3,OSORO,16,2,737,Correct,3,683
3,YOYOY,151,1,921,Correct,3,655
3,CECEC,8,1,1011,Incorrect,3,882
3,VNENV,223,2,1188,Incorrect,3,869
3,KQKFK,222,2,956,Correct,3,683
3,XLXLE,225,1,980,Correct,3,740
3,QUQUQ,193,1,1173,Correct,3,920
3,SWSLS,16,1,760,Incorrect,3,838
3,NBNPN,162,2,872,Correct,3,709
3,SGSGS,151,1,953,Correct,3,750
3,FBFBF,152,1,747,Correct,3,941
3,PFPFP,153,1,1212,Correct,3,717
3,AGASA,161,2,1286,Correct,3,836
3,KEKEK,9,3,1143,Correct,3,680
3,CWCOC,14,2,1142,Correct,3,890
3,HXHXH,151,1,1337,Correct,3,755
3,NUNZN,174,2,1011,Correct,3,712
3,QMQVQ,16,2,748,Correct,3,856
3,SQSQS,151,1,823,Correct,3,749
3,ERNFN,231,2,1061,Incorrect,3,778
3,AQANA,222,2,954,Correct,3,796
3,OBOEO,102,3,1176,Correct,3,665
3,SYSXS,14,2,930,Correct,3,671
3,QBQHQ,162,2,1001,Correct,3,683
3,XQXQX,151,1,945,Correct,3,700
3,KUKFK,175,2,1013,Correct,3,928
3,RKRKR,15,1,846,Correct,3,758
3,GFGFG,152,1,826,Correct,3,729
3,YBYVY,161,2,880,Correct,3,841
3,SPSTS,162,2,1033,Correct,3,686
3,AQAQA,151,1,896,Correct,3,675
3,EPVPV,221,1,1353,Correct,3,761
3,CQCEC,112,3,1241,Correct,3,697
3,RFRCR,14,2,1109,Correct,3,945
3,CPCVC,162,2,834,Correct,3,751
3,RXRCR,163,2,874,Correct,3,830
3,TNTLT,164,2,1095,Correct,3,701
3,BSBSB,151,1,797,Correct,3,792
3,ZBZBZ,152,1,1256,Correct,3,915
3,OYOUO,186,2,1395,Correct,3,925
3,AKAOA,16,2,867,Correct,3,910
3,YQEWY,233,2,1184,Correct,3,650
3,ZMZMZ,111,1,927,Correct,3,664
3,SWSTS,161,2,820,Correct,3,949
3,MFMQE,235,2,1139,Correct,3,795
3,RSRLR,222,2,717,Correct,3,663
3,QEQWQ,121,3,1241,Correct,3,873
4,K,5,3,1570,New Target,4,676
4,CACHC,161,2,892,Correct,4,933
4,RWRCR,162,2,1561,Correct,4,792
4,FOFVF,163,2,786,Correct,4,696
4,LGLGL,151,1,1035,Correct,4,928
4,PLPLP,152,1,904,Correct,4,682
4,NPNPN,153,1,832,Correct,4,877
4,SGSZS,161,2,906,Correct,4,756
4,DNDMD,162,2,1024,Correct,4,839
4,OCOAK,235,2,1030,Correct,4,726
4,VYVYV,111,1,913,Correct,4,892
4,RLRLR,152,1,1501,Correct,4,775
4,DKDKD,7,1,1438,Incorrect,4,770
4,ZLZLZ,13,1,890,Correct,4,709
4,FZFZF,152,1,1379,Correct,4,890
4,CFCFC,153,1,1061,Correct,4,858
4,OZOZO,154,1,729,Correct,4,898
4,XEXEX,191,1,869,Correct,4,849
4,NVNFN,16,2,1103,Correct,4,790
4,AYAYA,151,1,834,Correct,4,820
4,BNBVB,161,2,897,Correct,4,733
4,AHKXA,233,2,1144,Correct,4,941
4,WFWFW,111,1,969,Correct,4,692
4,SNSNS,152,1,999,Correct,4,672
4,FKFMF,81,2,999,Incorrect,4,706
4,DZDYD,14,,,Incorrect,4,751
4,GXGDG,162,2,991,Correct,4,869
4,AYAYK,225,2,949,Incorrect,4,749
4,FPFGF,222,2,769,Correct,4,729
4,WRWRW,151,1,1064,Correct,4,713
4,YPYEY,182,2,979,Correct,4,658
4,SQSQS,15,1,815,Correct,4,718
4,WZWPW,161,2,1388,Correct,4,849
4,CKCKC,9,3,737,Correct,4,680
4,BWBVB,14,2,882,Correct,4,688
4,HMHMH,151,1,925,Correct,4,672
4,VEVNV,173,2,749,Correct,4,882
4,GMGVG,16,2,759,Correct,4,875
4,XHXKX,102,2,992,Incorrect,4,859
4,QXQRQ,14,2,1181,Correct,4,894
4,LQLQL,151,1,969,Correct,4,705
4,ALELA,223,2,728,Incorrect,4,658
4,TPTKT,222,3,1074,Incorrect,4,939
4,GEGPG,174,2,828,Correct,4,921
4,ZNZNZ,15,1,738,Correct,4,937
4,YZYZY,152,2,799,Incorrect,4,915
4,SYSYS,153,1,1022,Correct,4,718
4,ZSZSZ,221,1,773,Correct,4,679
4,LALGL,222,2,852,Correct,4,771
4,CYCTC,162,2,1013,Correct,4,761
4,WEWEW,195,1,922,Correct,4,741
4,CHCSC,16,2,1042,Correct,4,938
4,GWGXG,162,2,809,Correct,4,781
4,FGFGF,151,1,804,Correct,4,850
4,QWQKQ,112,3,1405,Correct,4,898
4,OQOFO,14,2,922,Correct,4,653
4,PMPEP,186,2,1366,Correct,4,780
4,WBWPW,16,2,1320,Correct,4,836
4,KCDHD,231,2,762,Correct,4,891
4,RSRWR,222,2,952,Correct,4,777
4,HGHGH,151,1,980,Correct,4,805
4,SKSKS,12,3,1517,Correct,4,876
5,L,5,3,3700,New Target,5,684
5,PDPDP,151,1,1065,Correct,5,704
5,WAWAW,152,1,765,Correct,5,767
5,HWHWH,153,1,1143,Correct,5,897
5,SHSHS,154,1,747,Correct,5,698
5,BRBWB,161,2,818,Correct,5,943
5,FPFBF,162,2,915,Correct,5,677
5,GAGAG,151,1,813,Correct,5,873
5,QVQGQ,161,2,829,Correct,5,834
5,CLCLC,7,3,1035,Correct,5,737
5,XWXWX,13,1,933,Correct,5,679
5,AUAUA,152,1,777,Correct,5,912
5,CKCKC,191,1,935,Correct,5,702
5,FNFCF,16,2,1084,Correct,5,775
5,UHUQU,162,2,1578,Correct,5,839
5,FZFZF,151,1,935,Correct,5,823
5,THLHT,223,1,766,Correct,5,710
5,CUCLC,82,3,1190,Correct,5,678
5,BSBSB,13,1,893,Correct,5,854
5,FDFBF,161,2,1497,Correct,5,701
5,LXRXR,221,1,884,Correct,5,895
5,ZOZNZ,222,2,968,Correct,5,841
5,UZUZU,151,1,862,Correct,5,924
5,AQATA,161,2,1301,Correct,5,898
5,UNUPU,162,2,955,Correct,5,864
5,RVRKR,182,2,1169,Correct,5,914
5,URURU,15,1,1008,Correct,5,921
5,VLVLV,9,3,789,Correct,5,929
5,DXDVD,14,2,1055,Correct,5,812
5,PZPZP,151,1,1080,Correct,5,831
5,LXUMU,231,2,1095,Correct,5,757
5,AKADA,173,2,873,Incorrect,5,725
5,HYHYH,15,1,1014,Correct,5,879
5,AVAVA,152,1,830,Correct,5,728
5,TUTUT,153,1,941,Correct,5,778
5,XYXWX,161,2,926,Correct,5,920
5,TKTDT,174,2,1323,Correct,5,657
5,NXNYN,16,2,890,Correct,5,673
5,USUCU,162,2,1056,Correct,5,875
5,ZMZMZ,151,1,1059,Correct,5,907
5,WRWAW,161,2,1373,Correct,5,890
5,GWGXG,162,,,Incorrect,5,705
5,MUMYL,235,2,1227,Correct,5,859
5,CNCNC,111,1,810,Correct,5,655
5,RLRLR,10,,,Incorrect,5,749
5,UAUWU,14,2,1063,Correct,5,721
5,FXLRF,233,2,1397,Correct,5,944
5,PFPFP,111,1,787,Correct,5,851
5,HPHPH,152,1,685,Correct,5,809
5,GKGKG,195,1,652,Correct,5,770
5,ZUZTZ,16,2,1143,Correct,5,926
5,AVASA,162,2,899,Correct,5,819
5,PRPRP,151,1,1064,Correct,5,924
5,YPYPY,152,1,812,Correct,5,910
5,ZLZOZ,111,3,887,Correct,5,819
5,WMWSW,14,2,1465,Correct,5,907
5,RZRXR,162,2,1082,Correct,5,813
5,QWQWQ,151,1,938,Correct,5,715
5,ZKZKZ,196,1,1151,Correct,5,857
5,CVCVL,225,1,863,Incorrect,5,805
5,NMNMN,111,,,Incorrect,5,676
5,TRTGT,161,2,880,Correct,5,678
5,CTCTC,151,1,729,Correct,5,772
5,RKRLR,122,3,884,Correct,5,934
6,B,5,3,1378,New Target,6,720
6,YMYGY,161,2,1274,Correct,6,667
6,HUHRH,162,2,929,Correct,6,867
6,WHWHW,151,1,865,Correct,6,903
6,MGMRM,161,2,1018,Correct,6,902
6,ZVZWZ,162,2,758,Correct,6,739
6,RCRTR,163,2,741,Correct,6,702
6,DSDRD,164,2,688,Correct,6,890
6,VTBDV,233,2,825,Correct,6,943
6,DSDHD,222,2,959,Correct,6,907
6,QEQEQ,151,1,952,Correct,6,715
6,XOXQX,161,2,982,Correct,6,707
6,RARBR,72,3,961,Correct,6,690
6,GMGMG,13,1,817,Correct,6,950
6,ELERE,171,2,1153,Correct,6,845
6,HZHUH,16,2,1424,Correct,6,665
6,RHRVR,162,2,1031,Correct,6,826
6,YBYBY,8,3,779,Correct,6,784
6,PYPVP,14,2,795,Correct,6,838
6,TLTLT,192,1,1098,Correct,6,890
6,QTQTQ,15,1,745,Correct,6,782
6,NXNVN,161,2,813,Correct,6,811
6,QNQNQ,151,1,737,Correct,6,734
6,FUFHF,161,2,806,Correct,6,708
6,YVYFB,235,2,907,Incorrect,6,934
6,WQWSW,222,2,718,Correct,6,816
6,HNHLH,193,2,927,Incorrect,6,673
6,OSOTO,16,2,1253,Correct,6,910
6,GWGOG,162,2,1126,Correct,6,780
6,UBUBU,9,3,864,Correct,6,859
6,CWCWC,13,1,891,Correct,6,747
6,OCOEO,161,2,1256,Correct,6,815
6,MNMNM,151,1,1098,Correct,6,697
6,XHXLX,184,2,837,Correct,6,836
6,AYAYA,15,1,701,Correct,6,937
6,FUFAF,161,2,793,Correct,6,923
6,ANAQA,162,2,729,Correct,6,848
6,BUPWP,231,2,1086,Correct,6,723
6,WSWSW,111,1,999,Correct,6,941
6,FRFRF,152,2,665,Incorrect,6,869
6,AUAUA,153,1,1148,Correct,6,877
6,GMGCG,161,2,781,Correct,6,787
6,HLHWH,175,2,805,Correct,6,879
6,PQBQP,223,1,1245,Correct,6,888
6,AZABA,102,3,854,Correct,6,827
6,CWCVC,14,2,1137,Correct,6,932
6,FAFAF,151,1,707,Correct,6,668
6,VMVSV,161,2,981,Correct,6,721
6,GBGBG,11,3,1026,Correct,6,936
6,FOFNF,14,2,795,Correct,6,734
6,DSDSD,151,1,1034,Correct,6,829
6,YDYDY,152,1,1297,Correct,6,799
6,FOFOF,153,1,1167,Correct,6,803
6,CHCHB,225,1,682,Correct,6,911
6,ZCZCZ,111,1,831,Correct,6,799
6,DZDGD,161,2,1282,Correct,6,681
6,MLMEM,176,2,910,Correct,6,783
6,PXPXP,15,1,884,Correct,6,752
6,QYQYQ,152,1,763,Correct,6,782
6,GRGCG,161,2,931,Correct,6,919
6,QVQVQ,151,1,704,Correct,6,764
6,XYXNX,161,2,962,Correct,6,672
6,BHMHM,221,2,898,Incorrect,6,874
6,CBCBC,12,3,1112,Correct,6,743
7,W,5,3,1441,New Target,7,745
7,QKQKQ,151,,,Incorrect,7,652
7,DUDQD,161,2,937,Correct,7,738
7,OKOKO,151,1,689,Correct,7,881
7,EOEOE,152,2,763,Incorrect,7,686
7,URUPU,161,2,1512,Correct,7,868
7,GMGAG,162,2,867,Correct,7,656
7,HVWDH,233,2,1245,Correct,7,925
7,MHMHM,111,1,1106,Correct,7,697
7,YXYVY,161,2,697,Correct,7,662
7,FNFNF,151,1,808,Correct,7,714
7,AWAWA,7,3,855,Correct,7,794
7,ZAZAZ,13,1,716,Correct,7,896
7,OYOYO,152,1,784,Correct,7,733
7,SQSQS,153,1,1046,Correct,7,685
7,OSOSO,154,1,597,Correct,7,878
7,FCFBF,181,2,1072,Correct,7,948
7,EUEUE,15,1,1042,Correct,7,690
7,CYCGC,161,2,839,Correct,7,730
7,SZSUS,162,2,813,Correct,7,894
7,OFOFO,151,1,631,Correct,7,853
7,RVRUR,161,2,979,Correct,7,697
7,ZBZBZ,192,1,748,Correct,7,744
7,UCUTU,16,2,1065,Correct,7,855
7,NWNWN,8,3,1103,Correct,7,745
7,XNXUX,14,2,737,Correct,7,805
7,CXCNC,162,2,866,Correct,7,782
7,AUAUW,225,1,893,Correct,7,750
7,HEHEH,111,1,883,Correct,7,848
7,UFWFU,223,2,805,Incorrect,7,814
7,HVHEH,222,2,1009,Correct,7,833
7,YBYBY,193,1,902,Correct,7,680
7,OYOYO,15,1,748,Correct,7,802
7,TMTWT,91,3,799,Correct,7,810
7,HTHTH,13,1,827,Correct,7,938
7,UHUHU,152,1,921,Correct,7,696
7,EVEBE,184,2,856,Incorrect,7,663
7,HZHMH,16,,,Incorrect,7,689
7,VHVCV,162,2,1591,Correct,7,818
7,WAGDG,231,2,1517,Correct,7,704
7,PFPFP,111,1,1294,Correct,7,748
7,OQOQO,152,1,702,Correct,7,918
7,TWTWT,10,3,780,Correct,7,781
7,VKVDV,14,2,1514,Correct,7,749
7,WPAPA,221,1,969,Correct,7,772
7,HBHBH,195,1,874,Correct,7,926
7,ZMZAZ,16,2,1356,Correct,7,664
7,SYSYS,151,1,758,Correct,7,690
7,FZFXF,161,2,1180,Correct,7,684
7,SMSMS,151,1,1328,Correct,7,711
7,XOXOX,152,1,787,Correct,7,930
7,FWFWF,11,3,1458,Correct,7,768
7,ENEBE,186,2,792,Correct,7,659
7,ZVZGZ,16,2,842,Correct,7,664
7,EZEZE,151,1,756,Correct,7,813
7,TOTEW,235,2,777,Correct,7,779
7,PDPDP,111,1,834,Correct,7,869
7,TKTWT,122,3,1036,Correct,7,790
8,M,5,3,4726,New Target,8,866
8,VYVNV,161,,,Incorrect,8,787
8,KLKTK,162,2,921,Correct,8,913
8,NQNQN,151,1,765,Correct,8,778
8,VHVEV,161,2,746,Correct,8,719
8,XNXNM,225,1,1369,Correct,8,756
8,USUVU,222,2,1457,Correct,8,785
8,KRKZK,162,2,998,Correct,8,772
8,TMTET,71,3,975,Correct,8,870
8,GFGFG,13,1,854,Correct,8,793
8,OPODO,161,2,1149,Correct,8,887
8,KCKCK,151,1,625,Correct,8,715
8,VTVTV,152,1,964,Correct,8,696
8,LSLSL,153,1,690,Correct,8,728
8,DLDLD,154,1,482,Correct,8,852
8,NYNYN,155,2,1279,Incorrect,8,767
8,DCMAD,233,2,847,Correct,8,789
8,TDTDT,111,1,627,Correct,8,707
8,GVGRG,161,2,1002,Correct,8,750
8,ZUZUZ,151,1,632,Correct,8,707
8,OGOVO,161,2,987,Correct,8,870
8,PWPTP,171,2,1009,Correct,8,711
8,KLKDM,235,2,1370,Correct,8,811
8,SMSMS,8,3,1137,Correct,8,915
8,PRPSP,14,2,1326,Correct,8,835
8,DVDYD,162,2,812,Correct,8,750
8,PXPMP,92,3,1226,Correct,8,719
8,GDGLG,14,2,1122,Correct,8,920
8,SWSWS,192,2,1165,Incorrect,8,911
8,GDGLG,16,2,1113,Correct,8,712
8,MTCYC,231,2,945,Correct,8,753
8,GSGSG,111,1,832,Correct,8,910
8,YQYTY,161,2,768,Correct,8,744
8,ZLZPZ,162,2,1103,Correct,8,737
8,HZHZH,151,1,1036,Correct,8,801
8,MSOSO,221,1,810,Correct,8,926
8,HWHWH,193,2,1563,Incorrect,8,681
8,PYPAP,16,2,797,Correct,8,716
8,SPSVS,162,2,876,Correct,8,885
8,XLXLX,151,1,902,Correct,8,681
8,YMYMY,10,3,860,Correct,8,700
8,HYHYH,13,2,1304,Incorrect,8,699
8,OWOGO,174,,,Incorrect,8,729
8,PHPOP,16,2,778,Correct,8,931
8,NPNSN,162,2,788,Correct,8,923
8,HVMVH,223,1,1128,Correct,8,780
8,THTFT,222,2,1424,Correct,8,702
8,STSTS,151,1,721,Correct,8,808
8,AGAMA,112,3,922,Correct,8,650
8,PEPEP,13,1,1104,Correct,8,769
8,ZWZWZ,195,2,1256,Incorrect,8,940
8,ODOZO,16,2,1090,Correct,8,792
8,LRLOL,162,2,1246,Correct,8,650
8,GZGZG,151,1,1084,Correct,8,730
8,TGTGT,152,1,848,Correct,8,658
8,CUCSC,161,2,801,Correct,8,932
8,SCSCS,151,1,994,Correct,8,787
8,AWAWA,196,1,1334,Correct,8,738
8,NLNLN,15,1,993,Correct,8,712
8,VNVNV,152,1,1044,Correct,8,742
8,GMGMG,12,3,1055,Correct,8,653
9,S,5,3,5587,New Target,9,734
9,NBNBN,151,,,Incorrect,9,654
9,KVKZK,161,2,1550,Correct,9,714
9,LBLBL,151,1,700,Correct,9,864
9,XLXLX,152,1,837,Correct,9,862
9,ZXZXZ,153,1,778,Correct,9,684
9,KNKZK,161,2,1224,Correct,9,784
9,TQTAT,162,2,949,Correct,9,787
9,CLCUC,163,2,825,Correct,9,823
9,ZCZFZ,164,2,761,Correct,9,763
9,NSNSN,7,3,1059,Correct,9,819
9,HGHGH,13,2,791,Incorrect,9,799
9,THTDT,161,2,1257,Correct,9,671
9,VMVMV,191,1,1027,Correct,9,874
9,CVCDC,16,2,1194,Correct,9,789
9,ZAZRZ,162,2,963,Correct,9,659
9,XTXZX,163,2,1084,Correct,9,695
9,OXOXO,151,1,604,Correct,9,711
9,DCDSD,82,,,Incorrect,9,840
9,PQPDP,14,2,923,Correct,9,746
9,ZMZMZ,192,2,744,Correct,9,940
9,BEBEB,15,1,760,Correct,9,755
9,FCFCF,152,1,1381,Correct,9,945
9,YAYBY,161,2,1071,Correct,9,787
9,KNKVK,162,2,833,Correct,9,896
9,SEPCP,231,,,Incorrect,9,758
9,OPOPO,111,1,841,Correct,9,751
9,XMXMX,193,1,992,Correct,9,818
9,KEKEK,15,1,703,Correct,9,661
9,USUSU,9,3,873,Correct,9,841
9,YHSHY,223,1,965,Correct,9,784
9,UPUPU,111,1,673,Correct,9,790
9,XZXZX,152,1,838,Correct,9,739
9,KGKXK,161,2,897,Correct,9,915
9,QEQPQ,162,2,806,Correct,9,759
9,NUNUS,225,1,980,Correct,9,746
9,BXBXB,111,1,1031,Correct,9,859
9,SQHQH,221,1,1110,Correct,9,829
9,ACACA,111,1,1219,Correct,9,922
9,KMKBK,174,2,948,Correct,9,776
9,EGSVE,233,2,1117,Correct,9,834
9,HYHYH,111,1,962,Correct,9,756
9,LULUL,152,1,777,Correct,9,761
9,AEAEA,153,1,905,Correct,9,824
9,TXTST,102,3,1200,Correct,9,832
9,FDFCF,14,2,1179,Correct,9,719
9,KVKVK,151,1,794,Correct,9,787
9,UBUCU,161,2,1059,Correct,9,871
9,GAGMG,185,2,1316,Correct,9,813
9,UXUGU,16,,,Incorrect,9,676
9,HOHOH,151,1,1009,Correct,9,732
9,QUQTS,235,2,1255,Correct,9,920
9,YZYZY,111,1,1116,Correct,9,667
9,BSBSB,11,3,1513,Correct,9,806
9,FEFEF,13,1,1534,Correct,9,751
9,GMGMG,196,1,1109,Correct,9,698
9,TGTXT,16,2,1054,Correct,9,659
9,LSLFL,121,3,1013,Correct,9,773
10,Q,5,3,2733,New Target,10,820
10,ZHZOZ,161,2,1425,Correct,10,670
10,RZRZR,151,1,1389,Correct,10,726
10,BFBFB,152,1,829,Correct,10,917
10,GBGBG,153,1,754,Correct,10,910
10,OGOXO,161,2,831,Correct,10,841
10,UEQOU,233,2,828,Correct,10,656
10,BOBRB,222,2,745,Correct,10,783
10,DYDVD,162,2,898,Correct,10,662
10,COCOC,151,1,821,Correct,10,924
10,YZYQY,72,2,836,Incorrect,10,746
10,FHFWF,14,2,1115,Correct,10,922
10,ANANQ,225,1,702,Correct,10,824
10,ZAZAZ,111,1,798,Correct,10,815
10,ERESE,181,2,1143,Incorrect,10,860
10,XTXOX,16,2,1029,Correct,10,851
10,NXNXN,151,1,1047,Correct,10,789
10,OVOZO,161,2,938,Correct,10,666
10,WUWOW,162,2,1115,Correct,10,894
10,FWFVF,163,2,1014,Correct,10,675
10,NSNKN,172,2,1036,Incorrect,10,697
10,VWVNV,16,2,1056,Correct,10,840
10,XZXZX,151,1,1081,Correct,10,726
10,VQVQV,8,3,826,Correct,10,846
10,GYGPG,14,2,1075,Correct,10,934
10,OBOSO,183,2,1327,Correct,10,820
10,YUYUY,15,1,1004,Correct,10,788
10,NDNQN,92,3,1071,Correct,10,750
10,FCFHF,14,2,976,Correct,10,707
10,EFEFE,151,1,1198,Correct,10,663
10,NSNSN,194,1,1217,Correct,10,659
10,YPYFY,16,2,1239,Correct,10,944
10,ZKZKZ,151,1,1531,Correct,10,710
10,QZQDR,231,2,996,Correct,10,688
10,AOAHA,222,2,1243,Correct,10,770
10,BGBGB,151,1,882,Correct,10,793
10,HQHQH,10,3,1068,Correct,10,940
10,UHUBU,14,2,960,Correct,10,658
10,KRKSK,185,2,1207,Correct,10,792
10,TOTOT,15,1,1370,Correct,10,677
10,APAPA,152,1,1124,Correct,10,728
10,VDVYV,161,2,1429,Correct,10,905
10,FOFTF,162,2,1117,Correct,10,764
10,QVXVX,221,1,1416,Correct,10,901
10,GHGRG,222,2,1245,Correct,10,801
10,LFLFL,151,1,1052,Correct,10,779
10,HLHLH,152,1,1194,Correct,10,819
10,KWQWK,223,1,1183,Correct,10,903
10,YQYQY,11,3,1149,Correct,10,772
10,ADADA,13,1,1179,Correct,10,844
10,OGOAO,161,2,1307,Correct,10,656
10,EOEFE,162,2,1124,Correct,10,817
10,USUSU,196,1,1302,Correct,10,694
10,VFVAQ,235,2,1382,Correct,10,721
10,DZDXD,222,2,1063,Correct,10,865
10,HVHDH,162,2,1070,Correct,10,685
10,DWDWD,151,1,1218,Correct,10,715
10,GBGBG,152,1,1264,Correct,10,703
10,AOADA,161,2,997,Correct,10,676
10,GQGQG,12,3,808,Correct,10,724
11,T,5,3,1093,New Target,11,809
11,KEKEK,151,1,1244,Correct,11,772
11,LBLBL,152,1,1117,Correct,11,660
11,HEHVH,161,2,899,Correct,11,802
11,FRFOF,162,2,1076,Correct,11,865
11,EBEBE,151,1,1046,Correct,11,696
11,HTHTH,7,3,1440,Correct,11,774
11,MAMDM,14,2,1359,Correct,11,667
11,VOVOV,151,1,780,Correct,11,687
11,XQXQX,191,2,751,Incorrect,11,944
11,PBPAP,16,2,836,Correct,11,708
11,MXMLM,162,2,1180,Correct,11,772
11,TCNCN,221,1,1339,Correct,11,925
11,OBONO,222,2,839,Correct,11,683
11,RCROR,162,2,886,Correct,11,690
11,PBPRT,235,,,Incorrect,11,703
11,WFWVW,222,1,1458,Incorrect,11,659
11,LTLUL,81,2,893,Incorrect,11,700
11,ZDZPZ,14,2,714,Correct,11,663
11,NCNQN,182,2,1301,Correct,11,914
11,XZXNX,16,2,1045,Correct,11,912
11,GOGOG,151,1,1152,Correct,11,770
11,DFDFD,152,1,1286,Correct,11,692
11,VWTRV,233,2,1470,Correct,11,843
11,CFCVC,222,,,Incorrect,11,816
11,PAPAP,151,1,897,Correct,11,827
11,EQEYE,173,2,1514,Correct,11,867
11,DNDED,16,2,729,Correct,11,746
11,PTPTP,9,3,858,Correct,11,823
11,ZCZCZ,13,1,912,Correct,11,880
11,MZMZM,152,1,1012,Correct,11,805
11,ULUVU,161,2,1123,Correct,11,874
11,BRBGB,162,2,1365,Correct,11,706
11,MLMLT,225,1,813,Correct,11,723
11,GQGQG,194,1,1375,Correct,11,911
11,HGHGH,15,1,1119,Correct,11,927
11,RVRBR,161,2,1097,Correct,11,857
11,ZOZDZ,162,2,891,Correct,11,801
11,VYVYV,151,1,984,Correct,11,724
11,RVRVR,152,1,800,Correct,11,808
11,OTOTO,10,3,1206,Correct,11,831
11,PXPXP,13,1,862,Correct,11,817
11,MCMCM,152,1,1136,Correct,11,945
11,YUYUY,153,1,954,Correct,11,867
11,DYDYD,154,1,1152,Correct,11,756
11,WDWDW,155,1,704,Correct,11,817
11,DYDQD,185,2,765,Correct,11,947
11,KDKNK,16,2,894,Correct,11,852
11,HOHOH,151,1,1382,Correct,11,923
11,TWEZE,231,2,1034,Correct,11,860
11,NANHN,222,2,1162,Correct,11,847
11,VQVWV,176,2,670,Correct,11,721
11,ZRZRZ,15,1,1261,Correct,11,830
11,VTVGV,111,3,886,Correct,11,811
11,HWHVH,14,2,831,Correct,11,739
11,EHEHE,151,1,869,Correct,11,659
11,VRVLV,161,2,837,Correct,11,714
11,ACACA,151,1,671,Correct,11,914
11,WBTBW,223,1,865,Correct,11,908
11,UTUTU,12,3,966,Correct,11,926
12,O,5,3,1242,New Target,12,853
12,UXULU,161,2,1357,Correct,12,894
12,MUMDM,162,2,945,Correct,12,835
12,VLVLV,151,1,831,Correct,12,650
12,BDBHB,161,2,927,Correct,12,686
12,KEKEK,151,1,869,Correct,12,716
12,WKWKW,152,1,881,Correct,12,761
12,AWAWA,153,1,732,Correct,12,759
12,EVEVE,154,1,668,Correct,12,819
12,PHPOP,72,3,1028,Correct,12,854
12,WXWAW,14,2,1292,Correct,12,767
12,PWPHP,162,2,1033,Correct,12,848
12,ZTZTZ,191,1,692,Correct,12,910
12,HVHMH,16,2,645,Correct,12,875
12,DKDKD,151,1,871,Correct,12,834
12,NPNPN,152,1,784,Correct,12,809
12,ZRZNZ,161,2,766,Correct,12,858
12,OGCGC,221,2,967,Incorrect,12,867
12,LFLFL,151,1,594,Correct,12,667
12,WXWXW,152,1,696,Correct,12,692
12,KPKPK,153,1,747,Correct,12,763
12,FRFKF,161,2,691,Correct,12,702
12,EOEOE,8,3,817,Correct,12,905
12,GEGEG,13,1,631,Correct,12,877
12,LKLBO,235,2,956,Correct,12,836
12,MLMZM,161,2,971,Correct,12,664
12,ASACA,162,2,753,Correct,12,784
12,LOLOL,9,3,862,Correct,12,779
12,XLXLX,13,1,962,Correct,12,687
12,WHWHW,152,1,748,Correct,12,681
12,ETETE,192,1,718,Correct,12,794
12,OXGZG,231,2,835,Correct,12,763
12,CZCZC,151,1,737,Correct,12,829
12,LGLGL,152,1,1407,Correct,12,720
12,VLVPV,161,2,762,Correct,12,698
12,UYUYO,225,1,1020,Correct,12,766
12,SMSMS,151,1,686,Correct,12,941
12,RTRTR,193,1,765,Correct,12,944
12,KVKHK,16,2,785,Correct,12,748
12,ROROR,101,3,849,Correct,12,751
12,PRPRP,13,1,1120,Correct,12,662
12,LALHL,161,2,1042,Correct,12,772
12,PLPLP,151,1,743,Correct,12,853
12,CTCTC,194,1,674,Correct,12,783
12,XGXAX,16,2,1070,Correct,12,672
12,NMNMN,151,1,829,Correct,12,811
12,HLHZH,161,2,909,Correct,12,691
12,YOYOY,11,3,788,Correct,12,888
12,PZOZP,223,2,720,Incorrect,12,771
12,EAEAE,151,1,819,Correct,12,651
12,GXGVG,161,2,978,Correct,12,658
12,HMHGH,162,2,979,Correct,12,854
12,GTGTG,195,1,902,Correct,12,764
12,LMLGL,16,2,723,Correct,12,723
12,ECEDE,162,2,766,Correct,12,670
12,PSPKP,163,2,997,Correct,12,698
12,MCOBM,233,2,627,Correct,12,898
12,EMEME,151,1,750,Correct,12,941
12,CTCRC,176,2,779,Correct,12,883
12,NSNSN,15,1,679,Correct,12,810
12,MWMVM,161,2,849,Correct,12,709
12,CPCOC,122,3,1244,Correct,12,916
13,H,5,3,4105,New Target,13,722
13,VUVUV,151,1,1337,Correct,13,796
13,YVYVY,152,2,1433,Incorrect,13,743
13,XUXUX,153,1,938,Correct,13,792
13,NRNWN,161,2,1226,Correct,13,713
13,MZMKM,162,2,791,Correct,13,909
13,HLVLV,221,1,873,Correct,13,684
13,DXDGD,222,2,781,Correct,13,888
13,LHLAL,71,,,Incorrect,13,825
13,YMYFY,14,2,1146,Correct,13,750
13,AOARA,171,2,1090,Correct,13,944
13,ZKZAZ,16,2,1122,Correct,13,764
13,RZRZR,151,1,961,Correct,13,715
13,NFNAN,161,2,1282,Correct,13,911
13,KUKEK,162,2,815,Correct,13,771
13,XAXYX,163,2,1063,Correct,13,847
13,LKLUL,164,2,731,Correct,13,855
13,NLNLN,151,1,901,Correct,13,858
13,WDWOW,182,2,811,Correct,13,920
13,EWEWE,15,1,702,Correct,13,805
13,VHVHV,8,1,1297,Incorrect,13,773
13,PVPVP,13,1,641,Correct,13,759
13,CRCSC,161,2,845,Correct,13,710
13,NWNWN,151,1,1348,Correct,13,664
13,SQSQS,152,1,746,Correct,13,718
13,AEASA,161,2,739,Correct,13,950
13,GOGOG,193,1,689,Correct,13,763
13,QGQGQ,15,2,1056,Incorrect,13,857
13,FMFMF,152,1,726,Correct,13,705
13,PFPFP,153,1,920,Correct,13,831
13,SYSHS,92,2,862,Incorrect,13,910
13,QGQKQ,14,2,715,Correct,13,805
13,ELELH,225,1,678,Correct,13,796
13,MRMRM,111,1,814,Correct,13,773
13,GUGNG,161,2,751,Correct,13,698
13,ZOZOZ,194,1,721,Correct,13,761
13,EZEZE,15,1,688,Correct,13,753
13,FHFKF,101,1,592,Incorrect,13,835
13,GSHLG,233,2,1099,Correct,13,693
13,FKFXF,222,2,1297,Correct,13,703
13,DEDYD,162,2,885,Correct,13,862
13,UXUVU,163,2,1151,Correct,13,784
13,MCMOM,185,2,782,Correct,13,697
13,BXBUH,235,2,673,Correct,13,719
13,DMDMD,111,1,844,Correct,13,910
13,BXBDB,161,2,719,Correct,13,896
13,AVAVA,151,1,874,Correct,13,888
13,QUHUQ,223,1,1014,Correct,13,694
13,BRBRB,111,1,813,Correct,13,764
13,ZHZHZ,11,1,621,Incorrect,13,792
13,VZVZV,13,1,719,Correct,13,942
13,HBUQU,231,2,700,Correct,13,809
13,EUEUE,111,1,644,Correct,13,741
13,RQRDR,161,2,638,Correct,13,720
13,COCOC,196,1,550,Correct,13,911
13,VNVSV,16,2,720,Correct,13,692
13,WHWHW,12,1,1111,Incorrect,13,927
14,G,5,3,2212,New Target,14,801
14,EBEBE,151,1,1124,Correct,14,655
14,QPQUQ,161,2,897,Correct,14,910
14,XDXDX,151,1,780,Correct,14,877
14,YXYXY,152,2,756,Incorrect,14,900
14,MBMBM,153,1,783,Correct,14,765
14,QMQKQ,161,1,737,Incorrect,14,940
14,EYETE,162,2,935,Correct,14,711
14,UKUKU,151,1,798,Correct,14,913
14,MPGPM,223,1,1178,Correct,14,763
14,ANANA,111,1,744,Correct,14,924
14,UAUAU,152,1,1073,Correct,14,697
14,ADASA,161,2,859,Correct,14,708
14,LKLGL,72,3,1137,Correct,14,674
14,UWUWU,13,1,1192,Correct,14,748
14,MCMUM,161,2,1138,Correct,14,877
14,YMYMY,151,1,1078,Correct,14,759
14,RHRWR,171,2,1145,Correct,14,753
14,DUDCD,16,2,1097,Correct,14,835
14,ASAGA,82,3,1244,Correct,14,698
14,DLDLD,13,1,913,Correct,14,893
14,ZXZDZ,161,2,1371,Correct,14,698
14,ULUFU,162,2,1220,Correct,14,725
14,DPDPG,225,1,1131,Correct,14,889
14,KHKTK,172,2,1114,Correct,14,851
14,ZKZUZ,16,2,1111,Correct,14,831
14,AKALA,162,2,1020,Correct,14,660
14,CNCNC,151,1,944,Correct,14,736
14,PGPGP,9,3,1096,Correct,14,846
14,UPUPU,13,,,Incorrect,14,718
14,FSGWF,233,2,1341,Correct,14,876
14,CACVC,222,2,1378,Correct,14,825
14,FTFTF,151,1,1095,Correct,14,885
14,KFKCK,161,2,1275,Correct,14,731
14,ZEZHZ,183,2,1123,Correct,14,794
14,NSNSN,15,1,1003,Correct,14,890
14,ENENE,152,1,1286,Correct,14,770
14,LXLWG,235,2,1176,Correct,14,674
14,SMSUS,222,2,1064,Correct,14,858
14,ZHZHZ,194,1,1061,Correct,14,812
14,PFPFP,15,1,1170,Correct,14,922
14,BABAB,152,1,1103,Correct,14,740
14,XPXUX,161,2,1074,Correct,14,860
14,ACACA,151,1,1042,Correct,14,779
14,RGRGR,10,3,950,Correct,14,719
14,URURU,13,1,1180,Correct,14,743
14,PKPTP,161,2,1047,Correct,14,886
14,SGSGS,11,3,987,Correct,14,913
14,GZYVY,231,2,1068,Correct,14,908
14,UDUTU,222,2,1281,Correct,14,806
14,VHVHV,195,1,1145,Correct,14,745
14,LWLNL,16,2,1244,Correct,14,722
14,GKPKP,221,1,1254,Correct,14,822
14,SQSPS,222,2,1019,Correct,14,934
14,WNWNW,151,1,1340,Correct,14,775
14,MHMTM,176,2,1228,Incorrect,14,727
14,RZRZR,15,1,1077,Correct,14,943
14,CGCDC,121,2,1016,Incorrect,14,718
15,A,5,3,1109,New Target,15,798
15,WQWEW,161,2,1432,Correct,15,749
15,RWRKR,162,2,1154,Correct,15,704
15,YRYRY,151,1,882,Correct,15,667
15,XOXOX,152,1,1162,Correct,15,853
15,QPQPQ,153,1,987,Correct,15,723
15,TDTDT,154,1,682,Correct,15,727
15,WXWBW,161,2,725,Correct,15,932
15,TATAT,7,3,949,Correct,15,852
15,MCMYM,14,2,788,Correct,15,683
15,SMSFS,162,2,977,Correct,15,729
15,ZLZMZ,163,2,976,Correct,15,873
15,VDVBV,164,2,863,Correct,15,930
15,XCXVX,165,2,616,Correct,15,883
15,LKLBA,235,2,892,Correct,15,752
15,NDNDN,111,1,978,Correct,15,788
15,YGYGY,191,1,740,Correct,15,950
15,VLVLV,15,1,725,Correct,15,651
15,WQWQW,152,1,642,Correct,15,937
15,MAMOM,81,,,Incorrect,15,695
15,YZABY,233,2,1041,Correct,15,689
15,CFCFC,111,1,790,Correct,15,919
15,UTULU,161,2,925,Correct,15,866
15,KPKUK,162,2,874,Correct,15,688
15,TCTQT,163,2,613,Correct,15,816
15,FGFGF,192,1,1129,Correct,15,841
15,RCRYR,16,2,966,Correct,15,856
15,KRKDK,162,2,906,Correct,15,737
15,CRCRC,151,1,882,Correct,15,773
15,WOAOW,223,2,1217,Incorrect,15,748
15,LPLWL,222,2,849,Correct,15,826
15,DGDUD,173,2,1295,Correct,15,778
15,EMEZE,16,2,1034,Correct,15,888
15,DADAD,9,3,1123,Correct,15,948
15,WDWDW,13,1,1084,Correct,15,930
15,AWQWQ,221,1,1240,Correct,15,927
15,TKTQT,222,2,863,Correct,15,831
15,MTMFM,162,2,1357,Correct,15,690
15,KAKAK,10,3,877,Correct,15,948
15,BDBRB,14,2,1181,Correct,15,767
15,QPQPQ,151,1,906,Correct,15,758
15,NDNDN,152,2,1035,Incorrect,15,900
15,QYQGQ,184,2,861,Correct,15,791
15,VPVPV,15,1,625,Correct,15,884
15,RDRDA,225,1,947,Correct,15,762
15,KWKOK,222,2,1230,Correct,15,663
15,TPTPT,151,1,661,Correct,15,852
15,DCDCD,152,1,770,Correct,15,792
15,OWOAO,112,3,959,Correct,15,801
15,ZCZNZ,14,2,996,Correct,15,778
15,MGMGM,195,1,747,Correct,15,781
15,ANLOL,231,2,1534,Correct,15,823
15,DWDPD,222,2,817,Correct,15,742
15,YQYQY,151,1,715,Correct,15,765
15,LGLGL,196,1,906,Correct,15,727
15,VYVLV,16,2,1084,Correct,15,823
15,MVMVM,151,1,1078,Correct,15,723
15,QMQMQ,152,1,669,Correct,15,757
15,SXSXS,153,1,659,Correct,15,829
15,WAWAW,12,3,757,Correct,15,709
16,P,5,3,1704,New Target,16,906
16,FZFBF,161,2,1423,Correct,16,893
16,DYDYD,151,1,1039,Correct,16,919
16,WEWMW,161,2,1014,Correct,16,764
16,XFXFX,151,3,1064,Incorrect,16,891
16,NKNKN,152,,,Incorrect,16,751
16,SPSPS,7,3,1201,Correct,16,801
16,UEUBU,14,2,1149,Correct,16,839
16,SNSVS,162,2,1329,Correct,16,654
16,HAHAH,191,,,Incorrect,16,777
16,NHNHN,15,1,1366,Correct,16,844
16,QZQDP,235,2,1119,Correct,16,674
16,NLNLN,111,1,1074,Correct,16,877
16,EWEWE,152,1,958,Correct,16,884
16,TBTBT,153,1,976,Correct,16,841
16,COCOC,154,1,1124,Correct,16,896
16,BNBNB,155,1,1120,Correct,16,751
16,ZKZLZ,161,2,1482,Correct,16,704
16,XBXYX,162,2,1234,Correct,16,830
16,CUCPC,82,3,1120,Correct,16,791
16,DCDCD,13,1,1358,Correct,16,837
16,SDSDS,152,1,1170,Correct,16,818
16,XAXMX,172,2,1038,Correct,16,858
16,ZCZXZ,16,2,1008,Correct,16,841
16,BRBRB,151,1,1219,Correct,16,827
16,USUSU,152,1,1236,Correct,16,852
16,XPXZX,91,3,1255,Correct,16,708
16,HVHCH,14,2,1151,Correct,16,851
16,XWXHX,162,2,1332,Correct,16,712
16,ZAZAZ,193,1,1373,Correct,16,815
16,NZNZN,15,1,1284,Correct,16,874
16,BQBBB,161,2,1447,Correct,16,912
16,VOVWV,162,2,1319,Correct,16,936
16,ZVZVZ,151,1,1406,Correct,16,780
16,QRQRQ,152,1,1024,Correct,16,861
16,ZXZXP,225,1,954,Correct,16,720
16,ECEZE,222,2,1352,Correct,16,914
16,BEBEB,151,1,1291,Correct,16,912
16,XAXAX,194,1,823,Correct,16,660
16,DXDVD,16,2,1273,Correct,16,735
16,NFNFN,151,1,1137,Correct,16,795
16,KSKSK,152,1,987,Correct,16,881
16,MLMKM,161,2,1321,Correct,16,768
16,QZQHQ,162,2,1180,Correct,16,841
16,YPYKY,101,3,1237,Correct,16,933
16,PXWNW,231,,,Incorrect,16,794
16,ZLZLZ,111,1,1186,Correct,16,889
16,CVCEC,161,2,1202,Correct,16,810
16,XLXYX,162,2,1138,Correct,16,698
16,VAVAV,195,1,1060,Correct,16,785
16,KNPNK,223,1,1285,Correct,16,907
16,VLVMV,222,2,971,Correct,16,871
16,PHSHS,221,1,1366,Correct,16,678
16,QMQBQ,222,2,1011,Correct,16,940
16,TPTPT,11,3,1089,Correct,16,890
16,EWEWE,13,,,Incorrect,16,878
16,ZAZAZ,196,1,1378,Correct,16,671
16,MZMZM,15,1,1458,Correct,16,895
16,TFPMT,233,2,1442,Correct,16,837
16,BABAB,111,1,958,Incorrect,16,934
16,HLHQH,161,2,1197,Correct,16,910
16,DHDKD,162,,,Incorrect,16,754
16,MDMVM,163,2,1405,Correct,16,950
16,RTRPR,122,,,Incorrect,16,744
17,R,5,3,2570,New Target,17,841
17,MSMVM,161,2,1389,Correct,17,885
17,BYBMB,162,2,1541,Correct,17,818
17,WNWMW,163,2,1279,Correct,17,656
17,YHYWY,164,2,1167,Correct,17,933
17,TFTFT,151,1,816,Correct,17,782
17,RTQZQ,231,2,892,Incorrect,17,737
17,BOBNB,222,2,679,Correct,17,829
17,SYSVS,162,2,892,Correct,17,791
17,QOQMQ,163,2,967,Correct,17,782
17,NTNRN,72,2,1190,Incorrect,17,827
17,QLQSQ,14,2,724,Correct,17,835
17,HGHGH,151,1,678,Correct,17,717
17,YPYPY,191,1,1573,Correct,17,827
17,WYWYW,15,1,771,Correct,17,717
17,CFRMC,233,2,1024,Correct,17,826
17,VTVTV,111,1,803,Correct,17,858
17,ZOZOZ,152,1,861,Correct,17,818
17,VGVZV,161,2,1190,Correct,17,787
17,UWUPU,182,,,Incorrect,17,859
17,OHOZO,16,1,718,Incorrect,17,843
17,XOXOX,151,1,656,Correct,17,744
17,KNKNK,152,1,813,Correct,17,858
17,FRFSF,81,3,950,Correct,17,869
17,VFVFV,13,1,999,Correct,17,875
17,BXBKR,235,2,1077,Correct,17,673
17,GRGRG,9,3,1212,Correct,17,753
17,UGUGU,13,1,770,Correct,17,687
17,YXYEY,161,,,Incorrect,17,945
17,KOKOK,151,1,731,Correct,17,929
17,NKNKN,152,1,916,Correct,17,656
17,GSRSG,223,1,772,Correct,17,877
17,BPBPB,193,,,Incorrect,17,779
17,TBTBT,15,1,1012,Correct,17,734
17,XQXQX,152,1,736,Correct,17,716
17,MGMGM,153,1,743,Correct,17,670
17,KNKSK,161,2,909,Correct,17,733
17,MKMKR,225,1,919,Correct,17,794
17,ZFZHZ,222,2,1266,Correct,17,676
17,XTXPX,184,2,1456,Correct,17,823
17,BNBNB,15,1,1220,Correct,17,788
17,WGWTW,161,2,1353,Correct,17,893
17,USUZU,162,2,1253,Correct,17,814
17,EBERE,102,3,969,Correct,17,703
17,ZKZOZ,14,2,1377,Correct,17,698
17,FPFTF,175,2,1116,Correct,17,651
17,CFCFC,15,1,1119,Correct,17,862
17,ZCZCZ,152,1,835,Correct,17,651
17,OLOHO,161,2,1107,Correct,17,868
17,UXUCU,162,2,1171,Correct,17,777
17,RLYLY,221,1,814,Correct,17,851
17,MRMRM,11,1,763,Incorrect,17,855
17,OPOQO,176,2,761,Correct,17,894
17,YXYXY,15,1,693,Correct,17,884
17,FNFBF,161,2,1338,Correct,17,814
17,YKYSY,162,2,1503,Correct,17,919
17,GRGDG,121,,,Incorrect,17,826
18,F,5,3,6115,New Target,18,659
18,OTOEO,161,,,Incorrect,18,929
18,AOAOA,151,1,819,Correct,18,701
18,XGXAX,161,,,Incorrect,18,919
18,ZYZKZ,162,2,1279,Correct,18,946
18,UZUZU,151,1,1007,Correct,18,655
18,NXNEN,161,,,Incorrect,18,885
18,FKQKQ,221,2,887,Incorrect,18,917
18,TMTMT,111,1,903,Correct,18,714
18,KCKNK,161,2,1135,Correct,18,912
18,QLQLQ,151,1,908,Correct,18,874
18,DMDGD,161,2,1138,Correct,18,834
18,WKWHW,162,2,1429,Correct,18,714
18,ZOZOZ,151,1,763,Correct,18,684
18,TFTFT,7,3,1246,Correct,18,665
18,KTKMK,14,2,1011,Correct,18,692
18,VTVTV,151,1,1137,Correct,18,901
18,BFBFB,8,3,1225,Correct,18,661
18,FMQWQ,231,2,1108,Correct,18,800
18,YUYOY,222,2,864,Correct,18,917
18,WKWGW,162,2,1099,Correct,18,889
18,XYXYX,151,1,844,Correct,18,859
18,MWMAM,161,2,1440,Correct,18,871
18,SLFLS,223,1,886,Correct,18,821
18,CXCMC,222,2,782,Correct,18,861
18,QWQWQ,151,1,700,Correct,18,764
18,URURU,191,1,836,Correct,18,885
18,KMKUK,16,,,Incorrect,18,872
18,SKSCS,162,2,790,Correct,18,796
18,YAYFY,92,3,1486,Correct,18,874
18,SWSWS,13,1,706,Correct,18,674
18,NDNDN,152,1,763,Correct,18,911
18,HNHNH,153,1,1143,Correct,18,741
18,WHWHW,154,1,700,Correct,18,768
18,LRLYL,172,2,862,Correct,18,787
18,MOMOM,15,1,736,Correct,18,685
18,TFTFT,10,3,972,Correct,18,814
18,MZMZM,13,1,998,Correct,18,800
18,BMBMB,152,1,763,Correct,18,668
18,XTXBX,161,2,774,Correct,18,909
18,KRKAK,173,2,920,Correct,18,770
18,HMHMH,15,1,1441,Correct,18,721
18,WHWHW,152,1,1427,Correct,18,942
18,QZQYQ,161,2,1582,Correct,18,798
18,VKVKV,151,1,820,Correct,18,737
18,GVGVG,152,1,1501,Correct,18,900
18,LQLQL,153,1,1347,Correct,18,692
18,SEFMS,233,2,1151,Correct,18,730
18,LKLAL,222,2,1116,Correct,18,917
18,UDULU,162,2,1052,Correct,18,804
18,AOAOA,151,1,1019,Correct,18,792
18,XRXRX,194,1,1155,Correct,18,826
18,HGHLF,235,2,1367,Correct,18,772
18,BHBHB,111,1,1066,Correct,18,919
18,GFGQG,111,2,1512,Incorrect,18,884
18,MUMWM,14,2,1420,Correct,18,734
18,BRBZB,175,,,Incorrect,18,916
18,QAQAF,225,1,1178,Correct,18,825
18,YNYBY,222,2,1103,Correct,18,759
18,QLQLQ,151,1,1037,Correct,18,816
18,OXOQO,161,2,1007,Correct,18,774
18,AKACA,162,2,1171,Correct,18,925
18,YRYRY,196,1,1189,Correct,18,743
18,OQOQO,15,1,1511,Correct,18,780
18,YLYFY,122,3,1511,Correct,18,754
19,V,5,3,2024,New Target,19,688
19,NBNKN,161,2,1583,Correct,19,665
19,SUSNS,162,2,1470,Correct,19,897
19,CHCHC,151,1,1051,Correct,19,886
19,LNLNL,152,1,1120,Correct,19,807
19,DGDUD,161,2,1059,Correct,19,655
19,EPEPE,151,1,1295,Correct,19,917
19,LELCL,161,2,950,Correct,19,880
19,MNMLM,162,2,1526,Correct,19,711
19,SUSUS,151,1,1096,Correct,19,678
19,NVNXN,71,3,1141,Correct,19,928
19,YUYUY,13,1,925,Correct,19,875
19,WYWTW,161,2,1507,Correct,19,720
19,XWXWX,151,1,1028,Correct,19,784
19,WYWYW,152,1,1123,Correct,19,946
19,MTMFM,181,,,Incorrect,19,733
19,XMXMX,15,1,1158,Correct,19,657
19,KZKAK,161,2,1326,Correct,19,742
19,WVWSW,81,3,1541,Correct,19,768
19,XAXWX,14,2,1111,Correct,19,738
19,LFLFL,192,1,1352,Correct,19,841
19,VKACA,231,,,Incorrect,19,929
19,LALOL,222,2,1216,Correct,19,887
19,NHNHN,151,1,1027,Correct,19,694
19,PCPCP,152,1,801,Correct,19,818
19,NSNSN,153,1,763,Correct,19,826
19,HDHDH,154,1,1123,Correct,19,939
19,QNQFQ,183,2,1121,Correct,19,744
19,CTCYC,16,2,1120,Correct,19,739
19,BHVGB,233,2,990,Correct,19,755
19,PVPOP,91,3,1364,Correct,19,728
19,BYBYB,13,1,1550,Correct,19,711
19,ATATA,152,1,713,Correct,19,812
19,WZWEW,161,2,1331,Correct,19,664
19,NWVWN,223,1,1096,Correct,19,857
19,PZPNP,222,2,1171,Correct,19,686
19,QSQOQ,162,2,1184,Correct,19,800
19,HZHZH,151,1,1045,Correct,19,667
19,LELKL,161,,,Incorrect,19,842
19,APATA,162,2,961,Correct,19,693
19,NFNFN,194,1,826,Correct,19,807
19,VTUTU,221,1,690,Correct,19,770
19,AVAHA,101,3,1226,Correct,19,682
19,KAKAK,13,1,959,Correct,19,884
19,TDTDT,152,1,1112,Correct,19,661
19,MEMEM,153,1,779,Correct,19,720
19,SOSVS,111,2,789,Incorrect,19,791
19,WGWGW,13,1,1467,Correct,19,668
19,SFSFS,195,1,732,Correct,19,768
19,GSGSG,15,1,894,Correct,19,856
19,CGCOC,161,2,1347,Correct,19,948
19,EYEQE,162,2,1144,Correct,19,890
19,OBONV,235,,,Incorrect,19,750
19,ZKZOZ,222,,,Incorrect,19,778
19,WFWFW,196,1,1379,Correct,19,770
19,ASAGA,16,,,Incorrect,19,912
19,TMTDT,162,2,1032,Correct,19,886
19,KTKTV,225,,,Incorrect,19,935
19,BABGB,222,2,1136,Correct,19,803
19,CVCVC,12,1,1300,Incorrect,19,784
20,C,5,3,1310,New Target,20,738
20,HYHYH,151,1,1467,Correct,20,694
20,RHRHR,152,1,850,Correct,20,824
20,UNUBU,161,2,997,Correct,20,663
20,YUYUY,151,1,680,Correct,20,888
20,LNLNL,152,1,632,Correct,20,832
20,SPSRS,161,2,1346,Correct,20,709
20,QBQUQ,162,2,1434,Correct,20,907
20,MOMSM,163,2,1381,Correct,20,925
20,WYCAW,233,2,1427,Correct,20,867
20,SWSZS,222,2,896,Correct,20,915
20,TGTGT,151,1,615,Correct,20,818
20,ACACA,7,3,928,Correct,20,731
20,XUXUX,13,1,762,Correct,20,791
20,HXHYH,161,2,1509,Correct,20,882
20,BKBUB,162,2,1126,Correct,20,893
20,RBRPC,235,2,838,Correct,20,820
20,DSDSD,111,1,671,Correct,20,761
20,TVTVT,191,1,1009,Correct,20,810
20,STSTS,15,1,919,Correct,20,883
20,XGXGX,152,1,818,Correct,20,664
20,TOTOT,153,2,917,Incorrect,20,926
20,BEBEB,154,1,705,Correct,20,738
20,NTNBN,161,2,1349,Correct,20,773
20,LCLCL,8,3,1025,Correct,20,731
20,ELEDE,14,2,990,Correct,20,679
20,LMLEL,162,2,743,Correct,20,658
20,KTKTK,151,1,1147,Correct,20,807
20,EMECE,92,,,Incorrect,20,938
20,NPNPN,13,1,723,Correct,20,652
20,WMWMW,152,1,799,Correct,20,843
20,OGOPO,161,2,930,Correct,20,713
20,NVNVN,192,1,953,Correct,20,803
20,PNPNP,15,,,Incorrect,20,756
20,OPOBO,161,2,1052,Correct,20,802
20,GPGOG,162,2,1073,Correct,20,758
20,EWEGE,163,,,Incorrect,20,762
20,YVYVY,193,1,1450,Correct,20,759
20,WOWUW,16,2,1025,Correct,20,653
20,RZRZR,151,1,922,Correct,20,746
20,LCLCL,10,3,965,Correct,20,748
20,ERERC,225,1,1157,Correct,20,907
20,GOGKG,222,2,946,Correct,20,948
20,SNSBS,162,2,911,Correct,20,758
20,UHUAU,163,2,1013,Correct,20,874
20,EMENE,164,2,1290,Correct,20,680
20,RVRVR,194,1,760,Correct,20,694
20,WNWNW,15,1,1062,Correct,20,667
20,QZQCQ,112,2,711,Incorrect,20,816
20,WKWKW,13,1,1091,Correct,20,809
20,POCOP,223,1,960,Correct,20,938
20,RARWR,222,2,724,Correct,20,875
20,HVHDH,175,1,1463,Incorrect,20,722
20,CTQAQ,231,2,1051,Correct,20,822
20,DUDND,222,2,920,Correct,20,857
20,YZYSY,162,2,915,Correct,20,815
20,HWHVH,186,2,758,Correct,20,801
20,LHLML,16,2,1064,Correct,20,782
20,DLDLD,151,1,734,Correct,20,733
20,CETET,221,1,937,Correct,20,792
20,RCRHR,121,3,1142,Correct,20,749
