Trial No,Stimulus,Trigger,Response,Response Time(ms),Correct,Block,Fixation Duration
Practice
OT Practice
1,SKSKS,15,1,1435,Correct,0,894
1,DLDUD,16,2,712,Correct,0,751
1,PDPGP,16,2,1031,Correct,0,672
1,MWMWM,15,1,1104,Correct,0,865
1,FTFTF,15,1,814,Correct,0,688
1,AXAMA,16,2,946,Correct,0,879
1,RYRGR,16,2,801,Correct,0,846
1,DODOD,15,1,826,Correct,0,672
1,QTQAQ,16,2,781,Correct,0,866
1,YEYEY,15,1,982,Correct,0,729
DT Practice
1,TKTKT,15,1,733,Correct,0,744
1,SLSUS,16,2,948,Correct,0,823
1,VZVGV,7,[2][3],[1177][1465],Correct,0,838
1,XWXZX,7,[2][3],[1066][1578],Correct,0,686
1,ATATA,15,2,999,False,0,873
1,HXZMH,16,2,980,Correct,0,857
1,TZTZT,7,[1][3],[1154][1378],Correct,0,677
1,UOUOU,15,1,1239,Correct,0,721
1,ZTWAW,16,2,1048,Correct,0,852
1,RZRER,7,[2][3],[1081][1304],Correct,0,949
2,JYJDJ,16,2,1031,Correct,0,928
2,DWDWD,15,1,916,Correct,0,786
2,GNGNG,7,[1][3],[946][1186],Correct,0,894
2,NEZEZ,16,1,908,Correct,0,931
2,RNROR,7,[2][3],[772][1268],Correct,0,834
2,QTQNQ,7,[2][3],[987][1515],Correct,0,756
2,HOHON,15,2,1136,False,0,709
2,KPKGK,16,2,1052,Correct,0,751
2,DRDED,16,2,872,Correct,0,703
2,LNLNL,7,[1][3],[1042][1250],Correct,0,793
Trials
1,D,5,3,57680,New Target,1,947
1,ZNZYZ,161,1,1274,Incorrect,1,786
1,FZFZF,151,2,797,Incorrect,1,944
1,RKRKR,152,2,1020,Incorrect,1,688
1,RXRNR,161,2,1152,Correct,1,733
1,CNCFC,162,2,1039,Correct,1,727
1,PDPDP,7,[1][3],[980][1220],Correct,1,667
1,CPCFC,14,2,870,Correct,1,846
1,VLVNV,162,2,1162,Correct,1,904
1,KFKFK,151,1,1209,Correct,1,715
1,ZNZNZ,152,1,924,Correct,1,949
1,KCKPD,235,2,963,Correct,1,723
1,ZKZFZ,222,2,931,Correct,1,910
1,NRNZN,162,2,859,Correct,1,711
1,KXKRK,163,2,962,Correct,1,819
1,YPYZY,164,2,822,Correct,1,816
1,FKDKF,223,,,Incorrect,1,768
1,RPRPR,113,1,1346,Correct,1,670
1,VRVKV,161,2,866,Correct,1,918
1,RFRPR,162,2,990,Correct,1,730
1,KVKVK,151,1,1370,Correct,1,916
1,YKYVY,161,2,829,Correct,1,813
1,VDVDV,8,[1][3],[823][1063],Correct,1,656
1,DVZVZ,221,2,790,Incorrect,1,754
1,YFYFY,113,1,946,Correct,1,755
1,ZYZYZ,152,1,1146,Correct,1,721
1,VLVXV,161,2,821,Correct,1,862
1,DPXZX,231,2,690,Correct,1,727
1,RYRYR,113,1,1088,Correct,1,768
1,PDPNP,91,[2][3],[983][1351],Correct,1,791
1,KXKXK,13,1,913,Correct,1,668
1,ZYZYZ,152,1,1126,Correct,1,784
1,VKVKV,153,1,973,Correct,1,924
1,YZYZY,154,1,899,Correct,1,767
1,NLNZN,161,2,838,Correct,1,844
1,ZNDYZ,233,2,1356,Correct,1,790
1,PCPXP,222,2,1068,Correct,1,916
1,ZVZFZ,162,2,804,Correct,1,940
1,RCRZR,163,2,811,Correct,1,919
1,LRLRL,151,1,846,Correct,1,933
1,ZDZDZ,10,[1][3],[705][961],Correct,1,726
1,RNRZR,14,2,755,Correct,1,886
1,CXCYC,162,2,738,Correct,1,665
1,RCRLR,163,2,803,Correct,1,708
1,FRFRF,151,1,768,Correct,1,672
1,XFXFX,152,1,799,Correct,1,653
1,RPRLR,161,2,697,Correct,1,828
1,YXYRY,162,2,838,Correct,1,840
1,FYFYF,151,1,1011,Correct,1,717
1,YZYVY,161,2,729,Correct,1,666
1,YKYKY,151,1,897,Correct,1,876
1,XRXRX,152,1,756,Correct,1,857
1,XVXZX,161,2,659,Correct,1,712
1,PDPDP,11,[1][3],[674][929],Correct,1,784
1,ZFZFZ,13,1,1074,Correct,1,752
1,PXPXP,152,1,721,Correct,1,820
1,LYLYL,153,1,761,Correct,1,924
1,NKNKD,225,1,1043,Correct,1,829
1,ZNZNZ,113,1,707,Correct,1,828
1,PYPZP,161,2,767,Correct,1,835
1,XPXPX,151,1,1017,Correct,1,849
1,VLVLV,152,1,776,Correct,1,855
1,PKPXP,161,2,830,Correct,1,868
1,FZFZF,151,1,924,Correct,1,691
1,LDLDL,12,[1][3],[738][1042],Correct,1,747
2,U,5,3,3400,New Target,2,685
2,ZVZFZ,161,1,1241,Incorrect,2,789
2,FZFZF,151,1,849,Correct,2,788
2,RFRFR,152,1,1437,Correct,2,693
2,NZNKN,161,2,784,Correct,2,763
2,FZFNF,162,2,889,Correct,2,828
2,RXRXR,151,1,781,Correct,2,809
2,KRKYK,161,2,843,Correct,2,652
2,NZNPN,162,2,899,Correct,2,829
2,XPXPX,151,1,839,Correct,2,875
2,CUCUC,7,[1][3],[876][1116],Correct,2,932
2,RFRFR,13,1,778,Correct,2,946
2,VYVXV,161,2,672,Correct,2,938
2,VDVDV,191,1,1051,Correct,2,864
2,ZKZRZ,15,2,873,Correct,2,869
2,XCXCX,151,1,628,Correct,2,724
2,CNCUC,82,[2][3],[857][1145],Correct,2,924
2,RCRCR,13,1,897,Correct,2,878
2,ZPZXZ,161,2,754,Correct,2,923
2,FKFYF,162,2,812,Correct,2,812
2,ZFZYZ,163,2,708,Correct,2,872
2,PXPXP,151,1,766,Correct,2,852
2,URCKC,231,2,1013,Correct,2,894
2,PCPCP,113,1,705,Correct,2,934
2,XNXNX,152,1,848,Correct,2,744
2,RCRZR,161,2,667,Correct,2,697
2,XVXVX,151,2,781,Incorrect,2,687
2,NRNRN,152,,,Incorrect,2,878
2,FPFPF,225,1,740,Correct,2,704
2,XVXFX,222,1,1267,Incorrect,2,745
2,PRPRP,151,1,1007,Correct,2,691
2,FYFCF,161,2,837,Correct,2,664
2,XUXFX,91,[2][3],[946][1234],Correct,2,811
2,CYCVC,14,2,1175,Correct,2,928
2,VDVKV,172,2,751,Correct,2,870
2,YCYCY,15,1,983,Correct,2,862
2,NKNLN,161,2,692,Correct,2,937
2,XPUKX,233,2,668,Correct,2,919
2,ZPZPZ,113,1,695,Correct,2,853
2,KRKRK,152,1,897,Correct,2,875
2,XKXKX,153,1,692,Correct,2,903
2,YUYVY,101,[2][3],[931][1218],Correct,2,766
2,XKXFU,235,2,937,Correct,2,660
2,NFNFN,113,1,832,Correct,2,688
2,KDKDK,193,1,663,Correct,2,844
2,XYXKX,16,2,994,Correct,2,900
2,YZUZY,223,1,1074,Correct,2,805
2,KFKVK,222,2,962,Correct,2,821
2,LYLYL,151,1,764,Correct,2,656
2,CXCDC,184,2,791,Incorrect,2,785
2,XZXNX,16,2,876,Correct,2,937
2,PXPXP,151,1,1023,Correct,2,920
2,ZRZYZ,161,2,782,Correct,2,817
2,PUPYP,111,[2][3],[1044][1284],Correct,2,725
2,RNRNR,14,1,1032,Correct,2,791
2,KDKDK,195,1,661,Correct,2,944
2,KNKNK,15,1,711,Correct,2,751
2,PRPKP,161,2,788,Correct,2,793
2,UNYNY,221,1,1122,Correct,2,737
2,NYNYN,113,1,847,Correct,2,768
2,YXYXY,152,1,689,Incorrect,2,929
2,RDRDR,196,1,659,Correct,2,722
2,FCFCF,15,1,556,Correct,2,934
2,ZKZKZ,152,1,686,Correct,2,798
2,ZUZUZ,12,[1][3],[811][1131],Correct,2,715
3,E,5,3,3744,New Target,3,665
3,YZYZY,151,1,989,Correct,3,841
3,VFVNV,161,2,838,Correct,3,676
3,KYKYK,151,1,1116,Correct,3,868
3,NKNKN,152,1,1228,Correct,3,711
3,XVXNX,161,2,820,Correct,3,841
3,RERFR,71,[2][3],[1134][1374],Correct,3,768
3,XNXNX,13,1,1099,Correct,3,754
3,NXNXN,152,1,1564,Correct,3,725
3,ZLZNZ,161,2,803,Correct,3,924
3,CUCNC,171,2,879,Correct,3,684
3,FYFRF,16,1,1455,Incorrect,3,931
3,ZLZLZ,151,1,916,Correct,3,712
3,YZYZY,152,1,898,Correct,3,926
3,CYCYC,153,1,777,Correct,3,752
3,VUVUV,192,1,691,Correct,3,770
3,PXPRP,16,2,828,Correct,3,946
3,YPYPY,151,1,628,Correct,3,810
3,CECEC,8,[2][3],[1088][1424],Incorrect,3,917
3,VNENV,223,1,1450,Correct,3,774
3,KRKFK,222,2,980,Correct,3,934
3,XLXLE,225,1,701,Correct,3,658
3,RFRUR,183,2,980,Correct,3,945
3,XRXLX,16,2,850,Correct,3,903
3,NZNPN,162,2,809,Correct,3,873
3,XZXZX,151,1,838,Correct,3,702
3,FZFZF,152,1,990,Correct,3,770
3,PFPFP,153,1,897,Correct,3,789
3,YZYXY,161,2,706,Correct,3,909
3,KEKEK,9,[1][3],[721][1008],Correct,3,662
3,CXCPC,14,2,835,Correct,3,680
3,VXVXV,151,1,1009,Correct,3,697
3,NUNZN,174,2,814,Correct,3,947
3,RKRVR,16,,,Incorrect,3,847
3,XRXRX,151,1,903,Correct,3,946
3,ERNFN,231,2,880,Incorrect,3,702
3,YRYNY,222,2,727,Correct,3,767
3,PZPEP,102,[2][3],[1317][1573],Correct,3,933
3,ZYZXZ,14,2,831,Correct,3,928
3,RZRVR,162,2,797,Correct,3,664
3,XRXRX,151,1,713,Correct,3,784
3,KUKFK,175,2,915,Correct,3,876
3,RKRKR,15,1,895,Correct,3,662
3,ZFZFZ,152,1,866,Correct,3,909
3,YZYVY,161,1,1010,Incorrect,3,926
3,XPXNX,162,2,735,Correct,3,925
3,YRYRY,151,1,711,Correct,3,875
3,EPVPV,221,1,887,Correct,3,727
3,CRCEC,112,[2][3],[986][1258],Correct,3,922
3,RFRCR,14,2,1072,Correct,3,668
3,CPCVC,162,2,668,Correct,3,876
3,RXRCR,163,2,568,Correct,3,832
3,VNVLV,164,2,709,Correct,3,903
3,ZXZXZ,151,1,960,Correct,3,829
3,ZCZCZ,152,1,899,Correct,3,759
3,PYPUP,186,2,766,Correct,3,680
3,YKYPY,16,2,745,Correct,3,821
3,YREXY,233,2,1174,Correct,3,795
3,ZKZKZ,113,1,789,Correct,3,722
3,XLXNX,161,2,785,Correct,3,743
3,KFKRE,235,2,925,Correct,3,791
3,RXRLR,222,2,759,Correct,3,664
3,RERXR,121,[2],[1148],Incorrect,3,932
4,J,5,3,2242,New Target,4,737
4,CYCVC,161,2,819,Correct,4,662
4,RXRCR,162,2,833,Correct,4,713
4,FPFVF,163,2,980,Correct,4,946
4,LZLZL,151,1,787,Correct,4,831
4,PLPLP,152,1,735,Correct,4,729
4,NPNPN,153,1,648,Correct,4,893
4,XZXZX,161,1,664,Incorrect,4,821
4,CNCKC,162,2,785,Correct,4,898
4,PCPYJ,235,2,861,Correct,4,764
4,VYVYV,113,1,992,Correct,4,947
4,RLRLR,152,1,759,Correct,4,697
4,CJCJC,7,[1][3],[1064][1352],Correct,4,652
4,ZLZLZ,13,1,808,Correct,4,708
4,FZFZF,152,1,758,Correct,4,662
4,CFCFC,153,1,929,Correct,4,794
4,PZPZP,154,1,760,Correct,4,776
4,XEXEX,191,1,706,Correct,4,858
4,NVNFN,16,2,899,Correct,4,705
4,KYKYK,151,1,1153,Correct,4,936
4,ZNZVZ,161,2,782,Correct,4,778
4,YVJXY,233,2,747,Correct,4,678
4,XFXFX,113,1,770,Correct,4,917
4,XNXNX,152,1,713,Correct,4,923
4,FJFKF,81,[2][3],[901][1157],Correct,4,718
4,CZCYC,14,2,751,Correct,4,842
4,ZXZCZ,162,2,733,Correct,4,823
4,RYRYJ,225,2,1155,Incorrect,4,950
4,FPFZF,222,2,740,Correct,4,701
4,XRXRX,151,1,719,Correct,4,782
4,YPYEY,182,2,727,Correct,4,895
4,XRXRX,15,1,933,Correct,4,781
4,XZXPX,161,2,733,Correct,4,689
4,CJCJC,9,[1][3],[877][1181],Correct,4,774
4,ZXZVZ,14,2,767,Correct,4,768
4,VKVKV,151,1,1323,Correct,4,775
4,VEVNV,173,2,903,Correct,4,658
4,ZKZVZ,16,2,764,Correct,4,769
4,XVXJX,102,[2][3],[941][1229],Correct,4,866
4,RXRVR,14,2,1200,Correct,4,915
4,LRLRL,151,1,714,Correct,4,746
4,YNJNY,223,1,813,Correct,4,678
4,NPNJN,222,2,840,Correct,4,666
4,ZEZEZ,194,1,732,Correct,4,904
4,ZNZNZ,15,1,1031,Correct,4,809
4,YZYZY,152,1,1020,Correct,4,730
4,XYXYX,153,1,715,Correct,4,848
4,ZXZXZ,221,1,732,Correct,4,669
4,LYLZL,222,2,865,Correct,4,949
4,CYCNC,162,2,822,Correct,4,838
4,XEXEX,195,1,708,Correct,4,652
4,CVCXC,16,2,711,Correct,4,653
4,ZPZXZ,162,2,871,Correct,4,672
4,FZFZF,151,1,765,Correct,4,797
4,RXRJR,112,[2][3],[972][1324],Correct,4,843
4,PRPFP,14,2,1189,Correct,4,844
4,PKPEP,186,2,718,Correct,4,783
4,XZXPX,16,2,744,Correct,4,906
4,JCZVZ,231,2,1028,Correct,4,756
4,RXRLR,222,2,673,Correct,4,863
4,VZVZV,151,1,727,Correct,4,661
4,XJXJX,12,[1][3],[1194][1466],Correct,4,835
5,I,5,3,2352,New Target,5,674
5,PCPCP,151,1,802,Correct,5,854
5,XYXYX,152,1,696,Correct,5,857
5,VXVXV,153,1,787,Correct,5,876
5,XVXVX,154,1,638,Correct,5,787
5,ZRZXZ,161,2,779,Correct,5,901
5,FPFZF,162,2,776,Correct,5,735
5,ZYZYZ,151,1,746,Correct,5,652
5,RVRZR,161,2,744,Correct,5,678
5,CICIC,7,[1][3],[991][1279],Correct,5,681
5,XLXLX,13,1,809,Correct,5,733
5,YVYVY,152,1,1058,Correct,5,788
5,CJCJC,191,1,665,Correct,5,667
5,FNFCF,16,2,833,Correct,5,924
5,PVPRP,162,2,754,Correct,5,943
5,FZFZF,151,1,797,Correct,5,788
5,NVIVN,223,1,1132,Correct,5,716
5,CVCIC,82,[2][3],[715][987],Correct,5,805
5,ZXZXZ,13,1,913,Correct,5,839
5,FCFZF,161,2,827,Correct,5,725
5,IXRXR,221,1,853,Correct,5,793
5,ZPZNZ,222,2,1122,Correct,5,680
5,VZVZV,151,1,633,Correct,5,939
5,YRYNY,161,2,692,Correct,5,866
5,VNVPV,162,2,771,Correct,5,735
5,RVRJR,182,2,706,Correct,5,668
5,VRVRV,15,1,767,Correct,5,800
5,VIVIV,9,[1][3],[825][1129],Correct,5,901
5,CXCVC,14,2,734,Correct,5,722
5,PZPZP,151,1,727,Correct,5,921
5,IXVKV,231,2,1124,Correct,5,819
5,YJYCY,173,2,821,Incorrect,5,686
5,VYVYV,15,1,907,Correct,5,859
5,YVYVY,152,1,977,Correct,5,742
5,NVNVN,153,1,888,Correct,5,679
5,XYXVX,161,2,791,Correct,5,947
5,NJNCN,174,2,797,Correct,5,850
5,NXNYN,16,2,930,Correct,5,945
5,VXVCV,162,2,673,Correct,5,923
5,ZKZKZ,151,1,871,Correct,5,664
5,XRXYX,161,2,927,Correct,5,752
5,ZCZXZ,162,2,614,Correct,5,697
5,KVKYI,235,2,647,Correct,5,785
5,CNCNC,113,1,686,Correct,5,659
5,RIRIR,10,[1][3],[859][1195],Correct,5,734
5,VYVXV,14,2,749,Correct,5,899
5,FXIRF,233,2,1112,Correct,5,820
5,PFPFP,113,1,866,Correct,5,924
5,VPVPV,152,1,941,Correct,5,668
5,ZJZJZ,195,2,997,Incorrect,5,760
5,ZVZNZ,16,2,833,Correct,5,940
5,YVYXY,162,2,776,Correct,5,837
5,PRPRP,151,1,1042,Correct,5,791
5,YPYPY,152,1,725,Correct,5,731
5,ZIZPZ,111,[2][3],[1185][1441],Correct,5,743
5,NKNXN,14,2,1497,Correct,5,934
5,RZRXR,162,2,712,Correct,5,789
5,RXRXR,151,1,988,Correct,5,653
5,ZJZJZ,196,1,1267,Correct,5,714
5,CVCVI,225,1,1370,Incorrect,5,754
5,NKNKN,113,1,888,Correct,5,916
5,NRNZN,161,2,850,Correct,5,768
5,CNCNC,151,1,774,Correct,5,816
5,RFRIR,122,[2][3],[1213][1564],Correct,5,948
6,B,5,3,1924,New Target,6,701
6,YKYZY,161,2,1172,Correct,6,709
6,VCVRV,162,2,765,Correct,6,884
6,XVXVX,151,1,964,Correct,6,875
6,KZKRK,161,2,936,Correct,6,734
6,ZVZXZ,162,2,938,Correct,6,907
6,RCRNR,163,2,940,Correct,6,805
6,CXCRC,164,2,674,Correct,6,781
6,VNBCV,233,2,767,Correct,6,860
6,CXCVC,222,2,741,Correct,6,906
6,RFRFR,151,1,720,Correct,6,803
6,XPXRX,161,2,1073,Correct,6,711
6,RYRBR,72,[2][3],[956][1308],Correct,6,760
6,ZKZKZ,13,1,709,Correct,6,758
6,FIFRF,171,2,821,Correct,6,728
6,VZVLV,16,2,829,Correct,6,767
6,RPRVR,162,2,724,Correct,6,831
6,YBYBY,8,[1][3],[866][1170],Correct,6,868
6,PYPVP,14,2,1062,Correct,6,745
6,NININ,192,1,756,Correct,6,820
6,RNRNR,15,1,860,Correct,6,865
6,NXNVN,161,2,816,Correct,6,927
6,RNRNR,151,1,750,Correct,6,670
6,FRFVF,161,2,677,Correct,6,920
6,YVYFB,235,2,750,Incorrect,6,923
6,ZRZXZ,222,2,730,Correct,6,798
6,VNVIV,193,2,738,Incorrect,6,881
6,PXPNP,16,2,890,Correct,6,891
6,ZXZPZ,162,2,630,Correct,6,705
6,VBVBV,9,[1][3],[787][1075],Correct,6,750
6,CXCXC,13,1,832,Correct,6,870
6,PCPFP,161,2,779,Correct,6,671
6,KNKNK,151,1,756,Correct,6,907
6,XIXIX,194,1,933,Correct,6,690
6,CYCYC,15,1,649,Correct,6,860
6,FVFYF,161,2,857,Correct,6,763
6,YNYRY,162,2,1014,Correct,6,728
6,BVPXP,231,2,1206,Correct,6,821
6,NXNXN,113,1,800,Correct,6,840
6,FRFRF,152,1,903,Correct,6,893
6,YVYVY,153,1,604,Correct,6,750
6,ZKZCZ,161,2,731,Correct,6,873
6,VIVXV,175,2,772,Correct,6,880
6,PRBRP,223,1,1364,Correct,6,695
6,YZYBY,102,[2][3],[930][1234],Correct,6,896
6,CXCVC,14,2,775,Correct,6,838
6,FYFYF,151,1,868,Correct,6,735
6,VKVXV,161,2,1192,Correct,6,913
6,ZBZBZ,11,[1][3],[776][1016],Correct,6,856
6,FPFNF,14,2,894,Correct,6,653
6,CXCXC,151,1,724,Correct,6,810
6,YCYCY,152,1,812,Correct,6,942
6,FPFPF,153,1,631,Correct,6,738
6,CVCVB,225,1,1476,Correct,6,893
6,ZCZCZ,113,1,652,Correct,6,948
6,CZCNC,161,1,794,Incorrect,6,776
6,KIKFK,176,2,1062,Correct,6,783
6,PXPXP,15,1,839,Correct,6,743
6,RYRYR,152,1,763,Correct,6,937
6,ZRZCZ,161,2,772,Correct,6,847
6,RVRVR,151,1,834,Correct,6,688
6,XYXNX,161,2,741,Correct,6,941
6,BVKVK,221,2,816,Incorrect,6,832
6,CBCBC,12,[1][3],[841][1129],Correct,6,948
7,W,5,3,1921,New Target,7,790
7,RKRKR,151,1,802,Correct,7,754
7,CVCRC,161,2,813,Correct,7,774
7,PKPKP,151,1,789,Correct,7,877
7,FPFPF,152,1,711,Correct,7,949
7,VRVPV,161,2,1155,Correct,7,816
7,ZKZYZ,162,2,970,Correct,7,930
7,PVPCP,233,2,697,Correct,7,851
7,KVKVK,113,1,941,Correct,7,655
7,YXYVY,161,2,1180,Correct,7,931
7,FNFNF,151,1,742,Correct,7,841
7,YWYWY,7,[1][3],[884][1124],Correct,7,887
7,ZYZYZ,13,1,923,Correct,7,708
7,PYPYP,152,1,1295,Correct,7,801
7,XRXRX,153,1,679,Correct,7,841
7,PXPXP,154,1,707,Correct,7,840
7,FCFBF,181,2,772,Correct,7,708
7,FVFVF,15,1,848,Correct,7,718
7,CYCZC,161,2,874,Correct,7,744
7,XZXVX,162,2,845,Correct,7,908
7,PFPFP,151,1,761,Correct,7,675
7,RVRLR,161,2,618,Correct,7,678
7,ZBZBZ,192,1,847,Correct,7,667
7,VCVNV,16,2,724,Correct,7,892
7,NWNWN,8,[1][3],[880][1168],Correct,7,898
7,XNXVX,14,2,978,Correct,7,792
7,CXCNC,162,2,1158,Correct,7,764
7,YVYVW,225,1,1202,Correct,7,748
7,VFVFV,113,1,706,Correct,7,697
7,VFWFV,223,1,1489,Correct,7,778
7,CVCFC,222,2,732,Correct,7,853
7,YBYBY,193,1,741,Correct,7,854
7,PYPYP,15,1,948,Correct,7,652
7,NKNWN,91,[2],[1032],Incorrect,7,727
7,VNVNV,13,1,1262,Correct,7,815
7,RVRVR,152,1,1077,Correct,7,764
7,FVFBF,184,2,872,Incorrect,7,651
7,VZVKV,16,2,735,Correct,7,843
7,VPVCV,162,2,774,Correct,7,924
7,WYZCZ,231,2,974,Correct,7,867
7,PFPFP,113,1,803,Correct,7,743
7,PRPRP,152,1,940,Correct,7,841
7,NWNWN,10,[1][3],[826][1098],Correct,7,906
7,VKVCV,14,2,915,Correct,7,826
7,WPYPY,221,1,868,Correct,7,937
7,VBVBV,195,1,711,Correct,7,931
7,ZKZYZ,16,2,756,Correct,7,826
7,XYXYX,151,1,864,Correct,7,814
7,FZFXF,161,2,727,Correct,7,831
7,XKXKX,151,1,1110,Correct,7,767
7,XPXPX,152,1,1115,Correct,7,663
7,FWFWF,11,[1][3],[1052][1372],Correct,7,676
7,FNFBF,186,2,766,Correct,7,700
7,ZVZYZ,16,2,677,Correct,7,834
7,FZFZF,151,1,831,Correct,7,860
7,NPNFW,235,2,1304,Correct,7,828
7,PCPCP,113,1,946,Correct,7,709
7,NKNWN,122,[2][3],[928][1184],Correct,7,894
8,M,5,3,1442,New Target,8,806
8,VYVNV,161,2,1271,Correct,8,651
8,KLKNK,162,2,882,Correct,8,757
8,NRNRN,151,1,904,Correct,8,768
8,VNVFV,161,2,777,Correct,8,947
8,XNXNM,225,1,935,Correct,8,659
8,CXCVC,222,2,826,Correct,8,892
8,KRKZK,162,2,805,Correct,8,701
8,NMNFN,71,[2][3],[1147][1419],Correct,8,794
8,ZFZFZ,13,1,806,Correct,8,946
8,YPYCY,161,2,798,Correct,8,837
8,KCKCK,151,1,924,Correct,8,652
8,VNVNV,152,1,835,Correct,8,770
8,LXLXL,153,1,792,Correct,8,893
8,CLCLC,154,1,723,Correct,8,766
8,NYNYN,155,1,1043,Correct,8,679
8,LCMYL,233,2,1525,Correct,8,700
8,NCNCN,113,1,805,Correct,8,735
8,ZVZRZ,161,2,716,Correct,8,802
8,ZVZVZ,151,1,1016,Correct,8,808
8,PZPVP,161,2,894,Correct,8,712
8,PWPNP,171,2,1272,Correct,8,674
8,KLKCM,235,2,864,Correct,8,799
8,XMXMX,8,[1][3],[876][1196],Correct,8,792
8,PRPXP,14,2,779,Correct,8,778
8,CVCYC,162,2,777,Correct,8,701
8,PXPMP,92,[2],[727],Incorrect,8,867
8,ZCZLZ,14,2,790,Correct,8,817
8,XWXWX,192,1,1409,Correct,8,741
8,ZCZLZ,16,2,774,Correct,8,734
8,MNCYC,231,2,1029,Correct,8,721
8,ZXZXZ,113,1,901,Correct,8,823
8,YRYNY,161,2,924,Correct,8,711
8,ZLZPZ,162,2,756,Correct,8,735
8,VZVZV,151,1,801,Correct,8,726
8,MXPXP,221,1,1333,Correct,8,948
8,VWVWV,193,1,1201,Correct,8,933
8,PYPYP,16,1,633,Incorrect,8,808
8,XPXVX,162,2,756,Correct,8,901
8,XLXLX,151,1,736,Correct,8,753
8,YMYMY,10,[1][3],[852][1220],Correct,8,675
8,VYVYV,13,1,883,Correct,8,815
8,PWPZP,174,2,798,Correct,8,683
8,PYPKP,16,2,777,Correct,8,744
8,NPNXN,162,2,707,Correct,8,785
8,KVKVK,223,2,638,Incorrect,8,873
8,NVNFN,222,2,868,Correct,8,658
8,XNXNX,151,1,967,Correct,8,873
8,YZYMY,112,[2][3],[869][1157],Correct,8,857
8,PFPFP,13,1,862,Correct,8,784
8,ZWZWZ,195,1,1274,Correct,8,715
8,PCPZP,16,2,847,Correct,8,897
8,LRLPL,162,2,973,Correct,8,652
8,CZCZC,151,1,897,Correct,8,750
8,NZNZN,152,1,1017,Correct,8,775
8,CVCXC,161,2,700,Correct,8,752
8,XCXCX,151,1,604,Correct,8,697
8,YWYWY,196,2,818,Incorrect,8,726
8,NLNLN,15,1,853,Correct,8,927
8,VNVNV,152,1,924,Correct,8,794
8,ZMZMZ,12,[1][3],[1270][1590],Correct,8,751
9,S,5,3,1578,New Target,9,650
9,NZNZN,151,1,928,Correct,9,745
9,KVKZK,161,2,783,Correct,9,933
9,LZLZL,151,1,744,Correct,9,811
9,XLXLX,152,1,830,Correct,9,897
9,ZXZXZ,153,1,709,Correct,9,824
9,KNKZK,161,2,847,Correct,9,885
9,NRNYN,162,2,875,Correct,9,746
9,CLCVC,163,2,821,Correct,9,733
9,ZCZFZ,164,2,682,Correct,9,879
9,NSNSN,7,[1][3],[748][1020],Correct,9,855
9,VZVZV,13,1,826,Correct,9,928
9,NVNCN,161,2,976,Correct,9,856
9,VMVMV,191,1,813,Correct,9,934
9,CVCXC,16,2,754,Correct,9,927
9,ZYZRZ,162,2,685,Correct,9,861
9,XNXZX,163,2,731,Correct,9,814
9,PXPXP,151,1,935,Correct,9,769
9,VCVSV,82,[2][3],[968][1336],Correct,9,710
9,PRPCP,14,2,824,Correct,9,901
9,ZMZMZ,192,1,737,Incorrect,9,769
9,ZFZFZ,15,1,695,Correct,9,936
9,FCFCF,152,1,802,Correct,9,884
9,YLYZY,161,2,751,Correct,9,697
9,KNKVK,162,2,768,Correct,9,668
9,SFPCP,231,2,1451,Correct,9,797
9,RPRPR,113,1,1001,Correct,9,880
9,XMXMX,193,1,698,Correct,9,824
9,KFKFK,15,1,629,Correct,9,850
9,VSVSV,9,[1][3],[763][1067],Correct,9,817
9,YVSVY,223,1,1218,Correct,9,668
9,VPVPV,113,1,1256,Correct,9,790
9,XZXZX,152,1,677,Correct,9,650
9,KZKXK,161,2,833,Correct,9,869
9,RFRPR,162,2,1443,Correct,9,887
9,NVNVS,225,1,1331,Correct,9,921
9,ZXZXZ,113,1,741,Correct,9,882
9,SRVRV,221,1,1074,Correct,9,735
9,YCYCY,113,1,770,Correct,9,743
9,KMKZK,174,2,897,Correct,9,653
9,FZSVF,233,2,1203,Correct,9,904
9,VYVYV,113,1,763,Correct,9,886
9,LVLVL,152,1,811,Correct,9,668
9,YFYFY,153,1,1177,Correct,9,680
9,NXNSN,102,[2],[1497],Incorrect,9,898
9,FNFCF,14,2,866,Correct,9,888
9,KVKVK,151,2,730,Incorrect,9,720
9,VZVCV,161,2,747,Correct,9,695
9,ZYZMZ,185,2,807,Correct,9,756
9,VXVZV,16,2,660,Correct,9,728
9,VPVPV,151,1,704,Correct,9,823
9,RVRNS,235,2,1372,Correct,9,864
9,YZYZY,113,1,785,Correct,9,780
9,ZSZSZ,11,[1][3],[1015][1303],Correct,9,873
9,FRFRF,13,1,811,Correct,9,675
9,ZMZMZ,196,1,1094,Correct,9,794
9,NZNXN,16,2,1110,Correct,9,740
9,LSLFL,121,[2][3],[1098][1354],Correct,9,779
10,Q,5,3,1828,New Target,10,692
10,ZVZPZ,161,2,1514,Correct,10,789
10,RZRZR,151,1,890,Correct,10,731
10,ZFZFZ,152,1,682,Correct,10,917
10,RZRZR,153,1,746,Correct,10,804
10,PZPXP,161,2,787,Correct,10,895
10,VFQPV,233,2,1418,Correct,10,927
10,ZPZRZ,222,2,1177,Correct,10,840
10,CYCVC,162,2,967,Correct,10,737
10,CPCPC,151,1,668,Correct,10,777
10,YZYQY,72,[2][3],[832][1088],Correct,10,771
10,FVFXF,14,2,775,Correct,10,729
10,YNYNQ,225,1,910,Correct,10,873
10,ZYZYZ,113,1,786,Correct,10,907
10,FRFSF,181,2,891,Incorrect,10,733
10,XNXPX,16,2,832,Correct,10,830
10,NXNXN,151,1,1047,Correct,10,800
10,PVPZP,161,2,778,Correct,10,671
10,XVXPX,162,2,759,Correct,10,701
10,FXFVF,163,2,704,Correct,10,913
10,NSNKN,172,2,640,Incorrect,10,723
10,VXVNV,16,2,611,Correct,10,669
10,XZXZX,151,1,805,Correct,10,728
10,VQVQV,8,[1][3],[926][1198],Correct,10,937
10,ZYZPZ,14,2,1309,Correct,10,781
10,PZPSP,183,2,676,Correct,10,755
10,YVYVY,15,1,708,Correct,10,712
10,NCNQN,92,[2][3],[849][1249],Correct,10,774
10,FCFVF,14,2,787,Correct,10,844
10,ZFZFZ,151,1,889,Correct,10,911
10,NSNSN,194,1,702,Correct,10,874
10,YPYFY,16,2,1068,Correct,10,781
10,ZKZKZ,151,1,1020,Correct,10,791
10,QZRCR,231,2,863,Correct,10,747
10,YPYVY,222,2,692,Correct,10,798
10,ZNZNZ,151,1,735,Correct,10,883
10,VQVQV,10,[1][3],[836][1156],Correct,10,938
10,RVRZR,14,2,887,Correct,10,876
10,KRKSK,185,2,715,Correct,10,887
10,NPNPN,15,1,723,Correct,10,893
10,YPYPY,152,1,635,Correct,10,872
10,VCVYV,161,2,714,Correct,10,823
10,FPFNF,162,2,809,Correct,10,711
10,QVXVX,221,2,645,Incorrect,10,791
10,ZVZRZ,222,2,639,Correct,10,922
10,LFLFL,151,1,666,Correct,10,943
10,VLVLV,152,1,708,Correct,10,939
10,KXQXK,223,1,1315,Correct,10,758
10,YQYQY,11,[1][3],[925][1197],Correct,10,664
10,YCYCY,13,1,876,Correct,10,897
10,PZPYP,161,2,723,Correct,10,893
10,LPLFL,162,2,736,Correct,10,774
10,VSVSV,196,1,783,Correct,10,695
10,VFVYQ,235,2,825,Correct,10,847
10,CZCXC,222,2,675,Correct,10,778
10,PVPCP,162,2,691,Correct,10,797
10,CXCXC,151,1,869,Correct,10,664
10,NZNZN,152,1,769,Correct,10,732
10,YPYCY,161,2,797,Correct,10,735
10,ZQZQZ,12,[1][3],[880][1184],Correct,10,720
11,T,5,3,9416,New Target,11,834
11,KFKFK,151,1,729,Correct,11,790
11,LZLZL,152,1,673,Correct,11,892
11,PFPVP,161,2,753,Correct,11,811
11,FRFPF,162,2,1244,Correct,11,762
11,FZFZF,151,1,760,Correct,11,721
11,VTVTV,7,[1][3],[820][1140],Correct,11,931
11,KYKCK,14,2,706,Correct,11,803
11,VPVPV,151,1,632,Correct,11,932
11,XQXQX,191,1,614,Correct,11,839
11,PZPYP,16,2,778,Correct,11,686
11,KXKLK,162,2,776,Correct,11,654
11,TCNCN,221,1,1009,Correct,11,832
11,PZPNP,222,2,1016,Correct,11,689
11,RCRPR,162,2,987,Correct,11,752
11,PZPRT,235,2,701,Correct,11,911
11,XFXVX,222,2,645,Correct,11,883
11,LTLVL,81,[2][3],[1095][1383],Correct,11,770
11,ZCZPZ,14,2,673,Correct,11,832
11,NCNQN,182,2,933,Correct,11,683
11,XZXNX,16,2,812,Correct,11,746
11,ZPZPZ,151,1,903,Correct,11,794
11,CFCFC,152,1,967,Correct,11,915
11,VXTRV,233,2,889,Correct,11,827
11,CFCVC,222,2,862,Correct,11,819
11,PYPYP,151,1,1067,Correct,11,672
11,FQFYF,173,2,1046,Correct,11,878
11,CNCFC,16,2,700,Correct,11,654
11,PTPTP,9,[1][3],[827][1115],Correct,11,772
11,ZCZCZ,13,1,877,Correct,11,862
11,KZKZK,152,1,867,Correct,11,833
11,RLRVR,161,2,927,Correct,11,678
11,ZRZKZ,162,2,711,Correct,11,714
11,KLKLT,225,1,720,Correct,11,916
11,ZQZQZ,194,1,669,Correct,11,814
11,VZVZV,15,1,683,Correct,11,792
11,RVRZR,161,2,694,Correct,11,835
11,ZPZCZ,162,2,815,Correct,11,935
11,VYVYV,151,1,950,Correct,11,933
11,RVRVR,152,1,686,Correct,11,679
11,PTPTP,10,[1][3],[773][1109],Correct,11,685
11,PXPXP,13,1,735,Correct,11,675
11,KCKCK,152,1,690,Correct,11,652
11,YVYVY,153,1,747,Correct,11,909
11,CYCYC,154,1,996,Correct,11,883
11,XCXCX,155,1,684,Correct,11,668
11,CYCQC,185,2,807,Correct,11,892
11,KCKNK,16,2,645,Correct,11,650
11,VPVPV,151,1,688,Correct,11,920
11,TXFZF,231,2,764,Correct,11,889
11,NYNVN,222,2,843,Correct,11,650
11,VQVXV,176,2,641,Correct,11,814
11,ZRZRZ,15,1,845,Correct,11,879
11,VTVZV,111,[2][3],[1007][1327],Correct,11,935
11,PXPVP,14,2,861,Correct,11,816
11,FVFVF,151,1,773,Correct,11,763
11,VRVLV,161,2,972,Correct,11,851
11,YCYCY,151,1,753,Correct,11,809
11,XZTZX,223,1,1138,Correct,11,655
11,VTVTV,12,[1][3],[1129][1593],Correct,11,674
12,O,5,3,1925,New Target,12,779
12,VXVLV,161,2,814,Correct,12,892
12,KVKCK,162,2,739,Correct,12,858
12,VLVLV,151,1,734,Correct,12,798
12,ZCZVZ,161,2,639,Correct,12,678
12,KFKFK,151,1,782,Correct,12,825
12,XKXKX,152,,,Incorrect,12,658
12,YXYXY,153,1,727,Correct,12,868
12,FVFVF,154,1,926,Correct,12,906
12,PVPOP,72,[2][3],[908][1196],Correct,12,770
12,ZXZYZ,14,2,955,Correct,12,742
12,PXPVP,162,2,753,Correct,12,688
12,ZTZTZ,191,1,824,Correct,12,903
12,CVCKC,16,2,769,Correct,12,812
12,CKCKC,151,1,965,Correct,12,909
12,NPNPN,152,1,886,Correct,12,886
12,ZRZNZ,161,2,701,Correct,12,794
12,OZCZC,221,1,1070,Correct,12,688
12,LFLFL,113,1,718,Correct,12,701
12,CXCXC,152,1,880,Correct,12,674
12,KPKPK,153,1,778,Correct,12,659
12,FRFKF,161,2,875,Correct,12,659
12,FOFOF,8,[1][3],[869][1125],Correct,12,744
12,ZFZFZ,13,1,743,Correct,12,895
12,LKLZO,235,2,1189,Correct,12,681
12,KLKZK,222,2,789,Correct,12,710
12,YXYCY,162,2,715,Correct,12,854
12,LOLOL,9,[1][3],[737][961],Correct,12,704
12,XLXLX,13,1,731,Correct,12,705
12,XVXVX,152,1,1159,Correct,12,771
12,FTFTF,192,1,648,Correct,12,685
12,OXNZN,231,2,795,Correct,12,660
12,CZCZC,113,1,816,Correct,12,907
12,LZLZL,152,1,692,Correct,12,873
12,VLVPV,161,2,655,Correct,12,907
12,VYVYO,225,1,989,Correct,12,851
12,XKXKX,113,1,797,Correct,12,859
12,RTRTR,193,1,725,Correct,12,807
12,KVKCK,16,2,820,Correct,12,699
12,ROROR,101,[1][3],[805][1061],Correct,12,894
12,PRPRP,13,1,785,Correct,12,812
12,LYLVL,161,2,601,Correct,12,841
12,PLPLP,151,1,736,Correct,12,694
12,CTCTC,194,1,742,Correct,12,881
12,XZXYX,16,2,823,Correct,12,654
12,NKNKN,151,1,1136,Correct,12,840
12,VLVZV,161,2,769,Correct,12,653
12,YOYOY,11,[1][3],[686][990],Correct,12,916
12,PZOZP,223,1,1153,Correct,12,779
12,FYFYF,113,1,1009,Correct,12,724
12,ZXZVZ,161,2,738,Correct,12,822
12,VKVZV,162,2,925,Correct,12,826
12,ZTZTZ,195,1,660,Correct,12,782
12,LKLZL,16,2,928,Correct,12,832
12,KCKVK,162,2,611,Correct,12,799
12,PXPKP,163,2,777,Correct,12,734
12,KCOZK,233,2,946,Correct,12,842
12,FKFKF,113,1,1013,Correct,12,809
12,CTCRC,176,2,884,Correct,12,843
12,NXNXN,15,1,1098,Correct,12,782
12,KXKVK,161,2,927,Correct,12,663
12,CPCOC,122,[2][3],[858][1146],Correct,12,730
13,H,5,3,2055,New Target,13,694
13,VFVNV,151,2,1042,Incorrect,13,889
13,YVYVY,152,1,908,Correct,13,928
13,XVXVX,153,1,723,Correct,13,765
13,NRNXN,161,2,783,Correct,13,755
13,PZPKP,162,2,812,Correct,13,684
13,HLVLV,221,1,1122,Correct,13,875
13,CXCZC,222,2,894,Correct,13,817
13,LHLYL,71,[2][3],[865][1137],Correct,13,914
13,YKYFY,14,2,884,Correct,13,871
13,YOYRY,171,2,1161,Correct,13,834
13,ZKZYZ,16,2,752,Correct,13,947
13,RZRZR,151,1,1072,Correct,13,675
13,NFNYN,161,2,934,Correct,13,661
13,KVKFK,162,2,791,Correct,13,851
13,XFXYX,163,2,770,Correct,13,760
13,LKLVL,164,2,654,Correct,13,757
13,NLNLN,151,1,728,Correct,13,903
13,XCXOX,182,2,1082,Correct,13,652
13,FXFXF,15,1,869,Correct,13,921
13,VHVHV,8,[1][3],[749][1005],Correct,13,825
13,PVPVP,13,1,832,Correct,13,872
13,CRCXC,161,2,743,Correct,13,806
13,NXNXN,151,1,812,Correct,13,936
13,XRXRX,152,1,679,Correct,13,782
13,YFYXY,161,2,742,Correct,13,827
13,ZOZOZ,193,1,1024,Correct,13,822
13,RZRZR,15,1,959,Correct,13,880
13,FKFKF,152,1,733,Correct,13,940
13,PFPFP,153,1,886,Correct,13,874
13,XYXHX,92,[2][3],[875][1147],Correct,13,694
13,RZRKR,14,2,739,Correct,13,835
13,FLFLH,225,1,654,Correct,13,830
13,KRKRK,113,1,682,Correct,13,893
13,ZVZNZ,161,2,1123,Correct,13,922
13,ZOZOZ,194,1,1100,Correct,13,893
13,FZFZF,15,1,623,Correct,13,683
13,FHFKF,101,[2][3],[1060][1300],Correct,13,708
13,ZXHLZ,233,2,1120,Correct,13,801
13,FKFXF,222,2,721,Correct,13,655
13,CFCYC,162,2,785,Correct,13,750
13,ZXZVZ,163,2,709,Correct,13,901
13,KCKOK,185,2,1043,Correct,13,765
13,ZXZVH,235,2,950,Correct,13,718
13,CKCKC,113,1,892,Correct,13,672
13,ZXZCZ,161,2,1093,Correct,13,678
13,YVYVY,151,1,880,Correct,13,875
13,RVHVR,223,1,1162,Correct,13,702
13,ZRZRZ,113,1,742,Correct,13,835
13,ZHZHZ,11,[1][3],[969][1513],Correct,13,783
13,VZVZV,13,1,786,Correct,13,948
13,HZVRV,231,2,878,Correct,13,791
13,FVFVF,113,1,1070,Correct,13,942
13,RNRCR,161,2,685,Correct,13,821
13,COCOC,196,1,716,Correct,13,757
13,VNVXV,16,2,782,Correct,13,672
13,XHXHX,12,[1][3],[771][1043],Correct,13,701
14,G,5,3,3934,New Target,14,808
14,FZFZF,151,,,Incorrect,14,936
14,RPRVR,161,2,803,Correct,14,702
14,XCXCX,151,1,703,Correct,14,686
14,YXYXY,152,1,1167,Correct,14,718
14,KZKZK,153,1,735,Correct,14,687
14,RYRKR,161,2,828,Correct,14,780
14,FYFNF,162,2,939,Correct,14,669
14,VKVKV,151,1,818,Correct,14,713
14,KPGPK,223,1,1050,Correct,14,793
14,YNYNY,113,1,875,Correct,14,792
14,VYVYV,152,1,849,Correct,14,777
14,YCYXY,161,2,744,Correct,14,846
14,LKLGL,72,[2][3],[923][1275],Correct,14,934
14,VXVXV,13,1,762,Correct,14,925
14,KCKVK,161,2,756,Correct,14,839
14,YKYKY,151,1,753,Correct,14,741
14,RHRXR,171,2,1055,Correct,14,687
14,FVFCF,16,2,754,Correct,14,661
14,YXYGY,82,[2][3],[925][1197],Correct,14,904
14,CLCLC,13,1,854,Correct,14,930
14,ZXZCZ,161,2,954,Correct,14,929
14,VLVFV,162,2,915,Correct,14,670
14,CPCPG,225,1,1251,Correct,14,897
14,KHKNK,172,2,960,Correct,14,660
14,ZKZVZ,16,2,821,Correct,14,745
14,YKYLY,162,2,768,Correct,14,730
14,CNCNC,151,1,669,Correct,14,717
14,PGPGP,9,[1][3],[927][1199],Correct,14,782
14,VPVPV,13,1,751,Correct,14,781
14,FXGRF,233,2,1115,Correct,14,820
14,CYCVC,222,2,851,Correct,14,930
14,FNFNF,151,1,776,Correct,14,852
14,KFKCK,161,2,804,Correct,14,755
14,ZFZHZ,183,2,711,Correct,14,905
14,NXNXN,15,1,984,Correct,14,727
14,FNFNF,152,1,1025,Correct,14,657
14,LXLNG,235,2,854,Correct,14,725
14,XKXVX,222,2,909,Correct,14,813
14,ZHZHZ,194,1,948,Correct,14,794
14,PFPFP,15,1,1146,Correct,14,698
14,ZYZYZ,152,1,948,Correct,14,890
14,XPXVX,161,2,721,Correct,14,906
14,YCYCY,151,1,938,Correct,14,938
14,RGRGR,10,[1][3],[827][1147],Correct,14,693
14,VRVRV,13,1,696,Correct,14,883
14,PKPNP,161,2,1156,Correct,14,869
14,XGXGX,11,[1][3],[697][1017],Correct,14,793
14,GZYVY,231,2,750,Correct,14,660
14,VCVNV,222,2,802,Correct,14,924
14,VHVHV,195,1,752,Correct,14,652
14,LXLNL,16,2,847,Correct,14,678
14,GKPKP,221,1,887,Correct,14,720
14,XRXPX,222,2,1375,Correct,14,773
14,XNXNX,151,1,723,Correct,14,756
14,KHKNK,176,2,896,Incorrect,14,801
14,RZRZR,15,1,932,Correct,14,888
14,CGCFC,121,[2][3],[1009][1313],Correct,14,771
15,A,5,3,1364,New Target,15,667
15,XRXFX,161,2,1346,Correct,15,651
15,RXRKR,162,2,812,Correct,15,679
15,YRYRY,151,1,754,Correct,15,873
15,XPXPX,152,1,1134,Correct,15,784
15,RPRPR,153,1,1168,Correct,15,720
15,NCNCN,154,1,681,Correct,15,829
15,RXRZR,161,2,743,Correct,15,846
15,NANAN,7,[1][3],[795][1131],Correct,15,673
15,KCKYK,14,2,767,Correct,15,712
15,XKXFX,162,2,1143,Correct,15,861
15,ZLZKZ,163,2,744,Correct,15,675
15,VCVZV,164,2,599,Correct,15,661
15,XCXVX,165,2,603,Correct,15,738
15,LKLZA,235,2,1117,Correct,15,813
15,NCNCN,113,1,757,Correct,15,888
15,YGYGY,191,1,942,Correct,15,905
15,VLVLV,15,1,788,Correct,15,746
15,XRXRX,152,1,657,Correct,15,698
15,KAKPK,81,[2][3],[1268][1571],Correct,15,867
15,YZAZY,233,1,1160,Incorrect,15,694
15,CFCFC,113,1,740,Correct,15,789
15,VNVLV,161,2,859,Correct,15,852
15,KPKVK,162,2,772,Correct,15,711
15,NCNRN,163,2,620,Correct,15,831
15,FGFGF,192,1,665,Correct,15,854
15,RCRYR,16,2,675,Correct,15,914
15,KRKCK,162,2,687,Correct,15,946
15,CRCRC,151,1,806,Correct,15,902
15,XPAPX,223,1,1035,Correct,15,930
15,LPLXL,222,2,858,Correct,15,867
15,CGCVC,173,2,857,Correct,15,656
15,FKFZF,16,2,661,Correct,15,653
15,CACAC,9,[1][3],[827][1147],Correct,15,656
15,XCXCX,13,1,779,Correct,15,882
15,AXRXR,221,1,929,Correct,15,915
15,NKNRN,222,2,1015,Correct,15,764
15,KNKFK,162,2,764,Correct,15,712
15,KAKAK,10,[1][3],[719][1055],Correct,15,665
15,ZCZRZ,14,2,1063,Correct,15,660
15,RPRPR,151,1,1303,Correct,15,759
15,NCNCN,152,1,701,Correct,15,783
15,RYRGR,184,2,697,Correct,15,808
15,VPVPV,15,1,675,Correct,15,897
15,RCRCA,225,1,760,Correct,15,677
15,KXKPK,222,2,700,Correct,15,946
15,NPNPN,151,1,644,Correct,15,898
15,YCYCY,152,1,565,Correct,15,797
15,PXPAP,112,[2][3],[729][1049],Correct,15,742
15,ZCZNZ,14,1,674,Incorrect,15,875
15,KYKGK,185,2,743,Correct,15,662
15,ANLPL,231,2,1188,Correct,15,746
15,CXCPC,222,2,750,Correct,15,825
15,YRYRY,151,1,1191,Correct,15,798
15,LGLGL,196,1,664,Correct,15,679
15,VYVLV,16,2,676,Correct,15,921
15,KVKVK,151,1,1180,Correct,15,912
15,RKRKR,152,1,729,Correct,15,804
15,VXVXV,153,1,728,Correct,15,717
15,XAXAX,12,[1][3],[939][1227],Correct,15,662
