Trial No,Stimulus,Trigger,Response,Response Time(ms),Correct,Block,Fixation Duration
Practice
OT Practice
1,SKSKS,15,1,879,Correct,0,751
1,DLDUD,16,2,644,Correct,0,742
1,PDPGP,16,2,819,Correct,0,733
1,MWMWM,15,1,833,Correct,0,914
1,FTFTF,15,1,697,Correct,0,697
1,AXAMA,16,2,855,Correct,0,740
1,RYRGR,16,2,790,Correct,0,912
1,DODOD,15,1,700,Correct,0,799
1,QTQAQ,16,2,661,Correct,0,856
1,YEYEY,15,1,616,Correct,0,662
AT Practice
1,TKTKT,15,1,1024,Correct,0,756
1,SLSUS,16,2,638,Correct,0,844
1,VZVGV,7,3,704,Correct,0,658
1,XWXZX,7,3,919,Correct,0,906
1,ATATA,15,1,677,Correct,0,928
1,HXZMH,16,2,643,Correct,0,747
1,TZTZT,7,3,510,Correct,0,836
1,UOUOU,15,1,687,Correct,0,804
1,ZTWAW,16,2,856,Correct,0,791
1,RZRER,7,2,701,False,0,751
2,JYJDJ,16,2,742,Correct,0,816
2,DWDWD,15,1,818,Correct,0,771
2,GNGNG,7,3,751,Correct,0,824
2,NEZEZ,16,1,1038,Correct,0,740
2,RNROR,7,3,904,Correct,0,881
2,QTQNQ,7,3,521,Correct,0,650
2,HOHON,15,1,643,Correct,0,710
2,KPKGK,16,2,555,Correct,0,901
2,DRDED,16,2,673,Correct,0,782
2,LNLNL,7,3,566,Correct,0,822
Trials
1,D,5,3,11826,New Target,1,947
1,ZNZYZ,161,2,1522,Correct,1,675
1,FZFZF,151,1,1009,Correct,1,696
1,RKRKR,152,1,863,Correct,1,837
1,RXRNR,161,2,968,Correct,1,768
1,CNCFC,162,2,855,Correct,1,829
1,PDPDP,7,3,833,Correct,1,666
1,CPCFC,14,2,925,Correct,1,744
1,VLVNV,162,2,778,Correct,1,909
1,KFKFK,151,1,742,Correct,1,836
1,ZNZNZ,152,1,988,Correct,1,890
1,KCKPD,235,2,727,Correct,1,825
1,ZKZFZ,222,2,764,Correct,1,798
1,NRNZN,162,2,709,Correct,1,767
1,KXKRK,163,2,620,Correct,1,811
1,YPYZY,164,2,606,Correct,1,888
1,FKDKF,223,2,1025,Incorrect,1,699
1,RPRPR,113,1,1157,Correct,1,701
1,VRVKV,161,2,721,Correct,1,827
1,RFRPR,162,2,717,Correct,1,860
1,KVKVK,151,1,883,Correct,1,858
1,YKYVY,161,2,712,Correct,1,947
1,VDVDV,8,3,833,Correct,1,782
1,DVZVZ,221,1,1254,Correct,1,883
1,YFYFY,113,1,731,Correct,1,868
1,ZYZYZ,152,1,873,Correct,1,731
1,VLVXV,161,2,753,Correct,1,772
1,DPXZX,231,2,1230,Correct,1,778
1,RYRYR,113,1,867,Correct,1,942
1,PDPNP,91,3,540,Correct,1,702
1,KXKXK,13,1,675,Correct,1,746
1,ZYZYZ,152,1,799,Correct,1,905
1,VKVKV,153,1,669,Correct,1,699
1,YZYZY,154,1,542,Correct,1,682
1,NLNZN,161,2,703,Correct,1,835
1,ZNDYZ,233,2,1085,Correct,1,784
1,PCPXP,222,2,607,Correct,1,761
1,ZVZFZ,162,2,699,Correct,1,864
1,RCRZR,163,2,609,Correct,1,650
1,LRLRL,151,1,771,Correct,1,662
1,ZDZDZ,10,3,667,Correct,1,735
1,RNRZR,14,2,688,Correct,1,696
1,CXCYC,162,2,589,Correct,1,856
1,RCRLR,163,2,526,Correct,1,788
1,FRFRF,151,1,753,Correct,1,818
1,XFXFX,152,1,715,Correct,1,840
1,RPRLR,161,2,645,Correct,1,881
1,YXYRY,162,2,725,Correct,1,683
1,FYFYF,151,1,773,Correct,1,768
1,YZYVY,161,2,812,Correct,1,750
1,YKYKY,151,1,924,Correct,1,680
1,XRXRX,152,1,740,Correct,1,876
1,XVXZX,161,2,841,Correct,1,765
1,PDPDP,11,3,686,Correct,1,897
1,ZFZFZ,13,1,696,Correct,1,857
1,PXPXP,152,1,681,Correct,1,739
1,LYLYL,153,1,584,Correct,1,775
1,NKNKD,225,1,808,Correct,1,799
1,ZNZNZ,113,1,526,Correct,1,884
1,PYPZP,161,2,660,Correct,1,703
1,XPXPX,151,1,503,Correct,1,731
1,VLVLV,152,1,573,Correct,1,896
1,PKPXP,161,2,729,Correct,1,824
1,FZFZF,151,1,546,Correct,1,941
1,LDLDL,12,3,694,Correct,1,763
2,U,5,3,2957,New Target,2,787
2,ZVZFZ,161,1,685,Incorrect,2,795
2,FZFZF,151,20,592,Incorrect,2,901
2,RFRFR,152,1,968,Correct,2,863
2,NZNKN,161,2,810,Correct,2,807
2,FZFNF,162,2,1537,Correct,2,664
2,RXRXR,151,1,589,Correct,2,676
2,KRKYK,161,2,682,Correct,2,809
2,NZNPN,162,2,722,Correct,2,795
2,XPXPX,151,1,597,Correct,2,916
2,CUCUC,7,3,675,Correct,2,776
2,RFRFR,13,2,582,Incorrect,2,825
2,VYVXV,161,2,915,Correct,2,791
2,VDVDV,191,1,1345,Correct,2,871
2,ZKZRZ,15,2,630,Correct,2,701
2,XCXCX,151,1,625,Correct,2,697
2,CNCUC,82,3,461,Correct,2,804
2,RCRCR,13,1,757,Correct,2,703
2,ZPZXZ,161,2,579,Correct,2,886
2,FKFYF,162,2,770,Correct,2,764
2,ZFZYZ,163,2,763,Correct,2,784
2,PXPXP,151,1,726,Correct,2,665
2,URCKC,231,2,683,Correct,2,839
2,PCPCP,113,1,580,Correct,2,827
2,XNXNX,152,1,695,Correct,2,713
2,RCRZR,161,2,581,Correct,2,708
2,XVXVX,151,1,545,Correct,2,713
2,NRNRN,152,1,573,Correct,2,919
2,FPFPF,225,1,670,Correct,2,669
2,XVXFX,222,2,588,Correct,2,727
2,PRPRP,151,1,1141,Correct,2,908
2,FYFCF,161,2,678,Correct,2,937
2,XUXFX,91,1,684,Incorrect,2,891
2,CYCVC,14,2,969,Correct,2,662
2,VDVKV,172,2,1061,Correct,2,883
2,YCYCY,15,1,707,Correct,2,692
2,NKNLN,161,2,568,Correct,2,872
2,XPUKX,233,2,1120,Correct,2,943
2,ZPZPZ,113,1,659,Correct,2,865
2,KRKRK,152,1,828,Correct,2,809
2,XKXKX,153,1,1013,Correct,2,710
2,YUYVY,101,3,513,Correct,2,830
2,XKXFU,235,2,656,Correct,2,753
2,NFNFN,113,1,689,Correct,2,696
2,KDKDK,193,1,1108,Correct,2,820
2,XYXKX,16,2,681,Correct,2,897
2,YZUZY,223,1,1092,Correct,2,712
2,KFKVK,222,2,708,Correct,2,750
2,LYLYL,151,1,888,Correct,2,872
2,CXCDC,184,2,606,Incorrect,2,671
2,XZXNX,16,2,616,Correct,2,895
2,PXPXP,151,1,915,Correct,2,706
2,ZRZYZ,161,2,613,Correct,2,722
2,PUPYP,111,3,779,Correct,2,913
2,RNRNR,14,1,811,Correct,2,948
2,KDKDK,195,1,932,Correct,2,730
2,KNKNK,15,1,658,Correct,2,797
2,PRPKP,161,2,923,Correct,2,760
2,UNYNY,221,1,620,Correct,2,795
2,NYNYN,113,1,935,Correct,2,762
2,YXYXY,152,1,554,Incorrect,2,656
2,RDRDR,196,1,971,Correct,2,749
2,FCFCF,15,1,909,Correct,2,700
2,ZKZKZ,152,1,717,Correct,2,850
2,ZUZUZ,12,3,714,Correct,2,669
3,E,5,3,4052,New Target,3,658
3,YZYZY,151,1,1044,Correct,3,726
3,VFVNV,161,2,688,Correct,3,849
3,KYKYK,151,1,811,Correct,3,705
3,NKNKN,152,1,642,Correct,3,670
3,XVXNX,161,2,821,Correct,3,653
3,RERFR,71,3,824,Correct,3,787
3,XNXNX,13,1,821,Correct,3,858
3,NXNXN,152,1,749,Correct,3,752
3,ZLZNZ,161,2,625,Correct,3,836
3,CUCNC,171,2,1371,Correct,3,720
3,FYFRF,16,2,615,Correct,3,870
3,ZLZLZ,151,1,675,Correct,3,869
3,YZYZY,152,1,934,Correct,3,926
3,CYCYC,153,1,707,Correct,3,858
3,VUVUV,192,1,952,Correct,3,844
3,PXPRP,16,2,634,Correct,3,749
3,YPYPY,151,1,645,Correct,3,778
3,CECEC,8,3,667,Correct,3,943
3,VNENV,223,1,774,Correct,3,782
3,KRKFK,222,2,653,Correct,3,713
3,XLXLE,225,1,666,Correct,3,674
3,RFRUR,183,2,1208,Correct,3,682
3,XRXLX,16,2,815,Correct,3,762
3,NZNPN,162,2,752,Correct,3,923
3,XZXZX,151,1,640,Correct,3,656
3,FZFZF,152,1,597,Correct,3,893
3,PFPFP,153,1,578,Correct,3,748
3,YZYXY,161,2,641,Correct,3,853
3,KEKEK,9,3,509,Correct,3,771
3,CXCPC,14,2,540,Correct,3,802
3,VXVXV,151,1,648,Correct,3,831
3,NUNZN,174,2,1059,Correct,3,821
3,RKRVR,16,2,740,Correct,3,660
3,XRXRX,151,1,590,Correct,3,772
3,ERNFN,231,2,1001,Incorrect,3,715
3,YRYNY,222,2,663,Correct,3,853
3,PZPEP,102,3,814,Correct,3,883
3,ZYZXZ,14,2,658,Correct,3,759
3,RZRVR,162,2,698,Correct,3,899
3,XRXRX,151,1,597,Correct,3,725
3,KUKFK,175,,,Incorrect,3,761
3,RKRKR,15,1,1179,Correct,3,724
3,ZFZFZ,152,1,659,Correct,3,844
3,YZYVY,161,2,698,Correct,3,862
3,XPXNX,162,2,586,Correct,3,935
3,YRYRY,151,1,501,Correct,3,943
3,EPVPV,221,2,597,Incorrect,3,714
3,CRCEC,112,3,814,Correct,3,872
3,RFRCR,14,2,713,Correct,3,679
3,CPCVC,162,2,717,Correct,3,853
3,RXRCR,163,2,663,Correct,3,652
3,VNVLV,164,2,760,Correct,3,669
3,ZXZXZ,151,1,628,Correct,3,726
3,ZCZCZ,152,1,655,Correct,3,821
3,PYPUP,186,2,694,Correct,3,821
3,YKYPY,16,2,633,Correct,3,940
3,YREXY,233,2,847,Correct,3,897
3,ZKZKZ,113,1,903,Correct,3,672
3,XLXNX,161,2,538,Correct,3,806
3,KFKRE,235,2,629,Correct,3,873
3,RXRLR,222,2,652,Correct,3,866
3,RERXR,121,3,662,Correct,3,795
4,J,5,3,1849,New Target,4,910
4,CYCVC,161,2,746,Correct,4,840
4,RXRCR,162,2,691,Correct,4,703
4,FPFVF,163,2,640,Correct,4,727
4,LZLZL,151,1,685,Correct,4,786
4,PLPLP,152,1,648,Correct,4,673
4,NPNPN,153,1,825,Correct,4,749
4,XZXZX,161,1,556,Incorrect,4,665
4,CNCKC,162,2,637,Correct,4,678
4,PCPYJ,235,2,1003,Correct,4,682
4,VYVYV,113,1,559,Correct,4,684
4,RLRLR,152,1,533,Correct,4,921
4,CJCJC,7,3,640,Correct,4,934
4,ZLZLZ,13,1,604,Correct,4,771
4,FZFZF,152,1,501,Correct,4,775
4,CFCFC,153,1,497,Correct,4,899
4,PZPZP,154,1,531,Correct,4,790
4,XEXEX,191,1,542,Correct,4,916
4,NVNFN,16,2,766,Correct,4,746
4,KYKYK,151,1,628,Correct,4,763
4,ZNZVZ,161,2,698,Correct,4,917
4,YVJXY,233,2,991,Correct,4,812
4,XFXFX,113,1,776,Correct,4,910
4,XNXNX,152,2,496,Incorrect,4,804
4,FJFKF,81,3,705,Correct,4,820
4,CZCYC,14,2,620,Correct,4,692
4,ZXZCZ,162,2,692,Correct,4,858
4,RYRYJ,225,2,756,Incorrect,4,676
4,FPFZF,222,2,668,Correct,4,680
4,XRXRX,151,1,553,Correct,4,674
4,YPYEY,182,2,1174,Correct,4,879
4,XRXRX,15,1,747,Correct,4,780
4,XZXPX,161,2,638,Correct,4,930
4,CJCJC,9,3,743,Correct,4,766
4,ZXZVZ,14,2,590,Correct,4,888
4,VKVKV,151,1,722,Correct,4,936
4,VEVNV,173,2,626,Correct,4,911
4,ZKZVZ,16,2,722,Correct,4,695
4,XVXJX,102,3,568,Correct,4,839
4,RXRVR,14,2,596,Correct,4,826
4,LRLRL,151,1,639,Correct,4,781
4,YNJNY,223,1,686,Correct,4,656
4,NPNJN,222,3,962,Incorrect,4,889
4,ZEZEZ,194,1,686,Correct,4,829
4,ZNZNZ,15,1,570,Correct,4,747
4,YZYZY,152,1,533,Correct,4,810
4,XYXYX,153,1,487,Correct,4,698
4,ZXZXZ,221,1,640,Correct,4,912
4,LYLZL,222,2,963,Correct,4,655
4,CYCNC,162,2,1039,Correct,4,761
4,XEXEX,195,1,569,Correct,4,813
4,CVCXC,16,2,787,Correct,4,939
4,ZPZXZ,162,2,888,Correct,4,772
4,FZFZF,151,1,562,Correct,4,945
4,RXRJR,112,3,556,Correct,4,803
4,PRPFP,14,2,910,Correct,4,722
4,PKPEP,186,2,598,Correct,4,655
4,XZXPX,16,2,593,Correct,4,758
4,JCZVZ,231,2,730,Correct,4,886
4,RXRLR,222,2,521,Correct,4,705
4,VZVZV,151,1,534,Correct,4,737
4,XJXJX,12,3,873,Correct,4,719
5,I,5,3,4601,New Target,5,874
5,PCPCP,151,1,584,Correct,5,682
5,XYXYX,152,1,560,Correct,5,854
5,VXVXV,153,1,731,Correct,5,938
5,XVXVX,154,1,562,Correct,5,802
5,ZRZXZ,161,2,645,Correct,5,662
5,FPFZF,162,2,648,Correct,5,915
5,ZYZYZ,151,1,552,Correct,5,660
5,RVRZR,161,2,615,Correct,5,791
5,CICIC,7,3,432,Correct,5,810
5,XLXLX,13,2,935,Incorrect,5,717
5,YVYVY,152,1,549,Correct,5,790
5,CJCJC,191,1,1214,Correct,5,938
5,FNFCF,16,2,693,Correct,5,709
5,PVPRP,162,2,723,Correct,5,775
5,FZFZF,151,1,595,Correct,5,923
5,NVIVN,223,1,1152,Correct,5,718
5,CVCIC,82,3,673,Correct,5,899
5,ZXZXZ,13,1,749,Correct,5,786
5,FCFZF,161,2,782,Correct,5,933
5,IXRXR,221,1,626,Correct,5,893
5,ZPZNZ,222,2,684,Correct,5,773
5,VZVZV,151,1,587,Correct,5,653
5,YRYNY,161,2,762,Correct,5,696
5,VNVPV,162,2,868,Correct,5,693
5,RVRJR,182,2,951,Correct,5,771
5,VRVRV,15,1,551,Correct,5,681
5,VIVIV,9,3,550,Correct,5,746
5,CXCVC,14,2,917,Correct,5,789
5,PZPZP,151,1,547,Correct,5,880
5,IXVKV,231,2,943,Correct,5,781
5,YJYCY,173,2,893,Incorrect,5,937
5,VYVYV,15,1,590,Correct,5,758
5,YVYVY,152,1,693,Correct,5,871
5,NVNVN,153,1,1314,Correct,5,700
5,XYXVX,161,2,751,Correct,5,888
5,NJNCN,174,2,1110,Correct,5,768
5,NXNYN,16,2,700,Correct,5,871
5,VXVCV,162,2,1293,Correct,5,933
5,ZKZKZ,151,1,622,Correct,5,869
5,XRXYX,161,2,618,Correct,5,765
5,ZCZXZ,162,2,545,Correct,5,860
5,KVKYI,235,2,883,Correct,5,663
5,CNCNC,113,1,597,Correct,5,716
5,RIRIR,10,3,726,Correct,5,671
5,VYVXV,14,2,559,Correct,5,699
5,FXIRF,233,2,497,Correct,5,694
5,PFPFP,113,1,620,Correct,5,931
5,VPVPV,152,1,507,Correct,5,744
5,ZJZJZ,195,2,724,Incorrect,5,881
5,ZVZNZ,16,2,891,Correct,5,848
5,YVYXY,162,2,730,Correct,5,841
5,PRPRP,151,1,927,Correct,5,853
5,YPYPY,152,1,928,Correct,5,728
5,ZIZPZ,111,3,687,Correct,5,904
5,NKNXN,14,2,1218,Correct,5,934
5,RZRXR,162,2,646,Correct,5,950
5,RXRXR,151,1,684,Correct,5,808
5,ZJZJZ,196,1,1351,Correct,5,758
5,CVCVI,225,1,903,Incorrect,5,748
5,NKNKN,113,1,616,Correct,5,808
5,NRNZN,161,2,562,Correct,5,824
5,CNCNC,151,1,484,Correct,5,733
5,RFRIR,122,2,531,Incorrect,5,772
6,B,5,3,3981,New Target,6,751
6,YKYZY,161,2,1147,Correct,6,887
6,VCVRV,162,2,798,Correct,6,886
6,XVXVX,151,1,537,Correct,6,715
6,KZKRK,161,2,667,Correct,6,717
6,ZVZXZ,162,2,577,Correct,6,828
6,RCRNR,163,2,494,Correct,6,730
6,CXCRC,164,2,566,Correct,6,750
6,VNBCV,233,2,854,Correct,6,715
6,CXCVC,222,2,585,Correct,6,698
6,RFRFR,151,2,469,Incorrect,6,886
6,XPXRX,161,2,1092,Correct,6,781
6,RYRBR,72,3,990,Correct,6,703
6,ZKZKZ,13,1,713,Correct,6,889
6,FIFRF,171,3,867,Incorrect,6,650
6,VZVLV,16,2,741,Correct,6,787
6,RPRVR,162,2,983,Correct,6,909
6,YBYBY,8,3,663,Correct,6,782
6,PYPVP,14,2,784,Correct,6,783
6,NININ,192,1,1376,Correct,6,892
6,RNRNR,15,1,702,Correct,6,864
6,NXNVN,161,2,917,Correct,6,752
6,RNRNR,151,1,699,Correct,6,662
6,FRFVF,161,2,703,Correct,6,927
6,YVYFB,235,2,838,Incorrect,6,800
6,ZRZXZ,222,2,1008,Correct,6,653
6,VNVIV,193,2,863,Incorrect,6,678
6,PXPNP,16,2,620,Correct,6,901
6,ZXZPZ,162,2,822,Correct,6,854
6,VBVBV,9,3,619,Correct,6,705
6,CXCXC,13,1,861,Correct,6,692
6,PCPFP,161,2,799,Correct,6,737
6,KNKNK,151,1,502,Correct,6,707
6,XIXIX,194,1,1075,Correct,6,777
6,CYCYC,15,1,713,Correct,6,889
6,FVFYF,161,1,884,Incorrect,6,747
6,YNYRY,162,2,787,Correct,6,848
6,BVPXP,231,2,772,Correct,6,928
6,NXNXN,113,1,830,Correct,6,935
6,FRFRF,152,1,1003,Correct,6,689
6,YVYVY,153,1,827,Correct,6,706
6,ZKZCZ,161,2,542,Correct,6,837
6,VIVXV,175,2,680,Correct,6,856
6,PRBRP,223,2,1054,Incorrect,6,930
6,YZYBY,102,3,1340,Correct,6,691
6,CXCVC,14,2,728,Correct,6,861
6,FYFYF,151,1,650,Correct,6,913
6,VKVXV,161,2,774,Correct,6,767
6,ZBZBZ,11,3,745,Correct,6,847
6,FPFNF,14,2,548,Correct,6,689
6,CXCXC,151,1,593,Correct,6,852
6,YCYCY,152,1,1082,Correct,6,822
6,FPFPF,153,1,600,Correct,6,664
6,CVCVB,225,1,774,Correct,6,692
6,ZCZCZ,113,1,800,Correct,6,757
6,CZCNC,161,2,689,Correct,6,862
6,KIKFK,176,2,1085,Correct,6,702
6,PXPXP,15,1,688,Correct,6,903
6,RYRYR,152,1,624,Correct,6,673
6,ZRZCZ,161,2,642,Correct,6,681
6,RVRVR,151,2,621,Incorrect,6,769
6,XYXNX,161,2,615,Correct,6,814
6,BVKVK,221,1,816,Correct,6,850
6,CBCBC,12,3,551,Correct,6,711
7,W,5,3,4144,New Target,7,748
7,RKRKR,151,1,642,Correct,7,660
7,CVCRC,161,2,702,Correct,7,749
7,PKPKP,151,1,707,Correct,7,842
7,FPFPF,152,1,713,Correct,7,905
7,VRVPV,161,1,724,Incorrect,7,760
7,ZKZYZ,162,2,620,Correct,7,712
7,PVPCP,233,2,582,Correct,7,815
7,KVKVK,113,1,959,Correct,7,881
7,YXYVY,161,2,941,Correct,7,760
7,FNFNF,151,1,639,Correct,7,777
7,YWYWY,7,3,470,Correct,7,872
7,ZYZYZ,13,1,528,Correct,7,916
7,PYPYP,152,1,610,Correct,7,824
7,XRXRX,153,1,574,Correct,7,754
7,PXPXP,154,1,494,Correct,7,661
7,FCFBF,181,2,570,Correct,7,906
7,FVFVF,15,1,424,Correct,7,858
7,CYCZC,161,2,536,Correct,7,827
7,XZXVX,162,2,569,Correct,7,757
7,PFPFP,151,1,469,Correct,7,822
7,RVRLR,161,2,566,Correct,7,783
7,ZBZBZ,192,1,513,Correct,7,824
7,VCVNV,16,2,670,Correct,7,941
7,NWNWN,8,3,491,Correct,7,771
7,XNXVX,14,2,601,Correct,7,870
7,CXCNC,162,2,564,Correct,7,890
7,YVYVW,225,1,808,Correct,7,932
7,VFVFV,113,1,585,Correct,7,885
7,VFWFV,223,2,768,Incorrect,7,896
7,CVCFC,222,2,984,Correct,7,727
7,YBYBY,193,1,1094,Correct,7,858
7,PYPYP,15,1,718,Correct,7,753
7,NKNWN,91,3,889,Correct,7,782
7,VNVNV,13,1,681,Correct,7,888
7,RVRVR,152,1,789,Correct,7,689
7,FVFBF,184,2,1147,Incorrect,7,728
7,VZVKV,16,2,1044,Correct,7,771
7,VPVCV,162,2,654,Correct,7,887
7,WYZCZ,231,2,576,Correct,7,654
7,PFPFP,113,1,665,Correct,7,873
7,PRPRP,152,1,1119,Correct,7,863
7,NWNWN,10,3,1425,Correct,7,937
7,VKVCV,14,2,682,Correct,7,862
7,WPYPY,221,1,1384,Correct,7,667
7,VBVBV,195,1,821,Correct,7,767
7,ZKZYZ,16,2,642,Correct,7,927
7,XYXYX,151,1,673,Correct,7,736
7,FZFXF,161,2,661,Correct,7,896
7,XKXKX,151,1,708,Correct,7,660
7,XPXPX,152,1,433,Correct,7,719
7,FWFWF,11,3,493,Correct,7,909
7,FNFBF,186,2,770,Correct,7,667
7,ZVZYZ,16,2,645,Correct,7,818
7,FZFZF,151,1,430,Correct,7,918
7,NPNFW,235,2,791,Correct,7,662
7,PCPCP,113,1,701,Correct,7,735
7,NKNWN,122,2,708,Incorrect,7,795
8,M,5,3,4467,New Target,8,685
8,VYVNV,161,2,740,Correct,8,689
8,KLKNK,162,2,687,Correct,8,746
8,NRNRN,151,1,693,Correct,8,911
8,VNVFV,161,2,656,Correct,8,729
8,XNXNM,225,1,726,Correct,8,924
8,CXCVC,222,2,522,Correct,8,863
8,KRKZK,162,2,602,Correct,8,663
8,NMNFN,71,3,727,Correct,8,816
8,ZFZFZ,13,1,785,Correct,8,698
8,YPYCY,161,2,647,Correct,8,710
8,KCKCK,151,1,500,Correct,8,667
8,VNVNV,152,1,707,Correct,8,907
8,LXLXL,153,2,466,Incorrect,8,940
8,CLCLC,154,1,529,Correct,8,830
8,NYNYN,155,1,751,Correct,8,812
8,LCMYL,233,2,1064,Correct,8,696
8,NCNCN,113,1,557,Correct,8,933
8,ZVZRZ,161,2,1483,Correct,8,792
8,ZVZVZ,151,1,805,Correct,8,797
8,PZPVP,161,2,653,Correct,8,669
8,PWPNP,171,2,1353,Correct,8,654
8,KLKCM,235,2,598,Correct,8,858
8,XMXMX,8,3,503,Correct,8,760
8,PRPXP,14,2,623,Correct,8,925
8,CVCYC,162,2,929,Correct,8,694
8,PXPMP,92,3,815,Correct,8,773
8,ZCZLZ,14,2,547,Correct,8,722
8,XWXWX,192,2,979,Incorrect,8,777
8,ZCZLZ,16,2,646,Correct,8,685
8,MNCYC,231,2,1277,Correct,8,927
8,ZXZXZ,113,1,763,Correct,8,877
8,YRYNY,161,2,560,Correct,8,805
8,ZLZPZ,162,2,572,Correct,8,877
8,VZVZV,151,1,694,Correct,8,800
8,MXPXP,221,1,1234,Correct,8,740
8,VWVWV,193,1,1108,Correct,8,788
8,PYPYP,16,1,583,Incorrect,8,918
8,XPXVX,162,2,662,Correct,8,702
8,XLXLX,151,1,636,Correct,8,947
8,YMYMY,10,3,1132,Correct,8,679
8,VYVYV,13,1,591,Correct,8,865
8,PWPZP,174,2,541,Correct,8,768
8,PYPKP,16,2,690,Correct,8,676
8,NPNXN,162,2,819,Correct,8,853
8,KVKVK,223,1,838,Correct,8,802
8,NVNFN,222,2,536,Correct,8,922
8,XNXNX,151,1,712,Correct,8,662
8,YZYMY,112,3,692,Correct,8,669
8,PFPFP,13,1,603,Correct,8,931
8,ZWZWZ,195,1,976,Correct,8,876
8,PCPZP,16,2,625,Correct,8,699
8,LRLPL,162,2,906,Correct,8,869
8,CZCZC,151,1,636,Correct,8,767
8,NZNZN,152,1,1053,Correct,8,946
8,CVCXC,161,2,596,Correct,8,918
8,XCXCX,151,1,615,Correct,8,655
8,YWYWY,196,2,607,Incorrect,8,854
8,NLNLN,15,1,568,Correct,8,872
8,VNVNV,152,1,695,Correct,8,734
8,ZMZMZ,12,3,460,Correct,8,889
9,S,5,3,1582,New Target,9,795
9,NZNZN,151,1,745,Correct,9,713
9,KVKZK,161,2,641,Correct,9,824
9,LZLZL,151,2,508,Correct,9,706
9,XLXLX,152,1,578,Correct,9,662
9,ZXZXZ,153,1,673,Correct,9,787
9,KNKZK,161,2,725,Correct,9,910
9,NRNYN,162,2,715,Correct,9,868
9,CLCVC,163,2,838,Correct,9,665
9,ZCZFZ,164,2,605,Correct,9,771
9,NSNSN,7,3,706,Correct,9,943
9,VZVZV,13,1,634,Correct,9,811
9,NVNCN,161,2,816,Correct,9,909
9,VMVMV,191,,,Incorrect,9,845
9,CVCXC,16,2,988,Correct,9,742
9,ZYZRZ,162,2,950,Correct,9,897
9,XNXZX,163,2,707,Correct,9,823
9,PXPXP,151,2,509,Incorrect,9,736
9,VCVSV,82,3,768,Correct,9,725
9,PRPCP,14,2,763,Correct,9,783
9,ZMZMZ,192,1,1027,Incorrect,9,701
9,ZFZFZ,15,1,607,Correct,9,716
9,FCFCF,152,1,491,Correct,9,806
9,YLYZY,161,2,592,Correct,9,677
9,KNKVK,162,2,629,Correct,9,932
9,SFPCP,231,2,1317,Correct,9,719
9,RPRPR,113,1,1185,Correct,9,906
9,XMXMX,193,1,1292,Correct,9,667
9,KFKFK,15,1,846,Correct,9,829
9,VSVSV,9,3,736,Correct,9,733
9,YVSVY,223,1,837,Correct,9,834
9,VPVPV,113,1,537,Correct,9,680
9,XZXZX,152,1,536,Correct,9,825
9,KZKXK,161,2,856,Correct,9,770
9,RFRPR,162,2,774,Correct,9,886
9,NVNVS,225,1,729,Correct,9,814
9,ZXZXZ,113,1,621,Correct,9,943
9,SRVRV,221,1,1097,Correct,9,716
9,YCYCY,113,1,497,Correct,9,818
9,KMKZK,174,2,955,Correct,9,917
9,FZSVF,233,2,1539,Correct,9,946
9,VYVYV,113,1,499,Correct,9,671
9,LVLVL,152,1,501,Correct,9,701
9,YFYFY,153,1,858,Correct,9,658
9,NXNSN,102,3,924,Correct,9,783
9,FNFCF,14,2,739,Correct,9,688
9,KVKVK,151,1,600,Correct,9,814
9,VZVCV,161,2,658,Correct,9,893
9,ZYZMZ,185,2,650,Correct,9,837
9,VXVZV,16,2,625,Correct,9,749
9,VPVPV,151,1,493,Correct,9,791
9,RVRNS,235,2,793,Correct,9,921
9,YZYZY,113,1,576,Correct,9,720
9,ZSZSZ,11,3,636,Correct,9,776
9,FRFRF,13,1,503,Correct,9,774
9,ZMZMZ,196,1,940,Correct,9,659
9,NZNXN,16,2,600,Correct,9,888
9,LSLFL,121,3,740,Correct,9,713
10,Q,5,3,1224,New Target,10,704
10,ZVZPZ,161,2,555,Correct,10,795
10,RZRZR,151,1,837,Correct,10,883
10,ZFZFZ,152,1,757,Correct,10,834
10,RZRZR,153,1,559,Correct,10,664
10,PZPXP,161,2,744,Correct,10,897
10,VFQPV,233,2,987,Correct,10,804
10,ZPZRZ,222,2,654,Correct,10,752
10,CYCVC,162,2,714,Correct,10,742
10,CPCPC,151,1,742,Correct,10,785
10,YZYQY,72,3,520,Correct,10,899
10,FVFXF,14,2,549,Correct,10,852
10,YNYNQ,225,1,722,Correct,10,899
10,ZYZYZ,113,1,604,Correct,10,739
10,FRFSF,181,2,1101,Incorrect,10,665
10,XNXPX,16,2,787,Correct,10,914
10,NXNXN,151,1,792,Correct,10,744
10,PVPZP,161,2,1178,Correct,10,867
10,XVXPX,162,2,655,Correct,10,871
10,FXFVF,163,2,619,Correct,10,731
10,NSNKN,172,2,1048,Incorrect,10,786
10,VXVNV,16,2,547,Correct,10,755
10,XZXZX,151,1,596,Correct,10,656
10,VQVQV,8,3,654,Correct,10,909
10,ZYZPZ,14,2,534,Correct,10,861
10,PZPSP,183,2,802,Correct,10,861
10,YVYVY,15,1,680,Correct,10,818
10,NCNQN,92,3,720,Correct,10,769
10,FCFVF,14,2,555,Correct,10,713
10,ZFZFZ,151,1,692,Correct,10,894
10,NSNSN,194,1,1157,Correct,10,665
10,YPYFY,16,2,720,Correct,10,705
10,ZKZKZ,151,1,732,Correct,10,717
10,QZRCR,231,2,1255,Correct,10,663
10,YPYVY,222,2,670,Correct,10,696
10,ZNZNZ,151,1,795,Correct,10,708
10,VQVQV,10,3,859,Correct,10,950
10,RVRZR,14,2,1055,Correct,10,760
10,KRKSK,185,1,980,Incorrect,10,878
10,NPNPN,15,1,573,Correct,10,930
10,YPYPY,152,1,528,Correct,10,737
10,VCVYV,161,2,631,Correct,10,845
10,FPFNF,162,2,664,Correct,10,733
10,QVXVX,221,1,972,Correct,10,853
10,ZVZRZ,222,2,719,Correct,10,712
10,LFLFL,151,1,615,Correct,10,738
10,VLVLV,152,1,630,Correct,10,770
10,KXQXK,223,1,959,Correct,10,837
10,YQYQY,11,3,1009,Correct,10,722
10,YCYCY,13,1,587,Correct,10,891
10,PZPYP,161,2,697,Correct,10,720
10,LPLFL,162,2,601,Correct,10,659
10,VSVSV,196,1,516,Correct,10,811
10,VFVYQ,235,2,631,Correct,10,762
10,CZCXC,222,2,833,Correct,10,828
10,PVPCP,162,2,825,Correct,10,699
10,CXCXC,151,1,744,Correct,10,942
10,NZNZN,152,1,670,Correct,10,789
10,YPYCY,161,2,706,Correct,10,933
10,ZQZQZ,12,3,762,Correct,10,779
11,T,5,3,2297,New Target,11,943
11,KFKFK,151,1,818,Correct,11,728
11,LZLZL,152,1,652,Correct,11,693
11,PFPVP,161,2,807,Correct,11,779
11,FRFPF,162,2,687,Correct,11,715
11,FZFZF,151,1,615,Correct,11,757
11,VTVTV,7,3,660,Correct,11,789
11,KYKCK,14,2,574,Correct,11,789
11,VPVPV,151,1,598,Correct,11,862
11,XQXQX,191,1,1027,Correct,11,849
11,PZPYP,16,2,649,Correct,11,935
11,KXKLK,162,2,803,Correct,11,832
11,TCNCN,221,1,814,Correct,11,673
11,PZPNP,222,2,719,Correct,11,902
11,RCRPR,162,2,668,Correct,11,664
11,PZPRT,235,2,1025,Correct,11,882
11,XFXVX,222,2,777,Correct,11,919
11,LTLVL,81,3,962,Correct,11,746
11,ZCZPZ,14,2,1200,Correct,11,839
11,NCNQN,182,2,799,Correct,11,882
11,XZXNX,16,2,561,Correct,11,780
11,ZPZPZ,151,1,507,Correct,11,843
11,CFCFC,152,1,574,Correct,11,778
11,VXTRV,233,2,522,Correct,11,792
11,CFCVC,222,2,536,Correct,11,784
11,PYPYP,151,1,861,Correct,11,684
11,FQFYF,173,2,1022,Correct,11,828
11,CNCFC,16,2,597,Correct,11,911
11,PTPTP,9,1,625,Incorrect,11,792
11,ZCZCZ,13,1,682,Correct,11,837
11,KZKZK,152,1,684,Correct,11,945
11,RLRVR,161,2,587,Correct,11,678
11,ZRZKZ,162,2,651,Correct,11,732
11,KLKLT,225,1,1152,Correct,11,927
11,ZQZQZ,194,1,597,Correct,11,807
11,VZVZV,15,1,508,Correct,11,936
11,RVRZR,161,2,938,Correct,11,854
11,ZPZCZ,162,2,696,Correct,11,834
11,VYVYV,151,1,656,Correct,11,866
11,RVRVR,152,1,577,Correct,11,866
11,PTPTP,10,3,781,Correct,11,928
11,PXPXP,13,1,865,Correct,11,847
11,KCKCK,152,1,578,Correct,11,776
11,YVYVY,153,1,614,Correct,11,665
11,CYCYC,154,1,501,Correct,11,703
11,XCXCX,155,1,516,Correct,11,778
11,CYCQC,185,2,594,Correct,11,837
11,KCKNK,16,2,707,Correct,11,751
11,VPVPV,151,1,809,Correct,11,793
11,TXFZF,231,2,667,Correct,11,879
11,NYNVN,222,2,572,Correct,11,653
11,VQVXV,176,1,581,Incorrect,11,948
11,ZRZRZ,15,1,658,Correct,11,806
11,VTVZV,111,3,695,Correct,11,820
11,PXPVP,14,2,576,Correct,11,810
11,FVFVF,151,1,572,Correct,11,870
11,VRVLV,161,2,532,Correct,11,860
11,YCYCY,151,1,647,Correct,11,687
11,XZTZX,223,1,838,Correct,11,728
11,VTVTV,12,3,678,Correct,11,766
12,O,5,3,1343,New Target,12,673
12,VXVLV,161,2,970,Correct,12,887
12,KVKCK,162,2,795,Correct,12,703
12,VLVLV,151,1,785,Correct,12,793
12,ZCZVZ,161,2,597,Correct,12,809
12,KFKFK,151,1,962,Correct,12,717
12,XKXKX,152,1,667,Correct,12,875
12,YXYXY,153,1,637,Correct,12,655
12,FVFVF,154,1,583,Correct,12,785
12,PVPOP,72,3,816,Correct,12,892
12,ZXZYZ,14,2,649,Correct,12,722
12,PXPVP,162,2,677,Correct,12,729
12,ZTZTZ,191,1,944,Correct,12,742
12,CVCKC,16,2,987,Correct,12,880
12,CKCKC,151,1,789,Correct,12,880
12,NPNPN,152,1,704,Correct,12,726
12,ZRZNZ,161,2,699,Correct,12,701
12,OZCZC,221,1,1249,Correct,12,769
12,LFLFL,113,1,701,Correct,12,668
12,CXCXC,152,1,1014,Correct,12,761
12,KPKPK,153,1,867,Correct,12,774
12,FRFKF,161,,,Incorrect,12,772
12,FOFOF,8,3,830,Correct,12,787
12,ZFZFZ,13,1,798,Correct,12,913
12,LKLZO,235,2,968,Correct,12,657
12,KLKZK,222,2,1051,Correct,12,682
12,YXYCY,162,2,1137,Correct,12,938
12,LOLOL,9,3,796,Correct,12,730
12,XLXLX,13,1,1152,Correct,12,853
12,XVXVX,152,1,782,Correct,12,884
12,FTFTF,192,1,934,Correct,12,683
12,OXNZN,231,2,998,Correct,12,812
12,CZCZC,113,1,711,Correct,12,652
12,LZLZL,152,1,567,Correct,12,931
12,VLVPV,161,2,552,Correct,12,711
12,VYVYO,225,2,522,Incorrect,12,653
12,XKXKX,113,1,601,Correct,12,907
12,RTRTR,193,1,937,Correct,12,662
12,KVKCK,16,2,596,Correct,12,865
12,ROROR,101,3,561,Correct,12,795
12,PRPRP,13,1,836,Correct,12,697
12,LYLVL,161,2,616,Correct,12,726
12,PLPLP,151,1,600,Correct,12,670
12,CTCTC,194,1,741,Correct,12,738
12,XZXYX,16,2,732,Correct,12,807
12,NKNKN,151,1,813,Correct,12,948
12,VLVZV,161,2,796,Correct,12,946
12,YOYOY,11,3,1374,Correct,12,857
12,PZOZP,223,1,813,Correct,12,793
12,FYFYF,113,1,668,Correct,12,896
12,ZXZVZ,161,2,484,Correct,12,860
12,VKVZV,162,2,597,Correct,12,768
12,ZTZTZ,195,1,798,Correct,12,787
12,LKLZL,16,2,558,Correct,12,908
12,KCKVK,162,2,542,Correct,12,768
12,PXPKP,163,2,701,Correct,12,841
12,KCOZK,233,2,789,Correct,12,862
12,FKFKF,113,1,749,Correct,12,668
12,CTCRC,176,2,852,Correct,12,707
12,NXNXN,15,1,1021,Correct,12,691
12,KXKVK,161,2,581,Correct,12,906
12,CPCOC,122,3,981,Correct,12,732
13,H,5,3,4347,New Target,13,902
13,VFVNV,151,2,723,Incorrect,13,685
13,YVYVY,152,1,813,Correct,13,823
13,XVXVX,153,1,621,Correct,13,893
13,NRNXN,161,2,808,Correct,13,770
13,PZPKP,162,2,640,Correct,13,689
13,HLVLV,221,1,1086,Correct,13,678
13,CXCZC,222,2,536,Correct,13,762
13,LHLYL,71,3,545,Correct,13,896
13,YKYFY,14,2,777,Correct,13,923
13,YOYRY,171,2,704,Correct,13,830
13,ZKZYZ,16,2,712,Correct,13,774
13,RZRZR,151,1,704,Correct,13,819
13,NFNYN,161,2,686,Correct,13,657
13,KVKFK,162,2,863,Correct,13,650
13,XFXYX,163,2,971,Correct,13,872
13,LKLVL,164,2,1113,Correct,13,802
13,NLNLN,151,1,1245,Correct,13,865
13,XCXOX,182,2,1458,Correct,13,752
13,FXFXF,15,1,558,Correct,13,822
13,VHVHV,8,20,1538,Incorrect,13,675
13,PVPVP,13,1,872,Correct,13,853
13,CRCXC,161,2,1578,Correct,13,688
13,NXNXN,151,1,606,Correct,13,904
13,XRXRX,152,1,912,Correct,13,651
13,YFYXY,161,2,603,Correct,13,950
13,ZOZOZ,193,1,1064,Correct,13,697
13,RZRZR,15,1,742,Correct,13,693
13,FKFKF,152,1,665,Correct,13,877
13,PFPFP,153,1,464,Correct,13,885
13,XYXHX,92,2,631,Incorrect,13,650
13,RZRKR,14,2,563,Correct,13,786
13,FLFLH,225,1,1313,Correct,13,803
13,KRKRK,113,1,579,Correct,13,804
13,ZVZNZ,161,2,542,Correct,13,940
13,ZOZOZ,194,1,825,Correct,13,754
13,FZFZF,15,1,499,Correct,13,663
13,FHFKF,101,3,654,Correct,13,880
13,ZXHLZ,233,2,985,Correct,13,722
13,FKFXF,222,2,697,Correct,13,771
13,CFCYC,162,2,842,Correct,13,946
13,ZXZVZ,163,2,797,Correct,13,894
13,KCKOK,185,2,701,Correct,13,935
13,ZXZVH,235,2,392,Correct,13,711
13,CKCKC,113,2,586,Incorrect,13,760
13,ZXZCZ,161,2,549,Correct,13,883
13,YVYVY,151,1,1045,Correct,13,778
13,RVHVR,223,1,1204,Correct,13,684
13,ZRZRZ,113,1,1141,Correct,13,912
13,ZHZHZ,11,3,1088,Correct,13,717
13,VZVZV,13,1,1337,Correct,13,794
13,HZVRV,231,2,1248,Correct,13,697
13,FVFVF,113,1,628,Correct,13,667
13,RNRCR,161,2,561,Correct,13,730
13,COCOC,196,1,1084,Correct,13,873
13,VNVXV,16,2,730,Correct,13,786
13,XHXHX,12,3,1274,Correct,13,915
14,G,5,3,1514,New Target,14,856
14,FZFZF,151,1,768,Correct,14,657
14,RPRVR,161,2,734,Correct,14,911
14,XCXCX,151,1,563,Correct,14,866
14,YXYXY,152,1,603,Correct,14,903
14,KZKZK,153,1,595,Correct,14,846
14,RYRKR,161,2,910,Correct,14,815
14,FYFNF,162,2,607,Correct,14,773
14,VKVKV,151,1,1082,Correct,14,779
14,KPGPK,223,1,1206,Correct,14,770
14,YNYNY,113,1,635,Correct,14,741
14,VYVYV,152,3,805,Incorrect,14,806
14,YCYXY,161,2,718,Correct,14,697
14,LKLGL,72,3,693,Correct,14,806
14,VXVXV,13,1,684,Correct,14,892
14,KCKVK,161,2,553,Correct,14,780
14,YKYKY,151,1,662,Correct,14,751
14,RHRXR,171,2,852,Correct,14,728
14,FVFCF,16,2,550,Correct,14,816
14,YXYGY,82,2,611,Incorrect,14,763
14,CLCLC,13,1,531,Correct,14,713
14,ZXZCZ,161,2,535,Correct,14,668
14,VLVFV,162,2,536,Correct,14,750
14,CPCPG,225,1,989,Correct,14,654
14,KHKNK,172,2,892,Correct,14,686
14,ZKZVZ,16,2,724,Correct,14,681
14,YKYLY,162,2,764,Correct,14,803
14,CNCNC,151,1,894,Correct,14,803
14,PGPGP,9,3,727,Correct,14,672
14,VPVPV,13,1,543,Correct,14,736
14,FXGRF,233,2,667,Correct,14,747
14,CYCVC,222,2,690,Correct,14,906
14,FNFNF,151,1,544,Correct,14,678
14,KFKCK,161,2,541,Correct,14,901
14,ZFZHZ,183,2,599,Correct,14,894
14,NXNXN,15,1,692,Correct,14,746
14,FNFNF,152,1,536,Correct,14,918
14,LXLNG,235,2,459,Correct,14,687
14,XKXVX,222,2,689,Correct,14,658
14,ZHZHZ,194,1,663,Correct,14,802
14,PFPFP,15,1,1138,Correct,14,791
14,ZYZYZ,152,1,647,Correct,14,761
14,XPXVX,161,2,705,Correct,14,802
14,YCYCY,151,1,824,Correct,14,856
14,RGRGR,10,3,507,Correct,14,912
14,VRVRV,13,1,550,Correct,14,866
14,PKPNP,161,2,886,Correct,14,722
14,XGXGX,11,3,709,Correct,14,855
14,GZYVY,231,2,671,Correct,14,743
14,VCVNV,222,2,665,Correct,14,820
14,VHVHV,195,1,609,Correct,14,891
14,LXLNL,16,2,1148,Correct,14,775
14,GKPKP,221,1,712,Correct,14,738
14,XRXPX,222,1,1137,Incorrect,14,724
14,XNXNX,151,1,583,Correct,14,850
14,KHKNK,176,2,642,Incorrect,14,780
14,RZRZR,15,1,749,Correct,14,774
14,CGCFC,121,,,Incorrect,14,695
15,A,5,3,1680,New Target,15,912
15,XRXFX,161,2,801,Correct,15,869
15,RXRKR,162,2,866,Correct,15,893
15,YRYRY,151,1,679,Correct,15,794
15,XPXPX,152,1,547,Correct,15,671
15,RPRPR,153,1,670,Correct,15,909
15,NCNCN,154,1,673,Correct,15,934
15,RXRZR,161,2,612,Correct,15,920
15,NANAN,7,3,595,Correct,15,662
15,KCKYK,14,2,1296,Correct,15,727
15,XKXFX,162,2,1250,Correct,15,876
15,ZLZKZ,163,2,690,Correct,15,866
15,VCVZV,164,2,958,Correct,15,688
15,XCXVX,165,2,713,Correct,15,900
15,LKLZA,235,2,718,Correct,15,823
15,NCNCN,113,1,818,Correct,15,876
15,YGYGY,191,1,854,Correct,15,801
15,VLVLV,15,1,570,Correct,15,811
15,XRXRX,152,2,642,Incorrect,15,883
15,KAKPK,81,3,638,Correct,15,772
15,YZAZY,233,1,997,Incorrect,15,882
15,CFCFC,113,1,1232,Correct,15,886
15,VNVLV,161,,,Incorrect,15,925
15,KPKVK,162,2,1476,Correct,15,811
15,NCNRN,163,2,829,Correct,15,876
15,FGFGF,192,2,561,Incorrect,15,708
15,RCRYR,16,2,1075,Correct,15,721
15,KRKCK,162,2,620,Correct,15,833
15,CRCRC,151,,,Incorrect,15,828
15,XPAPX,223,1,734,Correct,15,748
15,LPLXL,222,2,1331,Correct,15,745
15,CGCVC,173,2,726,Correct,15,729
15,FKFZF,16,2,750,Correct,15,709
15,CACAC,9,1,933,Incorrect,15,824
15,XCXCX,13,1,655,Correct,15,869
15,AXRXR,221,1,653,Correct,15,768
15,NKNRN,222,2,643,Correct,15,866
15,KNKFK,162,2,601,Correct,15,925
15,KAKAK,10,3,695,Correct,15,716
15,ZCZRZ,14,2,1070,Correct,15,776
15,RPRPR,151,1,1320,Correct,15,801
15,NCNCN,152,1,653,Correct,15,694
15,RYRGR,184,2,620,Correct,15,690
15,VPVPV,15,1,535,Correct,15,772
15,RCRCA,225,1,719,Correct,15,939
15,KXKPK,222,2,712,Correct,15,785
15,NPNPN,151,1,686,Correct,15,868
15,YCYCY,152,1,673,Correct,15,922
15,PXPAP,112,2,712,Incorrect,15,878
15,ZCZNZ,14,2,782,Correct,15,844
15,KYKGK,185,2,1173,Correct,15,790
15,ANLPL,231,,,Incorrect,15,825
15,CXCPC,222,2,980,Correct,15,670
15,YRYRY,151,1,814,Correct,15,862
15,LGLGL,196,1,976,Correct,15,797
15,VYVLV,16,2,841,Correct,15,931
15,KVKVK,151,1,650,Correct,15,926
15,RKRKR,152,1,568,Correct,15,690
15,VXVXV,153,1,567,Correct,15,693
15,XAXAX,12,3,388,Correct,15,772
