Trial No,Stimulus,Trigger,Response,Response Time(ms),Correct,Block,Fixation Duration
Practice
OT Practice
1,SKSKS,15,,,False,0,887
1,DLDUD,16,2,1302,Correct,0,677
1,PDPGP,16,2,1011,Correct,0,901
1,MWMWM,15,1,781,Correct,0,939
1,FTFTF,15,1,847,Correct,0,904
1,AXAMA,16,2,1119,Correct,0,949
1,RYRGR,16,2,702,Correct,0,650
1,DODOD,15,1,627,Correct,0,850
1,QTQAQ,16,2,687,Correct,0,795
1,YEYEY,15,1,526,Correct,0,720
2,GYGDG,16,2,1060,Correct,0,791
2,SWSWS,15,1,783,Correct,0,894
2,HLHUH,16,2,694,Correct,0,747
2,DEDED,15,1,627,Correct,0,735
2,ZPZOZ,16,2,622,Correct,0,801
2,ATATA,15,1,1099,Correct,0,789
2,QOQOQ,15,2,695,False,0,799
2,FPFGF,16,2,910,Correct,0,839
2,TRTET,16,2,739,Correct,0,751
2,DQDQD,15,1,927,Correct,0,659
4,PLPLP,15,1,866,Correct,0,895
4,ATAIA,16,2,1255,Correct,0,787
4,SKSGS,16,2,838,Correct,0,917
4,ZYZYZ,15,1,760,Correct,0,878
4,QSQSQ,15,1,688,Correct,0,757
4,TZTDT,16,2,751,Correct,0,712
4,JYJGJ,16,2,888,Correct,0,775
4,DYDYD,15,1,638,Correct,0,725
4,LTLCL,16,2,908,Correct,0,721
4,FQFEF,16,2,733,Correct,0,827
DT Practice
1,TKTKT,15,,,False,0,810
1,SLSUS,16,2,891,Correct,0,817
1,VZVGV,7,[2],[1548],False,0,934
1,XWXZX,7,,,False,0,664
1,ATATA,15,,,False,0,666
1,HXZMH,16,,,False,0,712
1,TZTZT,7,[1][3],[669][797],Correct,0,851
1,UOUOU,15,2,932,False,0,845
1,ZTWAW,16,2,1060,Correct,0,791
1,RZRER,7,[1][2],[867][1267],False,0,654
2,JYJDJ,16,1,1582,False,0,923
2,DWDWD,15,2,1414,False,0,765
2,GNGNG,7,[1][1],[942][1534],False,0,941
2,NEZEZ,16,,,False,0,712
2,RNROR,7,[2][3],[1269][1413],Correct,0,821
2,QTQNQ,7,[2][3],[1009][1137],Correct,0,754
2,HOHON,15,1,1156,Correct,0,824
2,KPKGK,16,2,1051,Correct,0,822
2,DRDED,16,2,771,Correct,0,932
2,LNLNL,7,[1][3],[844][972],Correct,0,742
4,GLGLG,15,1,1039,Correct,0,686
4,DTDID,16,2,951,Correct,0,903
4,SMSGS,16,2,965,Correct,0,841
4,ZFZYZ,7,[2][3],[823][983],Correct,0,716
4,TSTFT,7,[2][3],[918][1046],Correct,0,800
4,OFOFO,7,[1][3],[681][793],Correct,0,906
4,WYFGW,16,2,1379,Correct,0,685
4,WYWYW,15,2,769,False,0,856
4,MFMCM,7,[1][3],[891][955],False,0,930
4,HQHEH,16,2,718,Correct,0,671
Trials
1,D,5,3,6302,New Target,1,779
1,ZNZYZ,161,2,990,Correct,1,759
1,FZFZF,151,1,1066,Correct,1,933
1,RKRKR,152,1,858,Correct,1,795
1,RXRNR,161,2,676,Correct,1,722
1,CNCFC,162,2,1085,Correct,1,948
1,PDPDP,7,[1][3],[804][980],Correct,1,837
1,CPCFC,14,2,1056,Correct,1,840
1,VLVNV,162,2,720,Correct,1,815
1,KFKFK,151,1,864,Correct,1,709
1,ZNZNZ,152,1,1354,Correct,1,690
1,KCKPD,235,2,718,Correct,1,794
1,ZKZFZ,222,2,763,Correct,1,760
1,NRNZN,162,2,597,Correct,1,863
1,KXKRK,163,2,675,Correct,1,871
1,YPYZY,164,2,677,Correct,1,689
1,FKDKF,223,1,1157,Correct,1,764
1,RPRPR,113,1,1260,Correct,1,907
1,VRVKV,161,2,763,Correct,1,662
1,RFRPR,162,2,679,Correct,1,804
1,KVKVK,151,2,595,Incorrect,1,909
1,YKYVY,161,2,809,Correct,1,678
1,VDVDV,8,[1][3],[710][854],Correct,1,662
1,DVZVZ,221,1,1036,Correct,1,710
1,YFYFY,113,1,598,Correct,1,933
1,ZYZYZ,152,1,692,Correct,1,923
1,VLVXV,161,2,652,Correct,1,944
1,DPXZX,231,2,804,Correct,1,940
1,RYRYR,113,1,656,Correct,1,711
1,PDPNP,91,[1][2],[574][1277],Incorrect,1,821
1,KXKXK,13,1,899,Correct,1,695
1,ZYZYZ,152,1,773,Correct,1,898
1,VKVKV,153,1,717,Correct,1,860
1,YZYZY,154,1,589,Correct,1,656
1,NLNZN,161,2,745,Correct,1,947
1,ZNDYZ,233,2,1039,Correct,1,927
1,PCPXP,222,2,658,Correct,1,748
1,ZVZFZ,162,2,608,Correct,1,859
1,RCRZR,163,2,582,Correct,1,688
1,LRLRL,151,1,645,Correct,1,861
1,ZDZDZ,10,[1][3],[649][809],Correct,1,716
1,RNRZR,14,2,601,Correct,1,820
1,CXCYC,162,2,1102,Correct,1,739
1,RCRLR,163,2,606,Correct,1,707
1,FRFRF,151,1,782,Correct,1,843
1,XFXFX,152,1,722,Correct,1,927
1,RPRLR,161,2,796,Correct,1,907
1,YXYRY,162,2,612,Correct,1,852
1,FYFYF,151,1,886,Correct,1,789
1,YZYVY,161,2,733,Correct,1,801
1,YKYKY,151,1,630,Correct,1,883
1,XRXRX,152,1,651,Correct,1,741
1,XVXZX,161,2,663,Correct,1,874
1,PDPDP,11,[1][3],[714][858],Correct,1,840
1,ZFZFZ,13,1,724,Correct,1,871
1,PXPXP,152,1,860,Correct,1,944
1,LYLYL,153,1,728,Correct,1,670
1,NKNKD,225,1,809,Correct,1,726
1,ZNZNZ,113,1,607,Correct,1,818
1,PYPZP,161,2,705,Correct,1,824
1,XPXPX,151,1,610,Correct,1,763
1,VLVLV,152,1,513,Correct,1,822
1,PKPXP,161,1,820,Incorrect,1,887
1,FZFZF,151,1,569,Correct,1,884
1,LDLDL,12,[1][3],[650][778],Correct,1,659
2,U,5,3,9782,New Target,2,716
2,ZVZFZ,161,2,841,Correct,2,909
2,FZFZF,151,1,731,Correct,2,925
2,RFRFR,152,1,818,Correct,2,896
2,NZNKN,161,2,1015,Correct,2,865
2,FZFNF,162,2,842,Correct,2,778
2,RXRXR,151,1,714,Correct,2,656
2,KRKYK,161,2,711,Correct,2,796
2,NZNPN,162,2,760,Correct,2,700
2,XPXPX,151,1,662,Correct,2,784
2,CUCUC,7,[1][3],[720][832],Correct,2,926
2,RFRFR,13,1,802,Correct,2,797
2,VYVXV,161,2,727,Correct,2,910
2,VDVDV,191,1,664,Correct,2,719
2,ZKZRZ,15,2,696,Correct,2,809
2,XCXCX,151,1,674,Correct,2,844
2,CNCUC,82,[2][3],[1153][1249],Correct,2,685
2,RCRCR,13,1,810,Correct,2,744
2,ZPZXZ,161,2,639,Correct,2,918
2,FKFYF,162,2,652,Correct,2,882
2,ZFZYZ,163,2,683,Correct,2,793
2,PXPXP,151,1,775,Correct,2,833
2,URCKC,231,2,839,Correct,2,687
2,PCPCP,113,1,576,Correct,2,821
2,XNXNX,152,1,796,Correct,2,932
2,RCRZR,161,2,659,Correct,2,873
2,XVXVX,151,1,807,Correct,2,673
2,NRNRN,152,1,721,Correct,2,799
2,FPFPF,225,1,608,Correct,2,761
2,XVXFX,222,2,734,Correct,2,863
2,PRPRP,151,1,663,Correct,2,875
2,FYFCF,161,2,774,Correct,2,810
2,XUXFX,91,[2][3],[837][981],Correct,2,651
2,CYCVC,14,2,917,Correct,2,703
2,VDVKV,172,2,715,Correct,2,764
2,YCYCY,15,1,740,Correct,2,890
2,NKNLN,161,2,687,Correct,2,839
2,XPUKX,233,2,1127,Correct,2,923
2,ZPZPZ,113,1,611,Correct,2,876
2,KRKRK,152,1,687,Correct,2,883
2,XKXKX,153,1,1322,Correct,2,855
2,YUYVY,101,[2][3],[701][829],Correct,2,868
2,XKXFU,235,2,767,Correct,2,795
2,NFNFN,113,1,621,Correct,2,728
2,KDKDK,193,1,671,Correct,2,728
2,XYXKX,16,2,708,Correct,2,675
2,YZUZY,223,1,959,Correct,2,849
2,KFKVK,222,2,1010,Correct,2,831
2,LYLYL,151,1,736,Correct,2,909
2,CXCDC,184,2,839,Incorrect,2,923
2,XZXNX,16,2,707,Correct,2,739
2,PXPXP,151,1,645,Correct,2,688
2,ZRZYZ,161,2,696,Correct,2,696
2,PUPYP,111,[1][2],[792][1144],Incorrect,2,818
2,RNRNR,14,1,617,Correct,2,807
2,KDKDK,195,1,632,Correct,2,809
2,KNKNK,15,1,694,Correct,2,845
2,PRPKP,161,2,1032,Correct,2,687
2,UNYNY,221,1,892,Correct,2,659
2,NYNYN,113,2,880,Incorrect,2,841
2,YXYXY,152,1,748,Incorrect,2,650
2,RDRDR,196,1,653,Correct,2,653
2,FCFCF,15,1,587,Correct,2,843
2,ZKZKZ,152,1,841,Correct,2,942
2,ZUZUZ,12,[1][3],[775][902],Correct,2,895
3,E,5,3,25402,New Target,3,827
3,YZYZY,151,1,747,Correct,3,881
3,VFVNV,161,2,972,Correct,3,654
3,KYKYK,151,1,978,Correct,3,704
3,NKNKN,152,1,918,Correct,3,750
3,XVXNX,161,2,638,Correct,3,761
3,RERFR,71,[2][3],[915][1027],Correct,3,757
3,XNXNX,13,1,667,Correct,3,779
3,NXNXN,152,1,867,Correct,3,886
3,ZLZNZ,161,2,699,Correct,3,690
3,CUCNC,171,2,741,Correct,3,909
3,FYFRF,16,2,705,Correct,3,791
3,ZLZLZ,151,1,879,Correct,3,776
3,YZYZY,152,1,710,Correct,3,793
3,CYCYC,153,1,690,Correct,3,831
3,VUVUV,192,1,816,Correct,3,763
3,PXPRP,16,2,794,Correct,3,801
3,YPYPY,151,1,564,Correct,3,781
3,CECEC,8,[1][3],[1064][1176],Correct,3,826
3,VNENV,223,1,1189,Correct,3,938
3,KRKFK,222,2,1022,Correct,3,839
3,XLXLE,225,1,853,Correct,3,674
3,RFRUR,183,2,955,Correct,3,795
3,XRXLX,16,2,666,Correct,3,868
3,NZNPN,162,2,761,Correct,3,742
3,XZXZX,151,1,658,Correct,3,814
3,FZFZF,152,1,854,Correct,3,671
3,PFPFP,153,1,734,Correct,3,756
3,YZYXY,161,2,937,Correct,3,837
3,KEKEK,9,[1][3],[800][960],Correct,3,813
3,CXCPC,14,2,766,Correct,3,711
3,VXVXV,151,1,600,Correct,3,799
3,NUNZN,174,2,713,Correct,3,811
3,RKRVR,16,2,771,Correct,3,906
3,XRXRX,151,1,692,Correct,3,666
3,ERNFN,231,2,829,Incorrect,3,865
3,YRYNY,222,2,528,Correct,3,927
3,PZPEP,102,[2][3],[778][954],Correct,3,878
3,ZYZXZ,14,2,707,Correct,3,658
3,RZRVR,162,2,575,Correct,3,859
3,XRXRX,151,1,597,Correct,3,729
3,KUKFK,175,2,919,Correct,3,819
3,RKRKR,15,1,764,Correct,3,867
3,ZFZFZ,152,2,757,Incorrect,3,776
3,YZYVY,161,2,689,Correct,3,788
3,XPXNX,162,2,646,Correct,3,672
3,YRYRY,151,1,680,Correct,3,764
3,EPVPV,221,1,818,Correct,3,893
3,CRCEC,112,[2][3],[848][976],Correct,3,864
3,RFRCR,14,2,762,Correct,3,655
3,CPCVC,162,2,676,Correct,3,853
3,RXRCR,163,2,645,Correct,3,732
3,VNVLV,164,2,605,Correct,3,948
3,ZXZXZ,151,1,638,Correct,3,749
3,ZCZCZ,152,1,586,Correct,3,850
3,PYPUP,186,2,598,Correct,3,931
3,YKYPY,16,2,666,Correct,3,724
3,YREXY,233,2,866,Correct,3,929
3,ZKZKZ,113,1,678,Correct,3,849
3,XLXNX,161,2,658,Correct,3,842
3,KFKRE,235,2,702,Correct,3,889
3,RXRLR,222,2,673,Correct,3,655
3,RERXR,121,[1][2],[689][1121],Incorrect,3,787
4,J,5,3,6614,New Target,4,727
4,CYCVC,161,2,1290,Correct,4,746
4,RXRCR,162,2,648,Correct,4,667
4,FPFVF,163,2,633,Correct,4,742
4,LZLZL,151,1,803,Correct,4,947
4,PLPLP,152,1,776,Correct,4,937
4,NPNPN,153,1,652,Correct,4,933
4,XZXZX,161,1,581,Incorrect,4,920
4,CNCKC,162,2,717,Correct,4,655
4,PCPYJ,235,2,1097,Correct,4,891
4,VYVYV,113,1,841,Correct,4,704
4,RLRLR,152,1,606,Correct,4,854
4,CJCJC,7,[1][3],[718][814],Correct,4,944
4,ZLZLZ,13,1,785,Correct,4,661
4,FZFZF,152,1,605,Correct,4,762
4,CFCFC,153,1,622,Correct,4,763
4,PZPZP,154,1,619,Correct,4,930
4,XEXEX,191,1,606,Correct,4,728
4,NVNFN,16,2,736,Correct,4,744
4,KYKYK,151,1,924,Correct,4,827
4,ZNZVZ,161,2,654,Correct,4,855
4,YVJXY,233,2,808,Correct,4,933
4,XFXFX,113,1,711,Correct,4,681
4,XNXNX,152,1,675,Correct,4,822
4,FJFKF,81,[2][3],[782][910],Correct,4,728
4,CZCYC,14,2,707,Correct,4,845
4,ZXZCZ,162,2,624,Correct,4,782
4,RYRYJ,225,1,896,Correct,4,834
4,FPFZF,222,2,678,Correct,4,733
4,XRXRX,151,1,646,Correct,4,758
4,YPYEY,182,2,584,Correct,4,689
4,XRXRX,15,1,630,Correct,4,941
4,XZXPX,161,2,586,Correct,4,663
4,CJCJC,9,[1][3],[660][771],Correct,4,704
4,ZXZVZ,14,2,673,Correct,4,818
4,VKVKV,151,1,561,Correct,4,729
4,VEVNV,173,2,609,Correct,4,911
4,ZKZVZ,16,2,605,Correct,4,921
4,XVXJX,102,[2][3],[718][830],Correct,4,706
4,RXRVR,14,2,608,Correct,4,842
4,LRLRL,151,1,707,Correct,4,760
4,YNJNY,223,1,787,Correct,4,695
4,NPNJN,222,2,673,Correct,4,722
4,ZEZEZ,194,1,559,Correct,4,807
4,ZNZNZ,15,1,832,Correct,4,853
4,YZYZY,152,1,701,Correct,4,656
4,XYXYX,153,1,571,Correct,4,753
4,ZXZXZ,221,1,622,Correct,4,741
4,LYLZL,222,2,802,Correct,4,673
4,CYCNC,162,2,774,Correct,4,923
4,XEXEX,195,1,593,Correct,4,828
4,CVCXC,16,2,639,Correct,4,918
4,ZPZXZ,162,2,604,Correct,4,820
4,FZFZF,151,1,720,Correct,4,744
4,RXRJR,112,[2][3],[733][861],Correct,4,820
4,PRPFP,14,2,775,Correct,4,947
4,PKPEP,186,2,676,Correct,4,768
4,XZXPX,16,2,562,Correct,4,802
4,JCZVZ,231,2,1047,Correct,4,719
4,RXRLR,222,2,632,Correct,4,751
4,VZVZV,151,1,664,Correct,4,844
4,XJXJX,12,[1][3],[819][947],Correct,4,805
5,I,5,3,4309,New Target,5,861
5,PCPCP,151,1,682,Correct,5,831
5,XYXYX,152,1,775,Correct,5,828
5,VXVXV,153,1,670,Correct,5,854
5,XVXVX,154,1,811,Correct,5,781
5,ZRZXZ,161,2,646,Correct,5,753
5,FPFZF,162,2,756,Correct,5,913
5,ZYZYZ,151,1,639,Correct,5,724
5,RVRZR,161,2,749,Correct,5,890
5,CICIC,7,[1][3],[696][824],Correct,5,858
5,XLXLX,13,1,774,Correct,5,836
5,YVYVY,152,1,814,Correct,5,854
5,CJCJC,191,1,1200,Correct,5,946
5,FNFCF,16,2,801,Correct,5,678
5,PVPRP,162,2,699,Correct,5,717
5,FZFZF,151,1,698,Correct,5,729
5,NVIVN,223,1,1051,Correct,5,692
5,CVCIC,82,[2][3],[906][986],Correct,5,942
5,ZXZXZ,13,1,706,Correct,5,729
5,FCFZF,161,2,756,Correct,5,710
5,IXRXR,221,1,879,Correct,5,816
5,ZPZNZ,222,2,818,Correct,5,928
5,VZVZV,151,1,616,Correct,5,861
5,YRYNY,161,2,633,Correct,5,779
5,VNVPV,162,2,844,Correct,5,701
5,RVRJR,182,2,744,Correct,5,657
5,VRVRV,15,1,569,Correct,5,696
5,VIVIV,9,[1][3],[638][749],Correct,5,684
5,CXCVC,14,2,644,Correct,5,783
5,PZPZP,151,1,625,Correct,5,820
5,IXVKV,231,1,852,Incorrect,5,706
5,YJYCY,173,2,703,Incorrect,5,705
5,VYVYV,15,1,705,Correct,5,652
5,YVYVY,152,1,735,Correct,5,752
5,NVNVN,153,1,817,Correct,5,711
5,XYXVX,161,2,829,Correct,5,660
5,NJNCN,174,,,Incorrect,5,790
5,NXNYN,16,2,636,Correct,5,947
5,VXVCV,162,2,633,Correct,5,865
5,ZKZKZ,151,1,822,Correct,5,881
5,XRXYX,161,2,620,Correct,5,907
5,ZCZXZ,162,2,582,Correct,5,889
5,KVKYI,235,2,678,Correct,5,894
5,CNCNC,113,1,645,Correct,5,745
5,RIRIR,10,[1][3],[610][738],Correct,5,655
5,VYVXV,14,2,542,Correct,5,850
5,FXIRF,233,2,892,Correct,5,926
5,PFPFP,113,1,695,Correct,5,673
5,VPVPV,152,1,578,Correct,5,905
5,ZJZJZ,195,1,1216,Correct,5,916
5,ZVZNZ,16,2,707,Correct,5,925
5,YVYXY,162,2,1172,Correct,5,743
5,PRPRP,151,1,903,Correct,5,694
5,YPYPY,152,1,605,Correct,5,725
5,ZIZPZ,111,[2][3],[891][1035],Correct,5,738
5,NKNXN,14,2,809,Correct,5,858
5,RZRXR,162,2,692,Correct,5,745
5,RXRXR,151,2,772,Incorrect,5,792
5,ZJZJZ,196,2,1056,Incorrect,5,775
5,CVCVI,225,1,894,Incorrect,5,820
5,NKNKN,113,1,919,Correct,5,754
5,NRNZN,161,2,705,Correct,5,714
5,CNCNC,151,1,653,Correct,5,776
5,RFRIR,122,[2][3],[826][938],Correct,5,851
6,B,5,3,6520,New Target,6,829
6,YKYZY,161,2,1281,Correct,6,788
6,VCVRV,162,2,637,Correct,6,667
6,XVXVX,151,1,637,Correct,6,797
6,KZKRK,161,2,691,Correct,6,663
6,ZVZXZ,162,2,763,Correct,6,930
6,RCRNR,163,2,619,Correct,6,650
6,CXCRC,164,2,732,Correct,6,812
6,VNBCV,233,2,1071,Correct,6,677
6,CXCVC,222,2,626,Correct,6,658
6,RFRFR,151,1,671,Correct,6,912
6,XPXRX,161,2,850,Correct,6,680
6,RYRBR,72,[2][3],[1077][1189],Correct,6,878
6,ZKZKZ,13,1,693,Correct,6,937
6,FIFRF,171,2,790,Correct,6,741
6,VZVLV,16,2,718,Correct,6,849
6,RPRVR,162,2,685,Correct,6,720
6,YBYBY,8,[1][3],[686][830],Correct,6,768
6,PYPVP,14,2,815,Correct,6,798
6,NININ,192,1,725,Correct,6,831
6,RNRNR,15,1,640,Correct,6,813
6,NXNVN,161,2,627,Correct,6,730
6,RNRNR,151,1,583,Correct,6,695
6,FRFVF,161,2,619,Correct,6,744
6,YVYFB,235,2,889,Incorrect,6,874
6,ZRZXZ,222,2,542,Correct,6,754
6,VNVIV,193,2,644,Incorrect,6,701
6,PXPNP,16,2,543,Correct,6,894
6,ZXZPZ,162,2,486,Correct,6,685
6,VBVBV,9,[1][3],[609][769],Correct,6,847
6,CXCXC,13,1,731,Correct,6,912
6,PCPFP,161,2,588,Correct,6,651
6,KNKNK,151,2,866,Incorrect,6,739
6,XIXIX,194,1,647,Correct,6,849
6,CYCYC,15,1,583,Correct,6,770
6,FVFYF,161,2,998,Correct,6,862
6,YNYRY,162,2,712,Correct,6,738
6,BVPXP,231,2,665,Correct,6,670
6,NXNXN,113,1,823,Correct,6,831
6,FRFRF,152,1,877,Correct,6,831
6,YVYVY,153,1,662,Correct,6,735
6,ZKZCZ,161,2,615,Correct,6,723
6,VIVXV,175,2,698,Correct,6,683
6,PRBRP,223,1,999,Correct,6,846
6,YZYBY,102,[2][3],[959][1103],Correct,6,919
6,CXCVC,14,2,928,Correct,6,701
6,FYFYF,151,1,943,Correct,6,949
6,VKVXV,161,2,754,Correct,6,854
6,ZBZBZ,11,[1][3],[573][701],Correct,6,727
6,FPFNF,14,2,758,Correct,6,801
6,CXCXC,151,1,676,Correct,6,762
6,YCYCY,152,1,661,Correct,6,726
6,FPFPF,153,1,544,Correct,6,913
6,CVCVB,225,1,747,Correct,6,675
6,ZCZCZ,113,1,612,Correct,6,836
6,CZCNC,161,2,735,Correct,6,885
6,KIKFK,176,2,681,Correct,6,822
6,PXPXP,15,1,633,Correct,6,699
6,RYRYR,152,1,520,Correct,6,825
6,ZRZCZ,161,2,717,Correct,6,808
6,RVRVR,151,1,602,Correct,6,729
6,XYXNX,161,2,676,Correct,6,942
6,BVKVK,221,1,727,Correct,6,677
6,CBCBC,12,[1][3],[672][864],Correct,6,882
