Trial No,Stimulus,Trigger,Response,Response Time(ms),Correct,Block,Fixation Duration
Practice
OT Practice
1,SKSKS,15,1,1561,Correct,0,849
1,DLDUD,16,2,642,Correct,0,800
1,PDPGP,16,2,882,Correct,0,657
1,MWMWM,15,1,639,Correct,0,899
1,FTFTF,15,1,704,Correct,0,679
1,AXAMA,16,2,678,Correct,0,850
1,RYRGR,16,2,722,Correct,0,808
1,DODOD,15,1,521,Correct,0,845
1,QTQAQ,16,2,645,Correct,0,936
1,YEYEY,15,1,610,Correct,0,797
2,GYGDG,16,2,808,Correct,0,749
2,SWSWS,15,1,623,Correct,0,730
2,HLHUH,16,2,985,Correct,0,913
2,DEDED,15,1,508,Correct,0,731
2,ZPZOZ,16,2,1003,Correct,0,875
2,ATATA,15,1,575,Correct,0,650
2,QOQOQ,15,1,626,Correct,0,679
2,FPFGF,16,2,603,Correct,0,868
2,TRTET,16,2,894,Correct,0,650
2,DQDQD,15,1,660,Correct,0,653
4,PLPLP,15,1,798,Correct,0,712
4,ATAIA,16,2,816,Correct,0,898
4,SKSGS,16,2,969,Correct,0,659
4,ZYZYZ,15,1,652,Correct,0,696
4,QSQSQ,15,1,507,Correct,0,724
4,TZTDT,16,2,527,Correct,0,712
4,JYJGJ,16,2,526,Correct,0,914
4,DYDYD,15,1,493,Correct,0,752
4,LTLCL,16,2,611,Correct,0,725
4,FQFEF,16,2,623,Correct,0,839
DT Practice
1,TKTKT,15,2,620,False,0,727
1,SLSUS,16,2,958,Correct,0,683
1,VZVGV,7,[1],[1447],False,0,713
1,XWXZX,7,,,False,0,931
1,ATATA,15,1,1265,Correct,0,706
1,HXZMH,16,,,False,0,852
1,TZTZT,7,[1][3],[790][966],Correct,0,899
1,UOUOU,15,1,799,Correct,0,745
1,ZTWAW,16,2,916,Correct,0,815
1,RZRER,7,[1][3],[841][984],False,0,860
2,JYJDJ,16,2,715,Correct,0,655
2,DWDWD,15,1,635,Correct,0,670
2,GNGNG,7,[1][3],[738][898],Correct,0,800
2,NEZEZ,16,1,1168,Correct,0,766
2,RNROR,7,[1][2],[713][953],False,0,717
2,QTQNQ,7,[2][3],[629][805],Correct,0,852
2,HOHON,15,1,834,Correct,0,856
2,KPKGK,16,2,946,Correct,0,923
2,DRDED,16,2,849,Correct,0,862
2,LNLNL,7,[1][3],[562][786],Correct,0,947
4,GLGLG,15,1,646,Correct,0,847
4,DTDID,16,2,569,Correct,0,651
4,SMSGS,16,2,953,Correct,0,738
4,ZFZYZ,7,[2][3],[776][952],Correct,0,734
4,TSTFT,7,[2][3],[745][1065],Correct,0,946
4,OFOFO,7,[1][3],[669][845],Correct,0,741
4,WYFGW,16,2,1059,Correct,0,916
4,WYWYW,15,1,908,Correct,0,857
4,MFMCM,7,[2][1],[773][1381],False,0,705
4,HQHEH,16,2,1051,Correct,0,699
Trials
1,D,5,3,1020,New Target,1,802
1,ZNZYZ,161,2,1218,Correct,1,691
1,FZFZF,151,1,823,Correct,1,949
1,RKRKR,152,1,714,Correct,1,909
1,RXRNR,161,2,536,Correct,1,757
1,CNCFC,162,1,1109,Incorrect,1,927
1,PDPDP,7,[2][3],[560][1584],Incorrect,1,877
1,CPCFC,14,2,1430,Correct,1,765
1,VLVNV,162,2,731,Correct,1,681
1,KFKFK,151,1,793,Correct,1,726
1,ZNZNZ,152,2,753,Incorrect,1,811
1,KCKPD,235,2,719,Correct,1,767
1,ZKZFZ,222,2,810,Correct,1,814
1,NRNZN,162,2,1161,Correct,1,695
1,KXKRK,163,1,652,Incorrect,1,653
1,YPYZY,164,2,733,Correct,1,698
1,FKDKF,223,2,662,Incorrect,1,915
1,RPRPR,113,2,693,Incorrect,1,810
1,VRVKV,161,2,744,Correct,1,669
1,RFRPR,162,2,835,Correct,1,815
1,KVKVK,151,1,657,Correct,1,671
1,YKYVY,161,2,593,Correct,1,722
1,VDVDV,8,[1][3],[675][1283],Correct,1,801
1,DVZVZ,221,2,713,Incorrect,1,657
1,YFYFY,113,1,661,Correct,1,848
1,ZYZYZ,152,2,838,Incorrect,1,709
1,VLVXV,161,2,888,Correct,1,941
1,DPXZX,231,2,767,Correct,1,860
1,RYRYR,113,1,570,Correct,1,767
1,PDPNP,91,[1],[709],Incorrect,1,908
1,KXKXK,13,2,743,Incorrect,1,898
1,ZYZYZ,152,,,Incorrect,1,760
1,VKVKV,153,2,749,Incorrect,1,865
1,YZYZY,154,1,755,Correct,1,886
1,NLNZN,161,2,830,Correct,1,774
1,ZNDYZ,233,2,882,Correct,1,921
1,PCPXP,222,2,899,Correct,1,905
1,ZVZFZ,162,2,917,Correct,1,890
1,RCRZR,163,2,520,Correct,1,879
1,LRLRL,151,2,767,Incorrect,1,762
1,ZDZDZ,10,[1][3],[724][900],Correct,1,892
1,RNRZR,14,2,719,Correct,1,930
1,CXCYC,162,2,1054,Correct,1,741
1,RCRLR,163,2,864,Correct,1,778
1,FRFRF,151,1,684,Correct,1,677
1,XFXFX,152,1,597,Correct,1,925
1,RPRLR,161,2,661,Correct,1,823
1,YXYRY,162,2,595,Correct,1,827
1,FYFYF,151,2,712,Incorrect,1,686
1,YZYVY,161,2,676,Correct,1,768
1,YKYKY,151,2,675,Incorrect,1,793
1,XRXRX,152,1,591,Correct,1,871
1,XVXZX,161,2,802,Correct,1,710
1,PDPDP,11,[1][3],[691][883],Correct,1,909
1,ZFZFZ,13,1,996,Correct,1,885
1,PXPXP,152,2,523,Incorrect,1,680
1,LYLYL,153,1,706,Correct,1,685
1,NKNKD,225,1,830,Correct,1,838
1,ZNZNZ,113,1,880,Correct,1,937
1,PYPZP,161,2,840,Correct,1,811
1,XPXPX,151,1,700,Correct,1,894
1,VLVLV,152,2,722,Incorrect,1,935
1,PKPXP,161,2,975,Correct,1,828
1,FZFZF,151,1,577,Correct,1,797
1,LDLDL,12,[1][3],[574][910],Correct,1,732
2,U,5,3,952,New Target,2,858
2,ZVZFZ,161,2,894,Correct,2,852
2,FZFZF,151,1,712,Correct,2,734
2,RFRFR,152,1,689,Correct,2,930
2,NZNKN,161,2,1051,Correct,2,870
2,FZFNF,162,2,767,Correct,2,754
2,RXRXR,151,2,650,Incorrect,2,776
2,KRKYK,161,2,769,Correct,2,949
2,NZNPN,162,2,813,Correct,2,745
2,XPXPX,151,1,708,Correct,2,870
2,CUCUC,7,[1][3],[751][927],Correct,2,810
2,RFRFR,13,1,803,Correct,2,737
2,VYVXV,161,2,860,Correct,2,825
2,VDVDV,191,1,849,Correct,2,849
2,ZKZRZ,15,2,658,Correct,2,941
2,XCXCX,151,1,627,Correct,2,773
2,CNCUC,82,[1][1],[1304][1367],Incorrect,2,950
2,RCRCR,13,1,750,Correct,2,722
2,ZPZXZ,161,2,809,Correct,2,878
2,FKFYF,162,2,723,Correct,2,748
2,ZFZYZ,163,2,652,Correct,2,872
2,PXPXP,151,1,551,Correct,2,930
2,URCKC,231,2,939,Correct,2,748
2,PCPCP,113,1,647,Correct,2,945
2,XNXNX,152,2,756,Incorrect,2,875
2,RCRZR,161,2,786,Correct,2,750
2,XVXVX,151,1,635,Correct,2,819
2,NRNRN,152,1,1054,Correct,2,735
2,FPFPF,225,1,593,Correct,2,705
2,XVXFX,222,1,653,Incorrect,2,912
2,PRPRP,151,1,758,Correct,2,901
2,FYFCF,161,2,587,Correct,2,945
2,XUXFX,91,[1][3],[614][1094],Incorrect,2,727
2,CYCVC,14,2,1143,Correct,2,808
2,VDVKV,172,2,672,Correct,2,888
2,YCYCY,15,1,659,Correct,2,687
2,NKNLN,161,2,877,Correct,2,901
2,XPUKX,233,2,1398,Correct,2,735
2,ZPZPZ,113,1,663,Correct,2,830
2,KRKRK,152,2,806,Incorrect,2,765
2,XKXKX,153,1,1197,Correct,2,873
2,YUYVY,101,[2][3],[1043][1283],Correct,2,721
2,XKXFU,235,1,1169,Incorrect,2,662
2,NFNFN,113,1,784,Correct,2,726
2,KDKDK,193,1,709,Correct,2,885
2,XYXKX,16,2,541,Correct,2,950
2,YZUZY,223,1,1035,Correct,2,908
2,KFKVK,222,2,876,Correct,2,832
2,LYLYL,151,1,928,Correct,2,856
2,CXCDC,184,2,874,Incorrect,2,700
2,XZXNX,16,2,749,Correct,2,912
2,PXPXP,151,1,726,Correct,2,860
2,ZRZYZ,161,2,669,Correct,2,888
2,PUPYP,111,,,Incorrect,2,929
2,RNRNR,14,1,627,Correct,2,673
2,KDKDK,195,1,782,Correct,2,942
2,KNKNK,15,1,756,Correct,2,934
2,PRPKP,161,2,803,Correct,2,750
2,UNYNY,221,1,665,Correct,2,852
2,NYNYN,113,1,741,Correct,2,872
2,YXYXY,152,1,1045,Incorrect,2,742
2,RDRDR,196,1,806,Correct,2,753
2,FCFCF,15,1,558,Correct,2,768
2,ZKZKZ,152,1,852,Correct,2,705
2,ZUZUZ,12,[1][3],[664][808],Correct,2,948
3,E,5,3,1076,New Target,3,682
3,YZYZY,151,1,1045,Correct,3,767
3,VFVNV,161,2,627,Correct,3,854
3,KYKYK,151,1,531,Correct,3,826
3,NKNKN,152,1,845,Correct,3,654
3,XVXNX,161,2,631,Correct,3,714
3,RERFR,71,[1][3],[1005][1293],Incorrect,3,687
3,XNXNX,13,1,599,Correct,3,886
3,NXNXN,152,1,888,Correct,3,799
3,ZLZNZ,161,2,879,Correct,3,767
3,CUCNC,171,2,923,Correct,3,683
3,FYFRF,16,2,1362,Correct,3,703
3,ZLZLZ,151,1,684,Correct,3,654
3,YZYZY,152,2,728,Incorrect,3,806
3,CYCYC,153,2,787,Incorrect,3,810
3,VUVUV,192,1,695,Correct,3,950
3,PXPRP,16,2,630,Correct,3,834
3,YPYPY,151,1,680,Correct,3,657
3,CECEC,8,[1][3],[655][799],Correct,3,847
3,VNENV,223,2,742,Incorrect,3,906
3,KRKFK,222,2,743,Correct,3,714
3,XLXLE,225,1,821,Correct,3,698
3,RFRUR,183,2,697,Correct,3,943
3,XRXLX,16,2,729,Correct,3,726
3,NZNPN,162,2,900,Correct,3,902
3,XZXZX,151,1,594,Correct,3,945
3,FZFZF,152,1,642,Correct,3,784
3,PFPFP,153,2,785,Incorrect,3,833
3,YZYXY,161,2,753,Correct,3,654
3,KEKEK,9,[1][3],[602][762],Correct,3,806
3,CXCPC,14,2,567,Correct,3,692
3,VXVXV,151,1,680,Correct,3,797
3,NUNZN,174,2,722,Correct,3,921
3,RKRVR,16,2,558,Correct,3,834
3,XRXRX,151,1,651,Correct,3,901
3,ERNFN,231,2,983,Incorrect,3,851
3,YRYNY,222,2,679,Correct,3,881
3,PZPEP,102,[2],[981],Incorrect,3,777
3,ZYZXZ,14,2,1307,Correct,3,818
3,RZRVR,162,2,1006,Correct,3,900
3,XRXRX,151,1,590,Correct,3,814
3,KUKFK,175,2,750,Correct,3,786
3,RKRKR,15,1,670,Correct,3,736
3,ZFZFZ,152,1,1115,Correct,3,773
3,YZYVY,161,2,899,Correct,3,869
3,XPXNX,162,2,632,Correct,3,834
3,YRYRY,151,1,705,Correct,3,922
3,EPVPV,221,2,739,Incorrect,3,697
3,CRCEC,112,[2][3],[987][1163],Correct,3,719
3,RFRCR,14,2,808,Correct,3,780
3,CPCVC,162,1,893,Incorrect,3,929
3,RXRCR,163,2,721,Correct,3,839
3,VNVLV,164,2,634,Correct,3,868
3,ZXZXZ,151,1,697,Correct,3,810
3,ZCZCZ,152,1,756,Correct,3,872
3,PYPUP,186,2,602,Correct,3,899
3,YKYPY,16,2,822,Correct,3,930
3,YREXY,233,2,831,Correct,3,767
3,ZKZKZ,113,1,651,Correct,3,738
3,XLXNX,161,2,524,Correct,3,770
3,KFKRE,235,2,688,Correct,3,805
3,RXRLR,222,2,755,Correct,3,653
3,RERXR,121,[2][3],[959][1135],Correct,3,768
4,J,5,3,892,New Target,4,751
4,CYCVC,161,2,941,Correct,4,893
4,RXRCR,162,2,818,Correct,4,743
4,FPFVF,163,2,814,Correct,4,710
4,LZLZL,151,1,698,Correct,4,702
4,PLPLP,152,1,601,Correct,4,823
4,NPNPN,153,1,837,Correct,4,884
4,XZXZX,161,1,756,Incorrect,4,661
4,CNCKC,162,1,720,Incorrect,4,784
4,PCPYJ,235,2,625,Correct,4,696
4,VYVYV,113,1,701,Correct,4,867
4,RLRLR,152,1,648,Correct,4,798
4,CJCJC,7,[1][3],[777][921],Correct,4,834
4,ZLZLZ,13,1,642,Correct,4,766
4,FZFZF,152,1,621,Correct,4,904
4,CFCFC,153,1,585,Correct,4,882
4,PZPZP,154,1,581,Correct,4,930
4,XEXEX,191,1,1076,Correct,4,913
4,NVNFN,16,2,688,Correct,4,862
4,KYKYK,151,1,624,Correct,4,760
4,ZNZVZ,161,1,755,Incorrect,4,761
4,YVJXY,233,2,708,Correct,4,670
4,XFXFX,113,1,580,Correct,4,740
4,XNXNX,152,1,568,Correct,4,810
4,FJFKF,81,[2][3],[1019][1147],Correct,4,934
4,CZCYC,14,2,815,Correct,4,660
4,ZXZCZ,162,2,584,Correct,4,753
4,RYRYJ,225,2,771,Incorrect,4,925
4,FPFZF,222,2,650,Correct,4,878
4,XRXRX,151,1,634,Correct,4,757
4,YPYEY,182,2,695,Correct,4,878
4,XRXRX,15,1,682,Correct,4,655
4,XZXPX,161,2,568,Correct,4,755
4,CJCJC,9,[1][3],[683][794],Correct,4,824
4,ZXZVZ,14,2,773,Correct,4,652
4,VKVKV,151,2,565,Incorrect,4,676
4,VEVNV,173,2,828,Correct,4,667
4,ZKZVZ,16,2,934,Correct,4,815
4,XVXJX,102,[2][3],[951][1079],Correct,4,726
4,RXRVR,14,2,497,Correct,4,906
4,LRLRL,151,1,1060,Correct,4,866
4,YNJNY,223,2,658,Incorrect,4,889
4,NPNJN,222,2,788,Correct,4,683
4,ZEZEZ,194,1,770,Correct,4,671
4,ZNZNZ,15,2,734,Incorrect,4,790
4,YZYZY,152,1,712,Correct,4,904
4,XYXYX,153,1,611,Correct,4,897
4,ZXZXZ,221,1,671,Correct,4,883
4,LYLZL,222,2,1081,Correct,4,885
4,CYCNC,162,2,652,Correct,4,699
4,XEXEX,195,1,607,Correct,4,693
4,CVCXC,16,2,574,Correct,4,900
4,ZPZXZ,162,2,561,Correct,4,741
4,FZFZF,151,1,637,Correct,4,945
4,RXRJR,112,[2][3],[887][999],Correct,4,746
4,PRPFP,14,2,599,Correct,4,830
4,PKPEP,186,2,917,Correct,4,865
4,XZXPX,16,2,421,Correct,4,928
4,JCZVZ,231,2,570,Correct,4,864
4,RXRLR,222,2,544,Correct,4,700
4,VZVZV,151,1,658,Correct,4,858
4,XJXJX,12,[1][3],[857][969],Correct,4,732
5,I,5,3,990,New Target,5,919
5,PCPCP,151,1,958,Correct,5,888
5,XYXYX,152,1,616,Correct,5,664
5,VXVXV,153,1,746,Correct,5,809
5,XVXVX,154,1,657,Correct,5,920
5,ZRZXZ,161,2,626,Correct,5,721
5,FPFZF,162,2,612,Correct,5,774
5,ZYZYZ,151,1,728,Correct,5,694
5,RVRZR,161,2,482,Correct,5,831
5,CICIC,7,[1][3],[572][716],Correct,5,950
5,XLXLX,13,1,760,Correct,5,791
5,YVYVY,152,1,564,Correct,5,736
5,CJCJC,191,1,1061,Correct,5,854
5,FNFCF,16,2,730,Correct,5,652
5,PVPRP,162,2,806,Correct,5,801
5,FZFZF,151,1,745,Correct,5,932
5,NVIVN,223,2,890,Incorrect,5,668
5,CVCIC,82,[2][1],[806][1157],Incorrect,5,941
5,ZXZXZ,13,1,814,Correct,5,904
5,FCFZF,161,2,1094,Correct,5,900
5,IXRXR,221,1,1537,Correct,5,879
5,ZPZNZ,222,2,961,Correct,5,719
5,VZVZV,151,1,577,Correct,5,926
5,YRYNY,161,2,756,Correct,5,765
5,VNVPV,162,2,772,Correct,5,662
5,RVRJR,182,2,676,Correct,5,707
5,VRVRV,15,2,527,Incorrect,5,928
5,VIVIV,9,[1][3],[650][778],Correct,5,767
5,CXCVC,14,2,668,Correct,5,660
5,PZPZP,151,1,669,Correct,5,758
5,IXVKV,231,2,567,Correct,5,943
5,YJYCY,173,1,789,Correct,5,928
5,VYVYV,15,1,621,Correct,5,788
5,YVYVY,152,1,875,Correct,5,865
5,NVNVN,153,1,720,Correct,5,803
5,XYXVX,161,2,654,Correct,5,783
5,NJNCN,174,2,653,Correct,5,851
5,NXNYN,16,2,735,Correct,5,695
5,VXVCV,162,2,536,Correct,5,833
5,ZKZKZ,151,1,749,Correct,5,807
5,XRXYX,161,2,535,Correct,5,775
5,ZCZXZ,162,2,698,Correct,5,849
5,KVKYI,235,2,730,Correct,5,660
5,CNCNC,113,1,553,Correct,5,771
5,RIRIR,10,[1][3],[726][822],Correct,5,677
5,VYVXV,14,2,610,Correct,5,834
5,FXIRF,233,2,755,Correct,5,753
5,PFPFP,113,1,922,Correct,5,872
5,VPVPV,152,1,661,Correct,5,669
5,ZJZJZ,195,1,1080,Correct,5,728
5,ZVZNZ,16,2,651,Correct,5,721
5,YVYXY,162,2,906,Correct,5,844
5,PRPRP,151,1,764,Correct,5,913
5,YPYPY,152,1,642,Correct,5,942
5,ZIZPZ,111,[2][3],[620][988],Correct,5,905
5,NKNXN,14,2,619,Correct,5,751
5,RZRXR,162,2,584,Correct,5,827
5,RXRXR,151,1,651,Correct,5,776
5,ZJZJZ,196,2,599,Incorrect,5,866
5,CVCVI,225,1,691,Incorrect,5,895
5,NKNKN,113,2,796,Incorrect,5,852
5,NRNZN,161,2,621,Correct,5,702
5,CNCNC,151,2,539,Incorrect,5,817
5,RFRIR,122,[2][3],[1103][1247],Correct,5,754
6,B,5,3,1035,New Target,6,893
6,YKYZY,161,2,704,Correct,6,808
6,VCVRV,162,2,472,Correct,6,926
6,XVXVX,151,1,666,Correct,6,863
6,KZKRK,161,2,582,Correct,6,881
6,ZVZXZ,162,2,615,Correct,6,876
6,RCRNR,163,2,522,Correct,6,703
6,CXCRC,164,2,460,Correct,6,851
6,VNBCV,233,2,1011,Correct,6,820
6,CXCVC,222,2,687,Correct,6,884
6,RFRFR,151,1,672,Correct,6,682
6,XPXRX,161,2,817,Correct,6,720
6,RYRBR,72,[2][3],[817][945],Correct,6,778
6,ZKZKZ,13,1,709,Correct,6,877
6,FIFRF,171,2,846,Correct,6,903
6,VZVLV,16,2,641,Correct,6,897
6,RPRVR,162,2,614,Correct,6,662
6,YBYBY,8,[1][3],[562][738],Correct,6,905
6,PYPVP,14,2,553,Correct,6,689
6,NININ,192,2,761,Incorrect,6,846
6,RNRNR,15,1,769,Correct,6,886
6,NXNVN,161,2,557,Correct,6,816
6,RNRNR,151,1,931,Correct,6,723
6,FRFVF,161,2,596,Correct,6,841
6,YVYFB,235,2,778,Incorrect,6,661
6,ZRZXZ,222,2,560,Correct,6,890
6,VNVIV,193,2,592,Incorrect,6,921
6,PXPNP,16,2,415,Correct,6,849
6,ZXZPZ,162,2,568,Correct,6,762
6,VBVBV,9,[1][3],[534][726],Correct,6,887
6,CXCXC,13,2,514,Incorrect,6,683
6,PCPFP,161,2,548,Correct,6,903
6,KNKNK,151,2,514,Incorrect,6,872
6,XIXIX,194,1,598,Correct,6,843
6,CYCYC,15,1,678,Correct,6,788
6,FVFYF,161,2,673,Correct,6,831
6,YNYRY,162,2,576,Correct,6,742
6,BVPXP,231,2,470,Correct,6,683
6,NXNXN,113,1,395,Correct,6,831
6,FRFRF,152,1,660,Correct,6,745
6,YVYVY,153,2,464,Incorrect,6,883
6,ZKZCZ,161,2,600,Correct,6,795
6,VIVXV,175,2,542,Correct,6,668
6,PRBRP,223,2,991,Incorrect,6,804
6,YZYBY,102,[2][3],[839][999],Correct,6,723
6,CXCVC,14,2,693,Correct,6,653
6,FYFYF,151,1,528,Correct,6,892
6,VKVXV,161,2,657,Correct,6,835
6,ZBZBZ,11,[1][3],[687][815],Correct,6,790
6,FPFNF,14,2,741,Correct,6,767
6,CXCXC,151,1,756,Correct,6,699
6,YCYCY,152,1,607,Correct,6,832
6,FPFPF,153,1,620,Correct,6,883
6,CVCVB,225,1,924,Correct,6,792
6,ZCZCZ,113,1,653,Correct,6,890
6,CZCNC,161,2,589,Correct,6,760
6,KIKFK,176,2,650,Correct,6,907
6,PXPXP,15,1,629,Correct,6,868
6,RYRYR,152,2,1156,Incorrect,6,870
6,ZRZCZ,161,2,763,Correct,6,873
6,RVRVR,151,1,733,Correct,6,650
6,XYXNX,161,2,668,Correct,6,760
6,BVKVK,221,2,776,Incorrect,6,798
6,CBCBC,12,[1][3],[721][881],Correct,6,673
7,W,5,3,1288,New Target,7,896
7,RKRKR,151,1,731,Correct,7,919
7,CVCRC,161,2,584,Correct,7,811
7,PKPKP,151,1,883,Correct,7,934
7,FPFPF,152,1,925,Correct,7,735
7,VRVPV,161,2,852,Correct,7,737
7,ZKZYZ,162,2,732,Correct,7,733
7,PVPCP,233,2,769,Correct,7,935
7,KVKVK,113,1,808,Correct,7,893
7,YXYVY,161,2,582,Correct,7,677
7,FNFNF,151,1,573,Correct,7,674
7,YWYWY,7,[1],[624],Incorrect,7,939
7,ZYZYZ,13,1,666,Correct,7,934
7,PYPYP,152,1,540,Correct,7,710
7,XRXRX,153,1,587,Correct,7,938
7,PXPXP,154,1,577,Correct,7,676
7,FCFBF,181,2,785,Correct,7,804
7,FVFVF,15,1,605,Correct,7,803
7,CYCZC,161,2,1036,Correct,7,791
7,XZXVX,162,2,846,Correct,7,746
7,PFPFP,151,1,578,Correct,7,872
7,RVRLR,161,2,793,Correct,7,719
7,ZBZBZ,192,1,703,Correct,7,833
7,VCVNV,16,2,1162,Correct,7,821
7,NWNWN,8,[1][3],[754][898],Correct,7,683
7,XNXVX,14,2,702,Correct,7,775
7,CXCNC,162,2,600,Correct,7,794
7,YVYVW,225,1,953,Correct,7,809
7,VFVFV,113,2,730,Incorrect,7,818
7,VFWFV,223,2,979,Incorrect,7,838
7,CVCFC,222,2,851,Correct,7,924
7,YBYBY,193,1,621,Correct,7,740
7,PYPYP,15,2,636,Incorrect,7,854
7,NKNWN,91,[2][3],[781][909],Correct,7,765
7,VNVNV,13,1,689,Correct,7,701
7,RVRVR,152,2,931,Incorrect,7,667
7,FVFBF,184,2,922,Incorrect,7,760
7,VZVKV,16,2,619,Correct,7,932
7,VPVCV,162,1,1006,Incorrect,7,728
7,WYZCZ,231,2,767,Correct,7,839
7,PFPFP,113,1,667,Correct,7,832
7,PRPRP,152,1,654,Correct,7,696
7,NWNWN,10,[1][3],[645][789],Correct,7,682
7,VKVCV,14,2,830,Correct,7,921
7,WPYPY,221,2,594,Incorrect,7,897
7,VBVBV,195,1,528,Correct,7,926
7,ZKZYZ,16,1,710,Incorrect,7,745
7,XYXYX,151,1,905,Correct,7,679
7,FZFXF,161,2,781,Correct,7,825
7,XKXKX,151,1,813,Correct,7,664
7,XPXPX,152,1,649,Correct,7,708
7,FWFWF,11,[1][3],[651][763],Correct,7,818
7,FNFBF,186,2,530,Correct,7,651
7,ZVZYZ,16,2,805,Correct,7,783
7,FZFZF,151,1,638,Correct,7,769
7,NPNFW,235,2,706,Correct,7,669
7,PCPCP,113,1,731,Correct,7,894
7,NKNWN,122,[2][3],[951][1127],Correct,7,687
8,M,5,3,997,New Target,8,722
8,VYVNV,161,1,660,Incorrect,8,845
8,KLKNK,162,2,661,Correct,8,812
8,NRNRN,151,2,711,Incorrect,8,750
8,VNVFV,161,2,568,Correct,8,685
8,XNXNM,225,1,718,Correct,8,693
8,CXCVC,222,2,586,Correct,8,760
8,KRKZK,162,2,445,Correct,8,733
8,NMNFN,71,[1][3],[754][1138],Incorrect,8,663
8,ZFZFZ,13,2,777,Incorrect,8,901
8,YPYCY,161,2,616,Correct,8,759
8,KCKCK,151,1,505,Correct,8,767
8,VNVNV,152,1,686,Correct,8,756
8,LXLXL,153,1,685,Correct,8,802
8,CLCLC,154,1,857,Correct,8,877
8,NYNYN,155,1,887,Correct,8,680
8,LCMYL,233,2,892,Correct,8,847
8,NCNCN,113,1,868,Correct,8,701
8,ZVZRZ,161,2,573,Correct,8,741
8,ZVZVZ,151,1,924,Correct,8,882
8,PZPVP,161,2,642,Correct,8,774
8,PWPNP,171,2,828,Correct,8,927
8,KLKCM,235,2,748,Correct,8,706
8,XMXMX,8,[1][3],[648][792],Correct,8,797
8,PRPXP,14,2,549,Correct,8,939
8,CVCYC,162,2,946,Correct,8,924
8,PXPMP,92,[2][3],[935][1063],Correct,8,805
8,ZCZLZ,14,2,945,Correct,8,720
8,XWXWX,192,1,677,Correct,8,752
8,ZCZLZ,16,2,648,Correct,8,722
8,MNCYC,231,2,868,Correct,8,874
8,ZXZXZ,113,2,729,Incorrect,8,884
8,YRYNY,161,2,681,Correct,8,679
8,ZLZPZ,162,2,614,Correct,8,789
8,VZVZV,151,1,690,Correct,8,896
8,MXPXP,221,2,800,Incorrect,8,761
8,VWVWV,193,1,952,Correct,8,800
8,PYPYP,16,1,652,Incorrect,8,831
8,XPXVX,162,2,758,Correct,8,937
8,XLXLX,151,1,729,Correct,8,653
8,YMYMY,10,[1][3],[850][978],Correct,8,737
8,VYVYV,13,1,744,Correct,8,673
8,PWPZP,174,2,544,Correct,8,944
8,PYPKP,16,2,515,Correct,8,800
8,NPNXN,162,2,829,Correct,8,669
8,KVKVK,223,1,692,Correct,8,793
8,NVNFN,222,2,1007,Correct,8,901
8,XNXNX,151,1,738,Correct,8,761
8,YZYMY,112,[2][3],[769][913],Correct,8,736
8,PFPFP,13,1,665,Correct,8,869
8,ZWZWZ,195,1,851,Correct,8,914
8,PCPZP,16,2,702,Correct,8,688
8,LRLPL,162,1,670,Incorrect,8,792
8,CZCZC,151,1,789,Correct,8,943
8,NZNZN,152,2,1195,Incorrect,8,879
8,CVCXC,161,2,675,Correct,8,878
8,XCXCX,151,1,670,Correct,8,907
8,YWYWY,196,2,737,Incorrect,8,750
8,NLNLN,15,1,989,Correct,8,722
8,VNVNV,152,1,621,Correct,8,816
8,ZMZMZ,12,[1][3],[823][950],Correct,8,677
9,S,5,3,963,New Target,9,793
9,NZNZN,151,2,587,Incorrect,9,788
9,KVKZK,161,2,576,Correct,9,745
9,LZLZL,151,1,535,Correct,9,725
9,XLXLX,152,1,644,Correct,9,927
9,ZXZXZ,153,1,557,Correct,9,950
9,KNKZK,161,2,643,Correct,9,689
9,NRNYN,162,2,566,Correct,9,736
9,CLCVC,163,2,791,Correct,9,858
9,ZCZFZ,164,2,576,Correct,9,787
9,NSNSN,7,[1][3],[532][884],Correct,9,928
9,VZVZV,13,1,575,Correct,9,807
9,NVNCN,161,2,771,Correct,9,730
9,VMVMV,191,1,679,Correct,9,942
9,CVCXC,16,2,594,Correct,9,932
9,ZYZRZ,162,2,719,Correct,9,941
9,XNXZX,163,2,529,Correct,9,650
9,PXPXP,151,1,662,Correct,9,807
9,VCVSV,82,[2][3],[779][923],Correct,9,936
9,PRPCP,14,2,626,Correct,9,701
9,ZMZMZ,192,1,630,Incorrect,9,677
9,ZFZFZ,15,2,642,Incorrect,9,939
9,FCFCF,152,1,879,Correct,9,812
9,YLYZY,161,2,669,Correct,9,656
9,KNKVK,162,2,670,Correct,9,721
9,SFPCP,231,2,846,Correct,9,790
9,RPRPR,113,1,585,Correct,9,735
9,XMXMX,193,1,798,Correct,9,663
9,KFKFK,15,1,731,Correct,9,770
9,VSVSV,9,[1][3],[711][839],Correct,9,735
9,YVSVY,223,2,838,Incorrect,9,850
9,VPVPV,113,2,739,Incorrect,9,683
9,XZXZX,152,1,588,Correct,9,876
9,KZKXK,161,2,810,Correct,9,880
9,RFRPR,162,1,682,Incorrect,9,657
9,NVNVS,225,2,970,Incorrect,9,767
9,ZXZXZ,113,2,603,Incorrect,9,944
9,SRVRV,221,2,943,Incorrect,9,668
9,YCYCY,113,1,566,Correct,9,748
9,KMKZK,174,2,828,Correct,9,676
9,FZSVF,233,1,1189,Incorrect,9,787
9,VYVYV,113,1,610,Correct,9,843
9,LVLVL,152,1,749,Correct,9,884
9,YFYFY,153,1,1077,Correct,9,867
9,NXNSN,102,[1][3],[827][987],Incorrect,9,832
9,FNFCF,14,2,868,Correct,9,668
9,KVKVK,151,1,749,Correct,9,805
9,VZVCV,161,2,795,Correct,9,744
9,ZYZMZ,185,2,1335,Correct,9,761
9,VXVZV,16,2,754,Correct,9,655
9,VPVPV,151,1,718,Correct,9,808
9,RVRNS,235,2,864,Correct,9,675
9,YZYZY,113,1,603,Correct,9,677
9,ZSZSZ,11,[1][3],[625][769],Correct,9,688
9,FRFRF,13,2,586,Incorrect,9,705
9,ZMZMZ,196,1,695,Correct,9,927
9,NZNXN,16,2,1202,Correct,9,839
9,LSLFL,121,[2][3],[615][743],Correct,9,652
10,Q,5,3,1042,New Target,10,693
10,ZVZPZ,161,2,837,Correct,10,739
10,RZRZR,151,2,476,Incorrect,10,855
10,ZFZFZ,152,2,685,Incorrect,10,912
10,RZRZR,153,1,528,Correct,10,693
10,PZPXP,161,2,575,Correct,10,947
10,VFQPV,233,2,785,Correct,10,835
10,ZPZRZ,222,2,957,Correct,10,739
10,CYCVC,162,2,771,Correct,10,768
10,CPCPC,151,2,745,Incorrect,10,905
10,YZYQY,72,[2][3],[1010][1154],Correct,10,735
10,FVFXF,14,2,687,Correct,10,766
10,YNYNQ,225,1,545,Correct,10,688
10,ZYZYZ,113,1,632,Correct,10,707
10,FRFSF,181,2,707,Incorrect,10,903
10,XNXPX,16,2,749,Correct,10,926
10,NXNXN,151,1,611,Correct,10,891
10,PVPZP,161,2,613,Correct,10,761
10,XVXPX,162,2,631,Correct,10,760
10,FXFVF,163,2,531,Correct,10,876
10,NSNKN,172,2,713,Incorrect,10,717
10,VXVNV,16,2,535,Correct,10,771
10,XZXZX,151,1,669,Correct,10,724
10,VQVQV,8,[1][3],[697][889],Correct,10,731
10,ZYZPZ,14,2,478,Correct,10,801
10,PZPSP,183,2,536,Correct,10,725
10,YVYVY,15,1,617,Correct,10,915
10,NCNQN,92,[2][3],[767][895],Correct,10,818
10,FCFVF,14,2,855,Correct,10,806
10,ZFZFZ,151,2,696,Incorrect,10,948
10,NSNSN,194,1,706,Correct,10,932
10,YPYFY,16,2,604,Correct,10,885
10,ZKZKZ,151,1,858,Correct,10,891
10,QZRCR,231,2,894,Correct,10,864
10,YPYVY,222,2,818,Correct,10,807
10,ZNZNZ,151,1,795,Correct,10,792
10,VQVQV,10,[1][3],[710][837],Correct,10,810
10,RVRZR,14,2,569,Correct,10,725
10,KRKSK,185,1,616,Incorrect,10,926
10,NPNPN,15,1,727,Correct,10,834
10,YPYPY,152,1,544,Correct,10,917
10,VCVYV,161,1,738,Incorrect,10,820
10,FPFNF,162,2,802,Correct,10,699
10,QVXVX,221,2,711,Incorrect,10,891
10,ZVZRZ,222,2,658,Correct,10,821
10,LFLFL,151,1,550,Correct,10,686
10,VLVLV,152,1,597,Correct,10,831
10,KXQXK,223,2,632,Incorrect,10,737
10,YQYQY,11,[1][3],[794][906],Correct,10,696
10,YCYCY,13,1,622,Correct,10,778
10,PZPYP,161,2,991,Correct,10,772
10,LPLFL,162,2,781,Correct,10,856
10,VSVSV,196,1,584,Correct,10,781
10,VFVYQ,235,2,886,Correct,10,917
10,CZCXC,222,2,872,Correct,10,865
10,PVPCP,162,2,686,Correct,10,787
10,CXCXC,151,1,633,Correct,10,855
10,NZNZN,152,2,634,Incorrect,10,705
10,YPYCY,161,1,604,Incorrect,10,756
10,ZQZQZ,12,[1][3],[816][944],Correct,10,790
11,T,5,3,1195,New Target,11,851
11,KFKFK,151,1,914,Correct,11,814
11,LZLZL,152,2,884,Incorrect,11,871
11,PFPVP,161,2,663,Correct,11,903
11,FRFPF,162,2,613,Correct,11,796
11,FZFZF,151,1,580,Correct,11,910
11,VTVTV,7,[1],[754],Incorrect,11,665
11,KYKCK,14,2,991,Correct,11,844
11,VPVPV,151,1,669,Correct,11,920
11,XQXQX,191,2,750,Incorrect,11,742
11,PZPYP,16,2,680,Correct,11,816
11,KXKLK,162,2,1000,Correct,11,713
11,TCNCN,221,1,842,Correct,11,800
11,PZPNP,222,2,578,Correct,11,808
11,RCRPR,162,2,583,Correct,11,705
11,PZPRT,235,2,762,Correct,11,795
11,XFXVX,222,2,535,Correct,11,713
11,LTLVL,81,[1][3],[854][997],Incorrect,11,674
11,ZCZPZ,14,2,765,Correct,11,806
11,NCNQN,182,2,932,Correct,11,933
11,XZXNX,16,2,770,Correct,11,886
11,ZPZPZ,151,1,914,Correct,11,651
11,CFCFC,152,1,851,Correct,11,937
11,VXTRV,233,2,1014,Correct,11,868
11,CFCVC,222,2,587,Correct,11,689
11,PYPYP,151,1,606,Correct,11,716
11,FQFYF,173,2,591,Correct,11,796
11,CNCFC,16,2,690,Correct,11,736
11,PTPTP,9,[1][3],[649][761],Correct,11,886
11,ZCZCZ,13,1,892,Correct,11,923
11,KZKZK,152,1,980,Correct,11,701
11,RLRVR,161,2,490,Correct,11,656
11,ZRZKZ,162,2,643,Correct,11,729
11,KLKLT,225,2,685,Incorrect,11,901
11,ZQZQZ,194,1,637,Correct,11,689
11,VZVZV,15,1,734,Correct,11,731
11,RVRZR,161,2,696,Correct,11,809
11,ZPZCZ,162,1,793,Incorrect,11,753
11,VYVYV,151,1,627,Correct,11,778
11,RVRVR,152,1,650,Correct,11,663
11,PTPTP,10,[1][3],[712][856],Correct,11,874
11,PXPXP,13,1,603,Correct,11,706
11,KCKCK,152,1,574,Correct,11,741
11,YVYVY,153,1,511,Correct,11,821
11,CYCYC,154,1,897,Correct,11,890
11,XCXCX,155,1,632,Correct,11,775
11,CYCQC,185,2,612,Correct,11,945
11,KCKNK,16,2,830,Correct,11,940
11,VPVPV,151,2,627,Incorrect,11,928
11,TXFZF,231,2,817,Correct,11,841
11,NYNVN,222,2,664,Correct,11,782
11,VQVXV,176,2,743,Correct,11,794
11,ZRZRZ,15,1,703,Correct,11,893
11,VTVZV,111,[2][3],[893][1021],Correct,11,675
11,PXPVP,14,2,751,Correct,11,716
11,FVFVF,151,2,614,Incorrect,11,906
11,VRVLV,161,2,825,Correct,11,773
11,YCYCY,151,1,486,Correct,11,655
11,XZTZX,223,2,957,Incorrect,11,752
11,VTVTV,12,[1][3],[696][872],Correct,11,770
12,O,5,3,1109,New Target,12,836
12,VXVLV,161,2,652,Correct,12,657
12,KVKCK,162,2,743,Correct,12,922
12,VLVLV,151,1,548,Correct,12,764
12,ZCZVZ,161,2,536,Correct,12,829
12,KFKFK,151,1,708,Correct,12,932
12,XKXKX,152,1,1110,Correct,12,654
12,YXYXY,153,1,664,Correct,12,706
12,FVFVF,154,1,791,Correct,12,829
12,PVPOP,72,[2][3],[854][982],Correct,12,669
12,ZXZYZ,14,2,687,Correct,12,877
12,PXPVP,162,2,621,Correct,12,779
12,ZTZTZ,191,1,911,Correct,12,775
12,CVCKC,16,2,596,Correct,12,843
12,CKCKC,151,2,609,Incorrect,12,886
12,NPNPN,152,2,632,Incorrect,12,661
12,ZRZNZ,161,2,667,Correct,12,721
12,OZCZC,221,1,970,Correct,12,801
12,LFLFL,113,1,671,Correct,12,721
12,CXCXC,152,1,796,Correct,12,822
12,KPKPK,153,1,676,Correct,12,841
12,FRFKF,161,2,811,Correct,12,950
12,FOFOF,8,[1][3],[728][856],Correct,12,772
12,ZFZFZ,13,1,628,Correct,12,923
12,LKLZO,235,2,676,Correct,12,769
12,KLKZK,222,2,792,Correct,12,712
12,YXYCY,162,2,607,Correct,12,876
12,LOLOL,9,[1][3],[640][785],Correct,12,822
12,XLXLX,13,2,756,Incorrect,12,705
12,XVXVX,152,1,576,Correct,12,698
12,FTFTF,192,1,717,Correct,12,753
12,OXNZN,231,2,648,Correct,12,743
12,CZCZC,113,1,817,Correct,12,818
12,LZLZL,152,1,655,Correct,12,934
12,VLVPV,161,2,617,Correct,12,739
12,VYVYO,225,2,681,Incorrect,12,656
12,XKXKX,113,1,898,Correct,12,830
12,RTRTR,193,1,659,Correct,12,781
12,KVKCK,16,2,961,Correct,12,657
12,ROROR,101,[1][3],[698][811],Correct,12,749
12,PRPRP,13,1,705,Correct,12,806
12,LYLVL,161,2,741,Correct,12,899
12,PLPLP,151,1,816,Correct,12,733
12,CTCTC,194,1,756,Correct,12,883
12,XZXYX,16,2,844,Correct,12,679
12,NKNKN,151,1,950,Correct,12,663
12,VLVZV,161,2,687,Correct,12,934
12,YOYOY,11,[1][3],[527][673],Correct,12,749
12,PZOZP,223,2,862,Incorrect,12,673
12,FYFYF,113,1,720,Correct,12,948
12,ZXZVZ,161,2,677,Correct,12,832
12,VKVZV,162,1,616,Incorrect,12,651
12,ZTZTZ,195,1,645,Correct,12,686
12,LKLZL,16,2,561,Correct,12,811
12,KCKVK,162,2,1214,Correct,12,741
12,PXPKP,163,2,501,Correct,12,712
12,KCOZK,233,2,626,Correct,12,861
12,FKFKF,113,2,826,Incorrect,12,901
12,CTCRC,176,2,642,Correct,12,696
12,NXNXN,15,2,569,Incorrect,12,889
12,KXKVK,161,2,760,Correct,12,803
12,CPCOC,122,[2][3],[845][1213],Correct,12,831
13,H,5,3,1374,New Target,13,947
13,VFVNV,151,2,696,Incorrect,13,708
13,YVYVY,152,,,Incorrect,13,871
13,XVXVX,153,1,740,Correct,13,783
13,NRNXN,161,2,638,Correct,13,746
13,PZPKP,162,2,533,Correct,13,889
13,HLVLV,221,2,560,Incorrect,13,864
13,CXCZC,222,2,476,Correct,13,803
13,LHLYL,71,[1][3],[728][1096],Incorrect,13,930
13,YKYFY,14,2,650,Correct,13,767
13,YOYRY,171,2,771,Correct,13,855
13,ZKZYZ,16,2,683,Correct,13,762
13,RZRZR,151,1,670,Correct,13,876
13,NFNYN,161,2,1117,Correct,13,698
13,KVKFK,162,2,645,Correct,13,801
13,XFXYX,163,2,909,Correct,13,853
13,LKLVL,164,2,939,Correct,13,808
13,NLNLN,151,1,631,Correct,13,871
13,XCXOX,182,2,606,Correct,13,940
13,FXFXF,15,1,715,Correct,13,763
13,VHVHV,8,[1][3],[789][934],Correct,13,914
13,PVPVP,13,1,613,Correct,13,844
13,CRCXC,161,2,1069,Correct,13,923
13,NXNXN,151,2,724,Incorrect,13,827
13,XRXRX,152,1,663,Correct,13,950
13,YFYXY,161,2,595,Correct,13,680
13,ZOZOZ,193,1,764,Correct,13,860
13,RZRZR,15,2,535,Incorrect,13,758
13,FKFKF,152,1,784,Correct,13,823
13,PFPFP,153,1,535,Correct,13,756
13,XYXHX,92,[2][3],[567][712],Correct,13,924
13,RZRKR,14,2,730,Correct,13,929
13,FLFLH,225,1,977,Correct,13,856
13,KRKRK,113,2,837,Incorrect,13,663
13,ZVZNZ,161,2,612,Correct,13,881
13,ZOZOZ,194,1,601,Correct,13,833
13,FZFZF,15,2,846,Incorrect,13,686
13,FHFKF,101,[1][3],[650][939],Incorrect,13,761
13,ZXHLZ,233,1,1272,Incorrect,13,727
13,FKFXF,222,2,893,Correct,13,709
13,CFCYC,162,2,720,Correct,13,708
13,ZXZVZ,163,2,562,Correct,13,912
13,KCKOK,185,2,835,Correct,13,732
13,ZXZVH,235,2,645,Correct,13,804
13,CKCKC,113,1,785,Correct,13,781
13,ZXZCZ,161,2,552,Correct,13,744
13,YVYVY,151,1,1159,Correct,13,684
13,RVHVR,223,1,895,Correct,13,731
13,ZRZRZ,113,1,761,Correct,13,902
13,ZHZHZ,11,[1][3],[715][841],Correct,13,683
13,VZVZV,13,1,843,Correct,13,934
13,HZVRV,231,2,651,Correct,13,869
13,FVFVF,113,1,566,Correct,13,781
13,RNRCR,161,2,557,Correct,13,934
13,COCOC,196,1,622,Correct,13,680
13,VNVXV,16,2,696,Correct,13,864
13,XHXHX,12,[2][1],[912][1375],Incorrect,13,790
14,G,5,3,911,New Target,14,866
14,FZFZF,151,1,647,Correct,14,738
14,RPRVR,161,2,531,Correct,14,791
14,XCXCX,151,1,530,Correct,14,724
14,YXYXY,152,1,590,Correct,14,835
14,KZKZK,153,1,746,Correct,14,809
14,RYRKR,161,2,563,Correct,14,795
14,FYFNF,162,2,605,Correct,14,815
14,VKVKV,151,2,538,Incorrect,14,824
14,KPGPK,223,1,905,Correct,14,666
14,YNYNY,113,1,681,Correct,14,816
14,VYVYV,152,1,646,Correct,14,666
14,YCYXY,161,2,627,Correct,14,655
14,LKLGL,72,[2][3],[745][888],Correct,14,925
14,VXVXV,13,1,581,Correct,14,892
14,KCKVK,161,2,625,Correct,14,878
14,YKYKY,151,1,554,Correct,14,781
14,RHRXR,171,2,505,Correct,14,761
14,FVFCF,16,1,529,Incorrect,14,934
14,YXYGY,82,[2][3],[862][1278],Correct,14,732
14,CLCLC,13,1,832,Correct,14,884
14,ZXZCZ,161,2,889,Correct,14,926
14,VLVFV,162,2,640,Correct,14,700
14,CPCPG,225,1,636,Correct,14,657
14,KHKNK,172,2,588,Correct,14,766
14,ZKZVZ,16,2,651,Correct,14,675
14,YKYLY,162,2,564,Correct,14,856
14,CNCNC,151,2,606,Incorrect,14,824
14,PGPGP,9,[1][3],[665][792],Correct,14,861
14,VPVPV,13,1,466,Correct,14,924
14,FXGRF,233,2,616,Correct,14,711
14,CYCVC,222,2,861,Correct,14,850
14,FNFNF,151,1,595,Correct,14,674
14,KFKCK,161,2,596,Correct,14,667
14,ZFZHZ,183,2,657,Correct,14,808
14,NXNXN,15,2,510,Incorrect,14,672
14,FNFNF,152,1,571,Correct,14,844
14,LXLNG,235,2,646,Correct,14,818
14,XKXVX,222,2,673,Correct,14,790
14,ZHZHZ,194,1,646,Correct,14,889
14,PFPFP,15,1,798,Correct,14,839
14,ZYZYZ,152,1,753,Correct,14,870
14,XPXVX,161,2,697,Correct,14,795
14,YCYCY,151,1,635,Correct,14,902
14,RGRGR,10,[2][3],[602][985],Incorrect,14,752
14,VRVRV,13,1,559,Correct,14,759
14,PKPNP,161,2,618,Correct,14,810
14,XGXGX,11,[1][3],[723][868],Correct,14,865
14,GZYVY,231,2,808,Correct,14,842
14,VCVNV,222,2,721,Correct,14,698
14,VHVHV,195,1,549,Correct,14,847
14,LXLNL,16,2,960,Correct,14,850
14,GKPKP,221,2,749,Incorrect,14,875
14,XRXPX,222,2,1011,Correct,14,730
14,XNXNX,151,1,642,Correct,14,782
14,KHKNK,176,2,1288,Incorrect,14,914
14,RZRZR,15,1,888,Correct,14,852
14,CGCFC,121,[2],[1505],Incorrect,14,884
15,A,5,3,925,New Target,15,747
15,XRXFX,161,2,544,Correct,15,706
15,RXRKR,162,2,558,Correct,15,817
15,YRYRY,151,1,638,Correct,15,771
15,XPXPX,152,1,506,Correct,15,765
15,RPRPR,153,1,598,Correct,15,877
15,NCNCN,154,1,646,Correct,15,730
15,RXRZR,161,2,533,Correct,15,660
15,NANAN,7,[1][3],[594][721],Correct,15,786
15,KCKYK,14,2,598,Correct,15,778
15,XKXFX,162,2,557,Correct,15,882
15,ZLZKZ,163,2,502,Correct,15,843
15,VCVZV,164,2,519,Correct,15,810
15,XCXVX,165,2,538,Correct,15,750
15,LKLZA,235,2,645,Correct,15,750
15,NCNCN,113,1,593,Correct,15,752
15,YGYGY,191,1,673,Correct,15,742
15,VLVLV,15,2,501,Incorrect,15,944
15,XRXRX,152,1,770,Correct,15,814
15,KAKPK,81,[1][3],[887][1047],Incorrect,15,944
15,YZAZY,233,1,920,Incorrect,15,677
15,CFCFC,113,1,789,Correct,15,791
15,VNVLV,161,2,632,Correct,15,860
15,KPKVK,162,2,999,Correct,15,771
15,NCNRN,163,2,799,Correct,15,809
15,FGFGF,192,1,624,Correct,15,902
15,RCRYR,16,2,633,Correct,15,934
15,KRKCK,162,2,676,Correct,15,790
15,CRCRC,151,1,1054,Correct,15,688
15,XPAPX,223,2,810,Incorrect,15,835
15,LPLXL,222,2,588,Correct,15,891
15,CGCVC,173,2,868,Correct,15,903
15,FKFZF,16,2,579,Correct,15,907
15,CACAC,9,[1][3],[743][870],Correct,15,680
15,XCXCX,13,1,644,Correct,15,690
15,AXRXR,221,1,1000,Correct,15,906
15,NKNRN,222,2,1124,Correct,15,910
15,KNKFK,162,2,719,Correct,15,650
15,KAKAK,10,[1][3],[739][916],Correct,15,794
15,ZCZRZ,14,2,704,Correct,15,814
15,RPRPR,151,1,676,Correct,15,851
15,NCNCN,152,2,875,Incorrect,15,892
15,RYRGR,184,2,833,Correct,15,656
15,VPVPV,15,1,769,Correct,15,853
15,RCRCA,225,2,983,Incorrect,15,839
15,KXKPK,222,2,529,Correct,15,904
15,NPNPN,151,2,761,Incorrect,15,905
15,YCYCY,152,2,802,Incorrect,15,779
15,PXPAP,112,[2][3],[881][1024],Correct,15,893
15,ZCZNZ,14,2,846,Correct,15,650
15,KYKGK,185,2,628,Correct,15,741
15,ANLPL,231,1,732,Incorrect,15,878
15,CXCPC,222,2,701,Correct,15,909
15,YRYRY,151,1,885,Correct,15,717
15,LGLGL,196,1,916,Correct,15,877
15,VYVLV,16,2,987,Correct,15,674
15,KVKVK,151,2,530,Incorrect,15,898
15,RKRKR,152,1,821,Correct,15,667
15,VXVXV,153,1,788,Correct,15,886
15,XAXAX,12,[1][3],[725][1060],Correct,15,861
