Trial No,Stimulus,Trigger,Response,Response Time(ms),Correct,Block,Fixation Duration
Practice
OT Practice
1,SKSKS,15,1,1479,Correct,0,867
1,DLDUD,16,2,990,Correct,0,878
1,PDPGP,16,2,1022,Correct,0,791
1,MWMWM,15,1,1132,Correct,0,758
1,FTFTF,15,1,949,Correct,0,861
1,AXAMA,16,2,890,Correct,0,725
1,RYRGR,16,2,1016,Correct,0,932
1,DODOD,15,1,1429,Correct,0,815
1,QTQAQ,16,2,824,Correct,0,670
1,YEYEY,15,1,978,Correct,0,695
2,GYGDG,16,2,847,Correct,0,910
2,SWSWS,15,1,738,Correct,0,871
2,HLHUH,16,2,1227,Correct,0,802
2,DEDED,15,1,1063,Correct,0,669
2,ZPZOZ,16,2,962,Correct,0,832
2,ATATA,15,1,975,Correct,0,825
2,QOQOQ,15,1,1355,Correct,0,865
2,FPFGF,16,2,1270,Correct,0,935
2,TRTET,16,2,1053,Correct,0,750
2,DQDQD,15,1,1290,Correct,0,721
4,PLPLP,15,1,911,Correct,0,877
4,ATAIA,16,2,816,Correct,0,813
4,SKSGS,16,2,838,Correct,0,812
4,ZYZYZ,15,1,907,Correct,0,834
4,QSQSQ,15,1,1024,Correct,0,730
4,TZTDT,16,2,834,Correct,0,714
4,JYJGJ,16,2,1337,Correct,0,788
4,DYDYD,15,1,687,Correct,0,719
4,LTLCL,16,2,676,Correct,0,902
4,FQFEF,16,1,1026,False,0,719
DT Practice
1,TKTKT,15,2,1392,False,0,665
1,SLSUS,16,,,False,0,850
1,VZVGV,7,[2],[710],False,0,706
1,XWXZX,7,[2],[1574],False,0,783
1,ATATA,15,2,1557,False,0,888
1,HXZMH,16,,,False,0,759
1,TZTZT,7,[1][3],[1124][1444],Correct,0,663
1,UOUOU,15,2,1110,False,0,711
1,ZTWAW,16,,,False,0,867
1,RZRER,7,[2][3],[1235][1571],Correct,0,921
2,JYJDJ,16,2,1093,Correct,0,841
2,DWDWD,15,2,1049,False,0,949
2,GNGNG,7,[1],[1568],False,0,785
2,NEZEZ,16,2,1592,False,0,839
2,RNROR,7,[2][3],[1168][1408],Correct,0,684
2,QTQNQ,7,[2][3],[1111][1367],Correct,0,750
2,HOHON,15,,,False,0,762
2,KPKGK,16,2,1388,Correct,0,944
2,DRDED,16,2,909,Correct,0,722
2,LNLNL,7,[1][3],[1051][1323],Correct,0,742
4,GLGLG,15,1,818,Correct,0,698
4,DTDID,16,2,825,Correct,0,752
4,SMSGS,16,2,1147,Correct,0,888
4,ZFZYZ,7,[2][3],[1123][1427],Correct,0,934
4,TSTFT,7,[2][3],[1065][1353],Correct,0,732
4,OFOFO,7,[1][3],[958][1230],Correct,0,920
4,WYFGW,16,2,880,Correct,0,757
4,WYWYW,15,1,1343,Correct,0,891
4,MFMCM,7,[2],[1416],False,0,716
4,HQHEH,16,,,False,0,714
Trials
1,D,5,3,15057,New Target,1,845
1,ZNZYZ,161,2,1264,Correct,1,889
1,FZFZF,151,2,1171,Incorrect,1,922
1,RKRKR,152,1,953,Correct,1,946
1,RXRNR,161,2,876,Correct,1,806
1,CNCFC,162,2,575,Correct,1,923
1,PDPDP,7,[1][3],[867][1171],Correct,1,802
1,CPCFC,14,2,1011,Correct,1,859
1,VLVNV,162,2,714,Correct,1,664
1,KFKFK,151,1,741,Correct,1,829
1,ZNZNZ,152,1,1008,Correct,1,767
1,KCKPD,235,2,836,Correct,1,753
1,ZKZFZ,222,2,840,Correct,1,897
1,NRNZN,162,2,967,Correct,1,671
1,KXKRK,163,2,841,Correct,1,796
1,YPYZY,164,2,899,Correct,1,717
1,FKDKF,223,1,1111,Correct,1,871
1,RPRPR,113,1,996,Correct,1,758
1,VRVKV,161,2,1478,Correct,1,820
1,RFRPR,162,2,907,Correct,1,664
1,KVKVK,151,1,955,Correct,1,909
1,YKYVY,161,2,1039,Correct,1,810
1,VDVDV,8,[1][3],[942][1293],Correct,1,863
1,DVZVZ,221,1,1120,Correct,1,706
1,YFYFY,113,1,812,Correct,1,882
1,ZYZYZ,152,1,778,Correct,1,673
1,VLVXV,161,2,929,Correct,1,865
1,DPXZX,231,2,885,Correct,1,811
1,RYRYR,113,1,884,Correct,1,922
1,PDPNP,91,[2][3],[1100][1388],Correct,1,740
1,KXKXK,13,1,821,Correct,1,933
1,ZYZYZ,152,1,800,Correct,1,771
1,VKVKV,153,1,852,Correct,1,933
1,YZYZY,154,1,1125,Correct,1,938
1,NLNZN,161,2,731,Correct,1,943
1,ZNDYZ,233,2,1190,Correct,1,771
1,PCPXP,222,2,725,Correct,1,712
1,ZVZFZ,162,2,614,Correct,1,653
1,RCRZR,163,2,743,Correct,1,773
1,LRLRL,151,1,808,Correct,1,669
1,ZDZDZ,10,[1][3],[1022][1326],Correct,1,915
1,RNRZR,14,2,870,Correct,1,947
1,CXCYC,162,2,794,Correct,1,895
1,RCRLR,163,2,967,Correct,1,758
1,FRFRF,151,1,729,Correct,1,852
1,XFXFX,152,1,693,Correct,1,823
1,RPRLR,161,2,1103,Correct,1,894
1,YXYRY,162,2,665,Correct,1,909
1,FYFYF,151,1,1000,Correct,1,786
1,YZYVY,161,2,721,Correct,1,657
1,YKYKY,151,1,749,Correct,1,731
1,XRXRX,152,1,1128,Correct,1,817
1,XVXZX,161,2,1299,Correct,1,877
1,PDPDP,11,[1][3],[836][1140],Correct,1,856
1,ZFZFZ,13,1,1097,Correct,1,937
1,PXPXP,152,1,787,Correct,1,909
1,LYLYL,153,1,1036,Correct,1,784
1,NKNKD,225,1,942,Correct,1,767
1,ZNZNZ,113,1,655,Correct,1,947
1,PYPZP,161,2,731,Correct,1,874
1,XPXPX,151,1,722,Correct,1,893
1,VLVLV,152,1,850,Correct,1,670
1,PKPXP,161,2,922,Correct,1,733
1,FZFZF,151,1,719,Correct,1,793
1,LDLDL,12,[1][3],[690][1058],Correct,1,933
2,U,5,3,4102,New Target,2,924
2,ZVZFZ,161,2,836,Correct,2,754
2,FZFZF,151,1,877,Correct,2,764
2,RFRFR,152,1,893,Correct,2,662
2,NZNKN,161,2,756,Correct,2,740
2,FZFNF,162,2,714,Correct,2,899
2,RXRXR,151,1,844,Correct,2,675
2,KRKYK,161,2,688,Correct,2,841
2,NZNPN,162,2,647,Correct,2,925
2,XPXPX,151,1,821,Correct,2,859
2,CUCUC,7,[1][3],[905][1289],Correct,2,871
2,RFRFR,13,1,834,Correct,2,710
2,VYVXV,161,2,891,Correct,2,826
2,VDVDV,191,1,1054,Correct,2,925
2,ZKZRZ,15,2,1132,Correct,2,889
2,XCXCX,151,1,920,Correct,2,796
2,CNCUC,82,[2][3],[1034][1402],Correct,2,902
2,RCRCR,13,1,1002,Correct,2,673
2,ZPZXZ,161,2,669,Correct,2,786
2,FKFYF,162,2,783,Correct,2,702
2,ZFZYZ,163,2,830,Correct,2,695
2,PXPXP,151,1,810,Correct,2,764
2,URCKC,231,2,1399,Correct,2,689
2,PCPCP,113,1,733,Correct,2,742
2,XNXNX,152,1,772,Correct,2,926
2,RCRZR,161,2,641,Correct,2,748
2,XVXVX,151,1,812,Correct,2,881
2,NRNRN,152,1,946,Correct,2,942
2,FPFPF,225,1,745,Correct,2,753
2,XVXFX,222,2,647,Correct,2,725
2,PRPRP,151,1,1035,Correct,2,671
2,FYFCF,161,2,1358,Correct,2,768
2,XUXFX,91,[2][3],[893][1213],Correct,2,817
2,CYCVC,14,2,1077,Correct,2,858
2,VDVKV,172,2,583,Correct,2,683
2,YCYCY,15,1,701,Correct,2,724
2,NKNLN,161,2,613,Correct,2,899
2,XPUKX,233,2,1033,Correct,2,736
2,ZPZPZ,113,1,758,Correct,2,920
2,KRKRK,152,1,765,Correct,2,917
2,XKXKX,153,1,833,Correct,2,942
2,YUYVY,101,[1][3],[967][1319],Incorrect,2,793
2,XKXFU,235,,,Incorrect,2,731
2,NFNFN,113,1,731,Correct,2,661
2,KDKDK,193,1,788,Correct,2,856
2,XYXKX,16,2,668,Correct,2,822
2,YZUZY,223,2,757,Incorrect,2,887
2,KFKVK,222,2,782,Correct,2,875
2,LYLYL,151,1,595,Correct,2,911
2,CXCDC,184,2,703,Incorrect,2,903
2,XZXNX,16,2,544,Correct,2,695
2,PXPXP,151,1,786,Correct,2,869
2,ZRZYZ,161,2,648,Correct,2,950
2,PUPYP,111,[1][3],[826][1114],Incorrect,2,779
2,RNRNR,14,1,732,Correct,2,798
2,KDKDK,195,1,923,Correct,2,669
2,KNKNK,15,1,846,Correct,2,805
2,PRPKP,161,2,871,Correct,2,755
2,UNYNY,221,1,923,Correct,2,839
2,NYNYN,113,1,924,Correct,2,888
2,YXYXY,152,1,692,Incorrect,2,721
2,RDRDR,196,1,735,Correct,2,900
2,FCFCF,15,1,616,Correct,2,842
2,ZKZKZ,152,2,631,Incorrect,2,807
2,ZUZUZ,12,[1][3],[993][1264],Correct,2,756
3,E,5,3,3491,New Target,3,778
3,YZYZY,151,1,851,Correct,3,870
3,VFVNV,161,2,697,Correct,3,885
3,KYKYK,151,1,880,Correct,3,949
3,NKNKN,152,1,786,Correct,3,865
3,XVXNX,161,2,744,Correct,3,929
3,RERFR,71,[2][3],[1106][1410],Correct,3,681
3,XNXNX,13,1,807,Correct,3,744
3,NXNXN,152,1,1073,Correct,3,772
3,ZLZNZ,161,2,723,Correct,3,770
3,CUCNC,171,2,1086,Correct,3,809
3,FYFRF,16,2,938,Correct,3,897
3,ZLZLZ,151,1,1065,Correct,3,900
3,YZYZY,152,1,911,Correct,3,656
3,CYCYC,153,1,1064,Correct,3,668
3,VUVUV,192,1,898,Correct,3,917
3,PXPRP,16,2,1050,Correct,3,732
3,YPYPY,151,1,837,Correct,3,937
3,CECEC,8,[1][3],[1212][1484],Correct,3,836
3,VNENV,223,1,1109,Correct,3,823
3,KRKFK,222,2,1567,Correct,3,831
3,XLXLE,225,1,890,Correct,3,802
3,RFRUR,183,2,995,Correct,3,741
3,XRXLX,16,2,638,Correct,3,936
3,NZNPN,162,2,834,Correct,3,657
3,XZXZX,151,1,715,Correct,3,764
3,FZFZF,152,1,729,Correct,3,781
3,PFPFP,153,1,745,Correct,3,690
3,YZYXY,161,2,662,Correct,3,767
3,KEKEK,9,[1][3],[770][1122],Correct,3,891
3,CXCPC,14,2,890,Correct,3,753
3,VXVXV,151,1,883,Correct,3,735
3,NUNZN,174,2,798,Correct,3,678
3,RKRVR,16,2,600,Correct,3,802
3,XRXRX,151,1,1022,Correct,3,672
3,ERNFN,231,2,1106,Incorrect,3,733
3,YRYNY,222,2,787,Correct,3,747
3,PZPEP,102,[2][3],[997][1269],Correct,3,785
3,ZYZXZ,14,2,862,Correct,3,860
3,RZRVR,162,2,868,Correct,3,878
3,XRXRX,151,1,776,Correct,3,859
3,KUKFK,175,2,566,Correct,3,728
3,RKRKR,15,1,809,Correct,3,767
3,ZFZFZ,152,1,679,Correct,3,711
3,YZYVY,161,2,666,Correct,3,693
3,XPXNX,162,2,635,Correct,3,730
3,YRYRY,151,1,735,Correct,3,656
3,EPVPV,221,1,985,Correct,3,813
3,CRCEC,112,[2][3],[1009][1264],Correct,3,775
3,RFRCR,14,2,1238,Correct,3,660
3,CPCVC,162,2,944,Correct,3,770
3,RXRCR,163,2,663,Correct,3,773
3,VNVLV,164,2,646,Correct,3,750
3,ZXZXZ,151,1,868,Correct,3,870
3,ZCZCZ,152,1,697,Correct,3,826
3,PYPUP,186,2,576,Correct,3,931
3,YKYPY,16,2,705,Correct,3,837
3,YREXY,233,2,1069,Correct,3,854
3,ZKZKZ,113,1,790,Correct,3,925
3,XLXNX,161,2,891,Correct,3,944
3,KFKRE,235,2,811,Correct,3,947
3,RXRLR,222,2,627,Correct,3,788
3,RERXR,121,[2][3],[831][1183],Correct,3,810
4,J,5,3,9992,New Target,4,872
4,CYCVC,161,2,1225,Correct,4,876
4,RXRCR,162,2,581,Correct,4,717
4,FPFVF,163,2,668,Correct,4,662
4,LZLZL,151,1,805,Correct,4,908
4,PLPLP,152,1,922,Correct,4,916
4,NPNPN,153,1,731,Correct,4,900
4,XZXZX,161,1,803,Incorrect,4,865
4,CNCKC,162,2,705,Correct,4,690
4,PCPYJ,235,2,1002,Correct,4,872
4,VYVYV,113,1,833,Correct,4,702
4,RLRLR,152,1,792,Correct,4,790
4,CJCJC,7,[1][3],[1140][1412],Correct,4,858
4,ZLZLZ,13,1,1229,Correct,4,721
4,FZFZF,152,1,840,Correct,4,778
4,CFCFC,153,1,1026,Correct,4,757
4,PZPZP,154,1,1040,Correct,4,920
4,XEXEX,191,1,880,Correct,4,801
4,NVNFN,16,2,682,Correct,4,723
4,KYKYK,151,1,740,Correct,4,909
4,ZNZVZ,161,2,850,Correct,4,755
4,YVJXY,233,2,1305,Correct,4,851
4,XFXFX,113,1,668,Correct,4,890
4,XNXNX,152,1,928,Correct,4,695
4,FJFKF,81,[2][3],[835][1171],Correct,4,667
4,CZCYC,14,2,852,Correct,4,678
4,ZXZCZ,162,2,583,Correct,4,950
4,RYRYJ,225,2,760,Incorrect,4,782
4,FPFZF,222,2,609,Correct,4,814
4,XRXRX,151,1,755,Correct,4,748
4,YPYEY,182,2,609,Correct,4,717
4,XRXRX,15,1,704,Correct,4,829
4,XZXPX,161,2,582,Correct,4,945
4,CJCJC,9,[1][3],[852][1203],Correct,4,811
4,ZXZVZ,14,2,633,Correct,4,879
4,VKVKV,151,1,972,Correct,4,722
4,VEVNV,173,2,1006,Correct,4,791
4,ZKZVZ,16,2,704,Correct,4,799
4,XVXJX,102,[2][3],[623][927],Correct,4,821
4,RXRVR,14,2,746,Correct,4,828
4,LRLRL,151,1,681,Correct,4,745
4,YNJNY,223,1,988,Correct,4,708
4,NPNJN,222,2,865,Correct,4,666
4,ZEZEZ,194,1,731,Correct,4,717
4,ZNZNZ,15,1,771,Correct,4,878
4,YZYZY,152,1,709,Correct,4,668
4,XYXYX,153,1,853,Correct,4,686
4,ZXZXZ,221,1,728,Correct,4,902
4,LYLZL,222,2,773,Correct,4,749
4,CYCNC,162,2,691,Correct,4,715
4,XEXEX,195,1,709,Correct,4,653
4,CVCXC,16,2,610,Correct,4,797
4,ZPZXZ,162,2,565,Correct,4,737
4,FZFZF,151,1,731,Correct,4,701
4,RXRJR,112,[2][3],[692][1316],Correct,4,796
4,PRPFP,14,2,1036,Correct,4,709
4,PKPEP,186,2,714,Correct,4,822
4,XZXPX,16,2,676,Correct,4,880
4,JCZVZ,231,2,607,Correct,4,908
4,RXRLR,222,2,782,Correct,4,804
4,VZVZV,151,1,730,Correct,4,691
4,XJXJX,12,[1][3],[694][998],Correct,4,826
5,I,5,3,1576,New Target,5,875
5,PCPCP,151,1,892,Correct,5,856
5,XYXYX,152,1,644,Correct,5,750
5,VXVXV,153,1,802,Correct,5,895
5,XVXVX,154,1,922,Correct,5,892
5,ZRZXZ,161,2,670,Correct,5,798
5,FPFZF,162,2,672,Correct,5,734
5,ZYZYZ,151,1,828,Correct,5,843
5,RVRZR,161,2,834,Correct,5,890
5,CICIC,7,[1][3],[874][1210],Correct,5,919
5,XLXLX,13,2,836,Incorrect,5,855
5,YVYVY,152,1,810,Correct,5,868
5,CJCJC,191,1,1541,Correct,5,766
5,FNFCF,16,2,1055,Correct,5,871
5,PVPRP,162,2,632,Correct,5,933
5,FZFZF,151,1,808,Correct,5,811
5,NVIVN,223,2,1010,Incorrect,5,792
5,CVCIC,82,[2],[1128],Incorrect,5,763
5,ZXZXZ,13,1,918,Correct,5,913
5,FCFZF,161,2,705,Correct,5,697
5,IXRXR,221,2,857,Incorrect,5,894
5,ZPZNZ,222,2,673,Correct,5,732
5,VZVZV,151,1,957,Correct,5,870
5,YRYNY,161,2,788,Correct,5,680
5,VNVPV,162,2,651,Correct,5,899
5,RVRJR,182,2,1098,Correct,5,847
5,VRVRV,15,1,746,Correct,5,715
5,VIVIV,9,[1][3],[763][1131],Correct,5,767
5,CXCVC,14,2,755,Correct,5,687
5,PZPZP,151,1,793,Correct,5,909
5,IXVKV,231,2,1252,Correct,5,795
5,YJYCY,173,2,908,Incorrect,5,840
5,VYVYV,15,1,785,Correct,5,780
5,YVYVY,152,1,825,Correct,5,825
5,NVNVN,153,1,1195,Correct,5,939
5,XYXVX,161,2,969,Correct,5,733
5,NJNCN,174,2,938,Correct,5,836
5,NXNYN,16,2,1166,Correct,5,808
5,VXVCV,162,2,836,Correct,5,945
5,ZKZKZ,151,1,883,Correct,5,671
5,XRXYX,161,2,743,Correct,5,794
5,ZCZXZ,162,2,753,Correct,5,913
5,KVKYI,235,2,928,Correct,5,691
5,CNCNC,113,1,775,Correct,5,720
5,RIRIR,10,[1][3],[734][1134],Correct,5,757
5,VYVXV,14,2,747,Correct,5,783
5,FXIRF,233,2,948,Correct,5,847
5,PFPFP,113,1,715,Correct,5,652
5,VPVPV,152,1,743,Correct,5,879
5,ZJZJZ,195,1,834,Correct,5,767
5,ZVZNZ,16,2,685,Correct,5,710
5,YVYXY,162,2,601,Correct,5,874
5,PRPRP,151,1,740,Correct,5,926
5,YPYPY,152,1,705,Correct,5,792
5,ZIZPZ,111,[2],[620],Incorrect,5,941
5,NKNXN,14,2,779,Correct,5,825
5,RZRXR,162,2,914,Correct,5,886
5,RXRXR,151,1,820,Correct,5,879
5,ZJZJZ,196,1,936,Correct,5,902
5,CVCVI,225,1,1146,Incorrect,5,875
5,NKNKN,113,1,754,Correct,5,929
5,NRNZN,161,2,736,Correct,5,779
5,CNCNC,151,1,668,Correct,5,766
5,RFRIR,122,[1][3],[895][1231],Incorrect,5,795
6,B,5,3,2499,New Target,6,788
6,YKYZY,161,2,1205,Correct,6,733
6,VCVRV,162,2,684,Correct,6,899
6,XVXVX,151,1,701,Correct,6,666
6,KZKRK,161,2,686,Correct,6,742
6,ZVZXZ,162,2,764,Correct,6,830
6,RCRNR,163,2,681,Correct,6,712
6,CXCRC,164,2,670,Correct,6,656
6,VNBCV,233,2,954,Correct,6,840
6,CXCVC,222,2,705,Correct,6,722
6,RFRFR,151,1,706,Correct,6,668
6,XPXRX,161,2,706,Correct,6,709
6,RYRBR,72,[2],[1064],Incorrect,6,772
6,ZKZKZ,13,1,963,Correct,6,836
6,FIFRF,171,2,993,Correct,6,933
6,VZVLV,16,2,628,Correct,6,746
6,RPRVR,162,2,820,Correct,6,765
6,YBYBY,8,[1][3],[743][1015],Correct,6,943
6,PYPVP,14,2,944,Correct,6,865
6,NININ,192,2,976,Incorrect,6,866
6,RNRNR,15,1,804,Correct,6,774
6,NXNVN,161,2,654,Correct,6,766
6,RNRNR,151,1,747,Correct,6,852
6,FRFVF,161,2,663,Correct,6,731
6,YVYFB,235,2,619,Incorrect,6,671
6,ZRZXZ,222,2,766,Correct,6,743
6,VNVIV,193,2,569,Incorrect,6,792
6,PXPNP,16,2,655,Correct,6,669
6,ZXZPZ,162,2,628,Correct,6,672
6,VBVBV,9,[1][3],[610][866],Correct,6,884
6,CXCXC,13,1,935,Correct,6,686
6,PCPFP,161,2,717,Correct,6,776
6,KNKNK,151,1,924,Correct,6,672
6,XIXIX,194,1,545,Correct,6,827
6,CYCYC,15,1,761,Correct,6,679
6,FVFYF,161,2,880,Correct,6,920
6,YNYRY,162,2,772,Correct,6,880
6,BVPXP,231,2,639,Correct,6,822
6,NXNXN,113,1,765,Correct,6,873
6,FRFRF,152,1,882,Correct,6,940
6,YVYVY,153,1,711,Correct,6,806
6,ZKZCZ,161,2,687,Correct,6,934
6,VIVXV,175,2,671,Correct,6,779
6,PRBRP,223,1,1581,Correct,6,769
6,YZYBY,102,[2][3],[1047][1383],Correct,6,710
6,CXCVC,14,2,953,Correct,6,853
6,FYFYF,151,1,987,Correct,6,852
6,VKVXV,161,2,1183,Correct,6,813
6,ZBZBZ,11,[1][3],[846][1214],Correct,6,831
6,FPFNF,14,2,742,Correct,6,913
6,CXCXC,151,1,976,Correct,6,824
6,YCYCY,152,1,783,Correct,6,921
6,FPFPF,153,1,727,Correct,6,844
6,CVCVB,225,1,945,Correct,6,822
6,ZCZCZ,113,1,885,Correct,6,798
6,CZCNC,161,2,895,Correct,6,663
6,KIKFK,176,2,871,Correct,6,711
6,PXPXP,15,1,715,Correct,6,847
6,RYRYR,152,1,833,Correct,6,915
6,ZRZCZ,161,2,703,Correct,6,696
6,RVRVR,151,1,950,Correct,6,933
6,XYXNX,161,2,756,Correct,6,917
6,BVKVK,221,1,898,Correct,6,758
6,CBCBC,12,[1][3],[805][1108],Correct,6,886
7,W,5,3,3902,New Target,7,675
7,RKRKR,151,1,864,Correct,7,881
7,CVCRC,161,2,677,Correct,7,851
7,PKPKP,151,1,805,Correct,7,755
7,FPFPF,152,1,668,Correct,7,863
7,VRVPV,161,2,859,Correct,7,771
7,ZKZYZ,162,2,720,Correct,7,851
7,PVPCP,233,2,748,Correct,7,768
7,KVKVK,113,1,945,Correct,7,946
7,YXYVY,161,2,923,Correct,7,679
7,FNFNF,151,1,707,Correct,7,676
7,YWYWY,7,[1][3],[713][1033],Correct,7,870
7,ZYZYZ,13,1,707,Correct,7,856
7,PYPYP,152,1,716,Correct,7,917
7,XRXRX,153,1,678,Correct,7,898
7,PXPXP,154,1,725,Correct,7,724
7,FCFBF,181,2,630,Correct,7,703
7,FVFVF,15,1,738,Correct,7,881
7,CYCZC,161,2,922,Correct,7,902
7,XZXVX,162,2,946,Correct,7,713
7,PFPFP,151,1,803,Correct,7,929
7,RVRLR,161,2,637,Correct,7,749
7,ZBZBZ,192,1,908,Correct,7,775
7,VCVNV,16,2,659,Correct,7,713
7,NWNWN,8,[1][3],[819][1203],Correct,7,938
7,XNXVX,14,2,753,Correct,7,733
7,CXCNC,162,2,1197,Correct,7,844
7,YVYVW,225,1,730,Correct,7,733
7,VFVFV,113,1,743,Correct,7,761
7,VFWFV,223,1,1045,Correct,7,758
7,CVCFC,222,2,737,Correct,7,879
7,YBYBY,193,1,780,Correct,7,818
7,PYPYP,15,1,657,Correct,7,907
7,NKNWN,91,[2][3],[1070][1342],Correct,7,747
7,VNVNV,13,1,995,Correct,7,721
7,RVRVR,152,1,761,Correct,7,693
7,FVFBF,184,2,625,Incorrect,7,885
7,VZVKV,16,2,964,Correct,7,744
7,VPVCV,162,2,649,Correct,7,733
7,WYZCZ,231,2,1052,Correct,7,717
7,PFPFP,113,1,687,Correct,7,674
7,PRPRP,152,1,765,Correct,7,797
7,NWNWN,10,[1][3],[1163][1419],Correct,7,701
7,VKVCV,14,2,923,Correct,7,755
7,WPYPY,221,1,752,Correct,7,752
7,VBVBV,195,1,699,Correct,7,790
7,ZKZYZ,16,2,661,Correct,7,946
7,XYXYX,151,1,833,Correct,7,872
7,FZFXF,161,2,822,Correct,7,869
7,XKXKX,151,1,850,Correct,7,713
7,XPXPX,152,1,747,Correct,7,727
7,FWFWF,11,[1][3],[825][1177],Correct,7,756
7,FNFBF,186,2,654,Correct,7,804
7,ZVZYZ,16,2,603,Correct,7,824
7,FZFZF,151,1,775,Correct,7,945
7,NPNFW,235,2,845,Correct,7,907
7,PCPCP,113,1,788,Correct,7,804
7,NKNWN,122,[2][3],[919][1223],Correct,7,749
8,M,5,3,3267,New Target,8,778
8,VYVNV,161,2,1005,Correct,8,674
8,KLKNK,162,2,948,Correct,8,691
8,NRNRN,151,1,803,Correct,8,894
8,VNVFV,161,2,698,Correct,8,821
8,XNXNM,225,1,985,Correct,8,805
8,CXCVC,222,2,919,Correct,8,892
8,KRKZK,162,2,1054,Correct,8,759
8,NMNFN,71,[2][3],[1206][1462],Correct,8,855
8,ZFZFZ,13,1,874,Correct,8,672
8,YPYCY,161,2,668,Correct,8,903
8,KCKCK,151,1,822,Correct,8,928
8,VNVNV,152,1,1196,Correct,8,860
8,LXLXL,153,1,804,Correct,8,883
8,CLCLC,154,1,882,Correct,8,730
8,NYNYN,155,1,836,Correct,8,924
8,LCMYL,233,2,689,Correct,8,702
8,NCNCN,113,1,617,Correct,8,925
8,ZVZRZ,161,2,1450,Correct,8,749
8,ZVZVZ,151,1,965,Correct,8,944
8,PZPVP,161,2,798,Correct,8,672
8,PWPNP,171,2,1064,Correct,8,725
8,KLKCM,235,2,1122,Correct,8,885
8,XMXMX,8,[1][3],[865][1153],Correct,8,746
8,PRPXP,14,2,805,Correct,8,887
8,CVCYC,162,2,736,Correct,8,739
8,PXPMP,92,[2][3],[997][1413],Correct,8,920
8,ZCZLZ,14,2,675,Correct,8,687
8,XWXWX,192,2,755,Incorrect,8,719
8,ZCZLZ,16,2,628,Correct,8,675
8,MNCYC,231,2,1188,Correct,8,843
8,ZXZXZ,113,1,889,Correct,8,903
8,YRYNY,161,2,618,Correct,8,928
8,ZLZPZ,162,2,647,Correct,8,895
8,VZVZV,151,1,732,Correct,8,662
8,MXPXP,221,1,775,Correct,8,821
8,VWVWV,193,2,1158,Incorrect,8,678
8,PYPYP,16,1,707,Incorrect,8,772
8,XPXVX,162,2,754,Correct,8,697
8,XLXLX,151,1,729,Correct,8,862
8,YMYMY,10,[1],[1329],Incorrect,8,658
8,VYVYV,13,1,660,Correct,8,672
8,PWPZP,174,2,708,Correct,8,787
8,PYPKP,16,2,981,Correct,8,728
8,NPNXN,162,2,725,Correct,8,809
8,KVKVK,223,1,864,Correct,8,838
8,NVNFN,222,2,729,Correct,8,781
8,XNXNX,151,1,1010,Correct,8,905
8,YZYMY,112,[2][3],[868][1252],Correct,8,651
8,PFPFP,13,1,782,Correct,8,689
8,ZWZWZ,195,2,982,Incorrect,8,802
8,PCPZP,16,2,662,Correct,8,842
8,LRLPL,162,2,961,Correct,8,899
8,CZCZC,151,1,722,Correct,8,882
8,NZNZN,152,1,685,Correct,8,845
8,CVCXC,161,2,715,Correct,8,778
8,XCXCX,151,1,708,Correct,8,860
8,YWYWY,196,1,1154,Correct,8,759
8,NLNLN,15,1,765,Correct,8,873
8,VNVNV,152,1,881,Correct,8,908
8,ZMZMZ,12,[1][3],[771][1139],Correct,8,782
9,S,5,3,6435,New Target,9,747
9,NZNZN,151,1,909,Correct,9,677
9,KVKZK,161,2,658,Correct,9,780
9,LZLZL,151,1,765,Correct,9,884
9,XLXLX,152,1,760,Correct,9,783
9,ZXZXZ,153,1,718,Correct,9,942
9,KNKZK,161,2,859,Correct,9,832
9,NRNYN,162,2,910,Correct,9,848
9,CLCVC,163,2,686,Correct,9,942
9,ZCZFZ,164,2,619,Correct,9,846
9,NSNSN,7,[1][3],[952][1288],Correct,9,877
9,VZVZV,13,1,821,Correct,9,901
9,NVNCN,161,2,738,Correct,9,743
9,VMVMV,191,1,937,Correct,9,946
9,CVCXC,16,2,670,Correct,9,790
9,ZYZRZ,162,2,702,Correct,9,770
9,XNXZX,163,2,798,Correct,9,715
9,PXPXP,151,2,600,Incorrect,9,853
9,VCVSV,82,[2][3],[1072][1344],Correct,9,661
9,PRPCP,14,2,758,Correct,9,941
9,ZMZMZ,192,1,846,Incorrect,9,913
9,ZFZFZ,15,1,682,Correct,9,746
9,FCFCF,152,1,729,Correct,9,791
9,YLYZY,161,2,646,Correct,9,749
9,KNKVK,162,2,730,Correct,9,670
9,SFPCP,231,2,827,Correct,9,660
9,RPRPR,113,1,807,Correct,9,689
9,XMXMX,193,1,750,Correct,9,856
9,KFKFK,15,1,790,Correct,9,901
9,VSVSV,9,[1][3],[679][1031],Correct,9,860
9,YVSVY,223,1,981,Correct,9,837
9,VPVPV,113,1,713,Correct,9,767
9,XZXZX,152,1,619,Correct,9,652
9,KZKXK,161,2,698,Correct,9,809
9,RFRPR,162,2,844,Correct,9,687
9,NVNVS,225,2,690,Incorrect,9,911
9,ZXZXZ,113,2,578,Incorrect,9,754
9,SRVRV,221,1,1025,Correct,9,857
9,YCYCY,113,1,812,Correct,9,914
9,KMKZK,174,2,816,Correct,9,948
9,FZSVF,233,2,639,Correct,9,650
9,VYVYV,113,1,781,Correct,9,911
9,LVLVL,152,1,665,Correct,9,748
9,YFYFY,153,1,555,Correct,9,661
9,NXNSN,102,[2][3],[726][1094],Correct,9,738
9,FNFCF,14,2,721,Correct,9,950
9,KVKVK,151,1,862,Correct,9,835
9,VZVCV,161,2,664,Correct,9,728
9,ZYZMZ,185,2,674,Correct,9,868
9,VXVZV,16,2,612,Correct,9,715
9,VPVPV,151,1,664,Correct,9,672
9,RVRNS,235,2,662,Correct,9,839
9,YZYZY,113,1,657,Correct,9,831
9,ZSZSZ,11,[1][3],[597][933],Correct,9,795
9,FRFRF,13,1,701,Correct,9,848
9,ZMZMZ,196,2,748,Incorrect,9,697
9,NZNXN,16,2,635,Correct,9,677
9,LSLFL,121,[2][3],[732][1212],Correct,9,755
10,Q,5,3,5851,New Target,10,689
10,ZVZPZ,161,,,Incorrect,10,689
10,RZRZR,151,1,824,Correct,10,943
10,ZFZFZ,152,1,637,Correct,10,866
10,RZRZR,153,1,623,Correct,10,715
10,PZPXP,161,2,622,Correct,10,832
10,VFQPV,233,2,820,Correct,10,662
10,ZPZRZ,222,2,929,Correct,10,685
10,CYCVC,162,2,1015,Correct,10,804
10,CPCPC,151,1,686,Correct,10,689
10,YZYQY,72,[2][3],[1125][1557],Correct,10,656
10,FVFXF,14,2,1059,Correct,10,943
10,YNYNQ,225,1,883,Correct,10,799
10,ZYZYZ,113,1,709,Correct,10,891
10,FRFSF,181,2,1319,Incorrect,10,694
10,XNXPX,16,2,1034,Correct,10,869
10,NXNXN,151,1,808,Correct,10,839
10,PVPZP,161,2,711,Correct,10,676
10,XVXPX,162,2,675,Correct,10,862
10,FXFVF,163,2,646,Correct,10,704
10,NSNKN,172,2,843,Incorrect,10,716
10,VXVNV,16,2,623,Correct,10,895
10,XZXZX,151,1,561,Correct,10,746
10,VQVQV,8,[1][3],[817][1153],Correct,10,667
10,ZYZPZ,14,2,718,Correct,10,854
10,PZPSP,183,2,740,Correct,10,945
10,YVYVY,15,1,851,Correct,10,720
10,NCNQN,92,[2][3],[1186][1458],Correct,10,938
10,FCFVF,14,2,719,Correct,10,751
10,ZFZFZ,151,1,930,Correct,10,654
10,NSNSN,194,1,670,Correct,10,655
10,YPYFY,16,2,684,Correct,10,800
10,ZKZKZ,151,2,788,Incorrect,10,923
10,QZRCR,231,2,767,Correct,10,721
10,YPYVY,222,2,734,Correct,10,672
10,ZNZNZ,151,1,876,Correct,10,770
10,VQVQV,10,[1][3],[628][964],Correct,10,672
10,RVRZR,14,2,882,Correct,10,861
10,KRKSK,185,2,999,Correct,10,866
10,NPNPN,15,1,952,Correct,10,863
10,YPYPY,152,1,769,Correct,10,690
10,VCVYV,161,2,691,Correct,10,663
10,FPFNF,162,2,895,Correct,10,825
10,QVXVX,221,2,732,Incorrect,10,664
10,ZVZRZ,222,2,839,Correct,10,885
10,LFLFL,151,1,752,Correct,10,741
10,VLVLV,152,1,847,Correct,10,653
10,KXQXK,223,1,1417,Correct,10,702
10,YQYQY,11,[1][3],[865][1201],Correct,10,884
10,YCYCY,13,1,737,Correct,10,710
10,PZPYP,161,2,727,Correct,10,926
10,LPLFL,162,2,872,Correct,10,697
10,VSVSV,196,1,745,Correct,10,930
10,VFVYQ,235,2,833,Correct,10,928
10,CZCXC,222,2,965,Correct,10,853
10,PVPCP,162,2,679,Correct,10,812
10,CXCXC,151,1,759,Correct,10,799
10,NZNZN,152,1,679,Correct,10,679
10,YPYCY,161,2,741,Correct,10,762
10,ZQZQZ,12,[1][3],[672][1072],Correct,10,664
11,T,5,3,2321,New Target,11,741
11,KFKFK,151,1,1095,Correct,11,748
11,LZLZL,152,1,716,Correct,11,687
11,PFPVP,161,2,693,Correct,11,833
11,FRFPF,162,2,884,Correct,11,794
11,FZFZF,151,1,622,Correct,11,729
11,VTVTV,7,[1][3],[769][1057],Correct,11,817
11,KYKCK,14,2,757,Correct,11,819
11,VPVPV,151,1,698,Correct,11,923
11,XQXQX,191,1,839,Correct,11,827
11,PZPYP,16,2,717,Correct,11,826
11,KXKLK,162,2,821,Correct,11,899
11,TCNCN,221,1,705,Correct,11,686
11,PZPNP,222,2,734,Correct,11,841
11,RCRPR,162,2,935,Correct,11,891
11,PZPRT,235,2,956,Correct,11,844
11,XFXVX,222,2,639,Correct,11,719
11,LTLVL,81,[2][3],[1280][1520],Correct,11,747
11,ZCZPZ,14,2,708,Correct,11,851
11,NCNQN,182,2,932,Correct,11,703
11,XZXNX,16,2,628,Correct,11,947
11,ZPZPZ,151,1,865,Correct,11,833
11,CFCFC,152,1,853,Correct,11,897
11,VXTRV,233,2,810,Correct,11,824
11,CFCVC,222,2,961,Correct,11,875
11,PYPYP,151,1,795,Correct,11,655
11,FQFYF,173,2,1064,Correct,11,777
11,CNCFC,16,2,804,Correct,11,896
11,PTPTP,9,[1][3],[1254][1542],Correct,11,816
11,ZCZCZ,13,1,995,Correct,11,763
11,KZKZK,152,1,692,Correct,11,834
11,RLRVR,161,2,624,Correct,11,825
11,ZRZKZ,162,2,669,Correct,11,915
11,KLKLT,225,1,1096,Correct,11,838
11,ZQZQZ,194,1,762,Correct,11,712
11,VZVZV,15,1,964,Correct,11,845
11,RVRZR,161,2,806,Correct,11,795
11,ZPZCZ,162,2,686,Correct,11,874
11,VYVYV,151,1,984,Correct,11,867
11,RVRVR,152,1,668,Correct,11,804
11,PTPTP,10,[1][3],[987][1227],Correct,11,849
11,PXPXP,13,1,1243,Correct,11,753
11,KCKCK,152,1,695,Correct,11,696
11,YVYVY,153,1,740,Correct,11,796
11,CYCYC,154,1,702,Correct,11,888
11,XCXCX,155,1,621,Correct,11,706
11,CYCQC,185,2,781,Correct,11,788
11,KCKNK,16,2,716,Correct,11,675
11,VPVPV,151,1,700,Correct,11,663
11,TXFZF,231,2,664,Correct,11,820
11,NYNVN,222,2,695,Correct,11,806
11,VQVXV,176,2,613,Correct,11,815
11,ZRZRZ,15,1,681,Correct,11,676
11,VTVZV,111,[2][3],[921][1145],Correct,11,878
11,PXPVP,14,2,843,Correct,11,809
11,FVFVF,151,1,823,Correct,11,726
11,VRVLV,161,2,991,Correct,11,785
11,YCYCY,151,1,683,Correct,11,919
11,XZTZX,223,1,925,Correct,11,655
11,VTVTV,12,[1][3],[924][1148],Correct,11,662
12,O,5,3,5930,New Target,12,775
12,VXVLV,161,2,862,Correct,12,766
12,KVKCK,162,2,679,Correct,12,733
12,VLVLV,151,1,756,Correct,12,785
12,ZCZVZ,161,2,756,Correct,12,707
12,KFKFK,151,1,700,Correct,12,933
12,XKXKX,152,1,721,Correct,12,940
12,YXYXY,153,1,1021,Correct,12,822
12,FVFVF,154,1,1129,Correct,12,908
12,PVPOP,72,[2][3],[927][1279],Correct,12,937
12,ZXZYZ,14,2,996,Correct,12,778
12,PXPVP,162,2,774,Correct,12,781
12,ZTZTZ,191,1,797,Correct,12,881
12,CVCKC,16,2,1028,Correct,12,919
12,CKCKC,151,1,827,Correct,12,673
12,NPNPN,152,1,590,Correct,12,898
12,ZRZNZ,161,2,651,Correct,12,938
12,OZCZC,221,1,921,Correct,12,829
12,LFLFL,113,1,647,Correct,12,901
12,CXCXC,152,1,919,Correct,12,822
12,KPKPK,153,1,650,Correct,12,875
12,FRFKF,161,2,774,Correct,12,902
12,FOFOF,8,[1][3],[1048][1288],Correct,12,677
12,ZFZFZ,13,1,1188,Correct,12,778
12,LKLZO,235,2,669,Correct,12,830
12,KLKZK,222,2,779,Correct,12,799
12,YXYCY,162,2,762,Correct,12,697
12,LOLOL,9,[1][3],[1015][1207],Correct,12,792
12,XLXLX,13,1,824,Correct,12,774
12,XVXVX,152,2,824,Incorrect,12,945
12,FTFTF,192,1,645,Correct,12,779
12,OXNZN,231,2,943,Correct,12,923
12,CZCZC,113,1,848,Correct,12,859
12,LZLZL,152,1,754,Correct,12,932
12,VLVPV,161,2,735,Correct,12,765
12,VYVYO,225,1,1121,Correct,12,678
12,XKXKX,113,1,690,Correct,12,702
12,RTRTR,193,1,750,Correct,12,872
12,KVKCK,16,2,683,Correct,12,780
12,ROROR,101,[1][3],[895][1327],Correct,12,773
12,PRPRP,13,1,952,Correct,12,847
12,LYLVL,161,2,674,Correct,12,670
12,PLPLP,151,1,1011,Correct,12,780
12,CTCTC,194,1,722,Correct,12,831
12,XZXYX,16,2,671,Correct,12,763
12,NKNKN,151,1,973,Correct,12,876
12,VLVZV,161,2,752,Correct,12,751
12,YOYOY,11,[1][3],[876][1148],Correct,12,778
12,PZOZP,223,2,899,Incorrect,12,744
12,FYFYF,113,1,894,Correct,12,694
12,ZXZVZ,161,2,963,Correct,12,758
12,VKVZV,162,2,679,Correct,12,817
12,ZTZTZ,195,1,883,Correct,12,876
12,LKLZL,16,2,1046,Correct,12,894
12,KCKVK,162,2,794,Correct,12,723
12,PXPKP,163,2,1290,Correct,12,667
12,KCOZK,233,2,1122,Correct,12,801
12,FKFKF,113,1,778,Correct,12,941
12,CTCRC,176,2,945,Correct,12,895
12,NXNXN,15,1,919,Correct,12,765
12,KXKVK,161,2,1225,Correct,12,871
12,CPCOC,122,[2][3],[1192][1560],Correct,12,841
13,H,5,3,4894,New Target,13,848
13,VFVNV,151,2,902,Incorrect,13,857
13,YVYVY,152,1,749,Correct,13,700
13,XVXVX,153,1,794,Correct,13,683
13,NRNXN,161,2,673,Correct,13,927
13,PZPKP,162,2,750,Correct,13,848
13,HLVLV,221,1,748,Correct,13,653
13,CXCZC,222,2,648,Correct,13,805
13,LHLYL,71,[2][3],[1239][1463],Correct,13,922
13,YKYFY,14,2,988,Correct,13,796
13,YOYRY,171,2,989,Correct,13,818
13,ZKZYZ,16,2,772,Correct,13,710
13,RZRZR,151,1,788,Correct,13,657
13,NFNYN,161,2,1181,Correct,13,812
13,KVKFK,162,2,1550,Correct,13,669
13,XFXYX,163,2,687,Correct,13,662
13,LKLVL,164,2,1175,Correct,13,902
13,NLNLN,151,1,732,Correct,13,947
13,XCXOX,182,2,805,Correct,13,821
13,FXFXF,15,1,799,Correct,13,793
13,VHVHV,8,[1][3],[1254][1478],Correct,13,943
13,PVPVP,13,1,1292,Correct,13,844
13,CRCXC,161,2,800,Correct,13,858
13,NXNXN,151,1,747,Correct,13,781
13,XRXRX,152,1,745,Correct,13,726
13,YFYXY,161,2,804,Correct,13,828
13,ZOZOZ,193,1,908,Correct,13,855
13,RZRZR,15,1,853,Correct,13,733
13,FKFKF,152,1,1230,Correct,13,728
13,PFPFP,153,1,969,Correct,13,793
13,XYXHX,92,[2][3],[699][1115],Correct,13,670
13,RZRKR,14,2,744,Correct,13,792
13,FLFLH,225,1,755,Correct,13,842
13,KRKRK,113,1,669,Correct,13,795
13,ZVZNZ,161,2,664,Correct,13,855
13,ZOZOZ,194,1,720,Correct,13,940
13,FZFZF,15,1,734,Correct,13,773
13,FHFKF,101,[2][3],[1079][1319],Correct,13,902
13,ZXHLZ,233,2,1579,Correct,13,709
13,FKFXF,222,2,876,Correct,13,661
13,CFCYC,162,2,353,Correct,13,848
13,ZXZVZ,163,2,816,Correct,13,746
13,KCKOK,185,2,677,Correct,13,877
13,ZXZVH,235,,,Incorrect,13,848
13,CKCKC,113,1,839,Correct,13,869
13,ZXZCZ,161,2,942,Correct,13,770
13,YVYVY,151,1,661,Correct,13,725
13,RVHVR,223,2,562,Incorrect,13,826
13,ZRZRZ,113,1,785,Correct,13,869
13,ZHZHZ,11,[1][3],[668][892],Correct,13,908
13,VZVZV,13,1,664,Correct,13,723
13,HZVRV,231,2,839,Correct,13,778
13,FVFVF,113,1,732,Correct,13,901
13,RNRCR,161,2,979,Correct,13,915
13,COCOC,196,1,930,Correct,13,884
13,VNVXV,16,2,660,Correct,13,901
13,XHXHX,12,[1][3],[1091][1331],Correct,13,857
14,G,5,3,1938,New Target,14,786
14,FZFZF,151,1,1168,Correct,14,912
14,RPRVR,161,2,710,Correct,14,864
14,XCXCX,151,1,617,Correct,14,679
14,YXYXY,152,1,1020,Correct,14,773
14,KZKZK,153,1,655,Correct,14,730
14,RYRKR,161,2,651,Correct,14,904
14,FYFNF,162,2,652,Correct,14,736
14,VKVKV,151,1,811,Correct,14,775
14,KPGPK,223,1,1111,Correct,14,696
14,YNYNY,113,1,660,Correct,14,818
14,VYVYV,152,1,712,Correct,14,728
14,YCYXY,161,2,783,Correct,14,948
14,LKLGL,72,[2],[1207],Incorrect,14,662
14,VXVXV,13,1,685,Correct,14,943
14,KCKVK,161,2,728,Correct,14,877
14,YKYKY,151,1,691,Correct,14,813
14,RHRXR,171,2,1237,Correct,14,700
14,FVFCF,16,2,895,Correct,14,797
14,YXYGY,82,[2][3],[843][1035],Correct,14,731
14,CLCLC,13,1,900,Correct,14,778
14,ZXZCZ,161,2,1022,Correct,14,727
14,VLVFV,162,2,750,Correct,14,805
14,CPCPG,225,1,743,Correct,14,908
14,KHKNK,172,2,1209,Correct,14,678
14,ZKZVZ,16,2,713,Correct,14,678
14,YKYLY,162,2,987,Correct,14,728
14,CNCNC,151,2,824,Incorrect,14,901
14,PGPGP,9,[1][3],[968][1128],Correct,14,676
14,VPVPV,13,1,811,Correct,14,819
14,FXGRF,233,2,1166,Correct,14,946
14,CYCVC,222,2,749,Correct,14,738
14,FNFNF,151,1,724,Correct,14,939
14,KFKCK,161,2,823,Correct,14,687
14,ZFZHZ,183,2,767,Correct,14,852
14,NXNXN,15,2,596,Incorrect,14,948
14,FNFNF,152,1,756,Correct,14,825
14,LXLNG,235,2,736,Correct,14,804
14,XKXVX,222,2,752,Correct,14,690
14,ZHZHZ,194,1,1287,Correct,14,834
14,PFPFP,15,1,1105,Correct,14,683
14,ZYZYZ,152,1,827,Correct,14,940
14,XPXVX,161,2,1073,Correct,14,877
14,YCYCY,151,1,724,Correct,14,694
14,RGRGR,10,[1][3],[1123][1347],Correct,14,945
14,VRVRV,13,1,889,Correct,14,732
14,PKPNP,161,2,699,Correct,14,943
14,XGXGX,11,[1][3],[883][1107],Correct,14,792
14,GZYVY,231,2,819,Correct,14,746
14,VCVNV,222,2,672,Correct,14,713
14,VHVHV,195,1,828,Correct,14,809
14,LXLNL,16,2,759,Correct,14,702
14,GKPKP,221,1,929,Correct,14,892
14,XRXPX,222,2,953,Correct,14,747
14,XNXNX,151,1,952,Correct,14,920
14,KHKNK,176,2,1056,Incorrect,14,693
14,RZRZR,15,1,1443,Correct,14,723
14,CGCFC,121,[2][3],[1325][1597],Correct,14,702
15,A,5,3,4694,New Target,15,918
15,XRXFX,161,2,1328,Correct,15,932
15,RXRKR,162,2,896,Correct,15,902
15,YRYRY,151,1,657,Correct,15,932
15,XPXPX,152,1,640,Correct,15,743
15,RPRPR,153,1,595,Correct,15,729
15,NCNCN,154,1,629,Correct,15,800
15,RXRZR,161,2,594,Correct,15,913
15,NANAN,7,[1][3],[910][1102],Correct,15,939
15,KCKYK,14,2,966,Correct,15,746
15,XKXFX,162,2,733,Correct,15,680
15,ZLZKZ,163,2,713,Correct,15,754
15,VCVZV,164,2,600,Correct,15,741
15,XCXVX,165,2,1165,Correct,15,717
15,LKLZA,235,2,1316,Correct,15,879
15,NCNCN,113,1,797,Correct,15,673
15,YGYGY,191,2,806,Incorrect,15,769
15,VLVLV,15,1,763,Correct,15,915
15,XRXRX,152,1,1000,Correct,15,703
15,KAKPK,81,[2][3],[900][1140],Correct,15,791
15,YZAZY,233,1,1151,Incorrect,15,752
15,CFCFC,113,1,713,Correct,15,920
15,VNVLV,161,2,817,Correct,15,950
15,KPKVK,162,2,887,Correct,15,887
15,NCNRN,163,2,1186,Correct,15,694
15,FGFGF,192,2,767,Incorrect,15,762
15,RCRYR,16,2,676,Correct,15,909
15,KRKCK,162,2,1427,Correct,15,844
15,CRCRC,151,1,855,Correct,15,736
15,XPAPX,223,1,1084,Correct,15,797
15,LPLXL,222,2,840,Correct,15,845
15,CGCVC,173,2,1091,Correct,15,709
15,FKFZF,16,2,1345,Correct,15,807
15,CACAC,9,[1][3],[977][1185],Correct,15,777
15,XCXCX,13,1,809,Correct,15,908
15,AXRXR,221,1,1129,Correct,15,663
15,NKNRN,222,2,999,Correct,15,734
15,KNKFK,162,2,791,Correct,15,860
15,KAKAK,10,[1][3],[751][943],Correct,15,823
15,ZCZRZ,14,2,764,Correct,15,806
15,RPRPR,151,1,907,Correct,15,707
15,NCNCN,152,1,738,Correct,15,777
15,RYRGR,184,2,827,Correct,15,912
15,VPVPV,15,1,767,Correct,15,950
15,RCRCA,225,1,805,Correct,15,906
15,KXKPK,222,2,750,Correct,15,840
15,NPNPN,151,1,718,Correct,15,661
15,YCYCY,152,1,672,Correct,15,662
15,PXPAP,112,[2][3],[917][1109],Correct,15,650
15,ZCZNZ,14,2,905,Correct,15,915
15,KYKGK,185,2,866,Correct,15,759
15,ANLPL,231,2,1231,Correct,15,660
15,CXCPC,222,2,840,Correct,15,832
15,YRYRY,151,1,788,Correct,15,711
15,LGLGL,196,1,1008,Correct,15,758
15,VYVLV,16,2,711,Correct,15,673
15,KVKVK,151,1,1164,Correct,15,658
15,RKRKR,152,1,788,Correct,15,830
15,VXVXV,153,1,737,Correct,15,741
15,XAXAX,12,[1][3],[1055][1231],Correct,15,765
