Trial No,Stimulus,Trigger,Response,Response Time(ms),Correct,Block,Fixation Duration
Practice
OT Practice
1,SKSKS,15,1,787,Correct,0,719
1,DLDUD,16,2,1034,Correct,0,811
1,PDPGP,16,2,936,Correct,0,802
1,MWMWM,15,1,741,Correct,0,855
1,FTFTF,15,1,754,Correct,0,676
1,AXAMA,16,2,932,Correct,0,910
1,RYRGR,16,2,851,Correct,0,828
1,DODOD,15,1,695,Correct,0,797
1,QTQAQ,16,2,887,Correct,0,678
1,YEYEY,15,1,832,Correct,0,677
2,GYGDG,16,2,772,Correct,0,780
2,SWSWS,15,1,597,Correct,0,943
2,HLHUH,16,2,766,Correct,0,937
2,DEDED,15,1,652,Correct,0,661
2,ZPZOZ,16,2,704,Correct,0,941
2,ATATA,15,1,713,Correct,0,860
2,QOQOQ,15,1,629,Correct,0,761
2,FPFGF,16,2,671,Correct,0,852
2,TRTET,16,2,796,Correct,0,751
2,DQDQD,15,1,946,Correct,0,803
4,PLPLP,15,1,634,Correct,0,654
4,ATAIA,16,2,819,Correct,0,889
4,SKSGS,16,2,844,Correct,0,664
4,ZYZYZ,15,1,623,Correct,0,787
4,QSQSQ,15,1,720,Correct,0,731
4,TZTDT,16,2,712,Correct,0,847
4,JYJGJ,16,2,885,Correct,0,752
4,DYDYD,15,1,684,Correct,0,725
4,LTLCL,16,2,757,Correct,0,856
4,FQFEF,16,2,737,Correct,0,673
AT Practice
1,TKTKT,15,1,1476,Correct,0,768
1,SLSUS,16,2,1077,Correct,0,696
1,VZVGV,7,3,896,Correct,0,739
1,XWXZX,7,3,1313,Correct,0,843
1,ATATA,15,1,915,Correct,0,814
1,HXZMH,16,,,False,0,950
1,TZTZT,7,,,False,0,683
1,UOUOU,15,1,1271,Correct,0,730
1,ZTWAW,16,2,920,Correct,0,841
1,RZRER,7,3,842,Correct,0,816
2,JYJDJ,16,2,1115,Correct,0,800
2,DWDWD,15,1,868,Correct,0,841
2,GNGNG,7,1,989,False,0,670
2,NEZEZ,16,1,891,Correct,0,833
2,RNROR,7,3,881,Correct,0,724
2,QTQNQ,7,3,1010,Correct,0,881
2,HOHON,15,1,749,Correct,0,903
2,KPKGK,16,2,854,Correct,0,788
2,DRDED,16,2,1129,Correct,0,796
2,LNLNL,7,3,1234,Correct,0,770
4,GLGLG,15,1,1065,Correct,0,837
4,DTDID,16,2,906,Correct,0,659
4,SMSGS,16,2,1175,Correct,0,885
4,ZFZYZ,7,,,False,0,865
4,TSTFT,7,3,1020,Correct,0,854
4,OFOFO,7,3,1097,Correct,0,770
4,WYFGW,16,,,False,0,732
4,WYWYW,15,1,889,Correct,0,823
4,MFMCM,7,3,1019,Correct,0,826
4,HQHEH,16,2,905,Correct,0,773
Trials
1,D,5,3,9247,New Target,1,773
1,ZNZYZ,161,2,1330,Correct,1,876
1,FZFZF,151,1,1415,Correct,1,812
1,RKRKR,152,1,1033,Correct,1,804
1,RXRNR,161,2,920,Correct,1,793
1,CNCFC,162,2,895,Correct,1,699
1,PDPDP,7,3,1083,Correct,1,677
1,CPCFC,14,2,1480,Correct,1,842
1,VLVNV,162,2,1002,Correct,1,657
1,KFKFK,151,1,911,Correct,1,741
1,ZNZNZ,152,1,1299,Correct,1,798
1,KCKPD,235,2,807,Correct,1,927
1,ZKZFZ,222,2,1091,Correct,1,719
1,NRNZN,162,2,1066,Correct,1,942
1,KXKRK,163,2,1272,Correct,1,849
1,YPYZY,164,2,925,Correct,1,877
1,FKDKF,223,1,1500,Correct,1,903
1,RPRPR,113,1,1128,Correct,1,889
1,VRVKV,161,2,1055,Correct,1,905
1,RFRPR,162,2,1335,Correct,1,669
1,KVKVK,151,1,1326,Correct,1,698
1,YKYVY,161,2,901,Correct,1,753
1,VDVDV,8,3,1306,Correct,1,825
1,DVZVZ,221,,,Incorrect,1,713
1,YFYFY,113,1,946,Correct,1,701
1,ZYZYZ,152,1,840,Correct,1,723
1,VLVXV,161,2,897,Correct,1,756
1,DPXZX,231,,,Incorrect,1,694
1,RYRYR,113,1,770,Correct,1,889
1,PDPNP,91,3,879,Correct,1,724
1,KXKXK,13,1,883,Correct,1,827
1,ZYZYZ,152,1,974,Correct,1,707
1,VKVKV,153,1,747,Correct,1,904
1,YZYZY,154,1,776,Correct,1,749
1,NLNZN,161,2,1122,Correct,1,805
1,ZNDYZ,233,1,911,Incorrect,1,775
1,PCPXP,222,2,992,Correct,1,919
1,ZVZFZ,162,2,947,Correct,1,805
1,RCRZR,163,2,919,Correct,1,806
1,LRLRL,151,1,829,Correct,1,702
1,ZDZDZ,10,3,847,Correct,1,923
1,RNRZR,14,2,1059,Correct,1,941
1,CXCYC,162,2,999,Correct,1,666
1,RCRLR,163,2,987,Correct,1,767
1,FRFRF,151,1,970,Correct,1,876
1,XFXFX,152,1,816,Correct,1,758
1,RPRLR,161,2,970,Correct,1,747
1,YXYRY,162,2,874,Correct,1,945
1,FYFYF,151,1,750,Correct,1,893
1,YZYVY,161,2,843,Correct,1,770
1,YKYKY,151,1,921,Correct,1,693
1,XRXRX,152,1,1145,Correct,1,931
1,XVXZX,161,2,797,Correct,1,659
1,PDPDP,11,1,841,Incorrect,1,694
1,ZFZFZ,13,2,1037,Incorrect,1,930
1,PXPXP,152,1,972,Correct,1,879
1,LYLYL,153,1,1035,Correct,1,900
1,NKNKD,225,1,1048,Correct,1,850
1,ZNZNZ,113,1,794,Correct,1,767
1,PYPZP,161,2,850,Correct,1,937
1,XPXPX,151,1,826,Correct,1,749
1,VLVLV,152,1,765,Correct,1,885
1,PKPXP,161,2,889,Correct,1,780
1,FZFZF,151,1,908,Correct,1,853
1,LDLDL,12,3,686,Correct,1,869
2,U,5,3,5052,New Target,2,855
2,ZVZFZ,161,2,839,Correct,2,651
2,FZFZF,151,1,797,Correct,2,806
2,RFRFR,152,1,826,Correct,2,679
2,NZNKN,161,2,820,Correct,2,740
2,FZFNF,162,2,1100,Correct,2,825
2,RXRXR,151,1,736,Correct,2,660
2,KRKYK,161,2,813,Correct,2,733
2,NZNPN,162,2,1026,Correct,2,884
2,XPXPX,151,1,563,Correct,2,781
2,CUCUC,7,3,736,Correct,2,945
2,RFRFR,13,2,818,Incorrect,2,658
2,VYVXV,161,2,822,Correct,2,919
2,VDVDV,191,1,1184,Correct,2,795
2,ZKZRZ,15,2,878,Correct,2,743
2,XCXCX,151,1,904,Correct,2,707
2,CNCUC,82,3,894,Correct,2,739
2,RCRCR,13,1,866,Correct,2,799
2,ZPZXZ,161,2,1016,Correct,2,869
2,FKFYF,162,2,797,Correct,2,680
2,ZFZYZ,163,2,740,Correct,2,863
2,PXPXP,151,1,917,Correct,2,735
2,URCKC,231,2,1067,Correct,2,783
2,PCPCP,113,1,1020,Correct,2,726
2,XNXNX,152,1,894,Correct,2,797
2,RCRZR,161,2,1225,Correct,2,663
2,XVXVX,151,1,979,Correct,2,720
2,NRNRN,152,1,1075,Correct,2,872
2,FPFPF,225,1,1346,Correct,2,862
2,XVXFX,222,2,824,Correct,2,700
2,PRPRP,151,1,1069,Correct,2,927
2,FYFCF,161,2,906,Correct,2,896
2,XUXFX,91,3,725,Correct,2,679
2,CYCVC,14,2,974,Correct,2,867
2,VDVKV,172,2,867,Correct,2,739
2,YCYCY,15,1,647,Correct,2,874
2,NKNLN,161,2,721,Correct,2,926
2,XPUKX,233,3,1278,Incorrect,2,756
2,ZPZPZ,113,1,1368,Correct,2,713
2,KRKRK,152,2,1087,Incorrect,2,656
2,XKXKX,153,1,1049,Correct,2,931
2,YUYVY,101,3,838,Correct,2,815
2,XKXFU,235,2,984,Correct,2,948
2,NFNFN,113,1,825,Correct,2,850
2,KDKDK,193,1,782,Correct,2,905
2,XYXKX,16,2,1016,Correct,2,765
2,YZUZY,223,1,1039,Correct,2,694
2,KFKVK,222,2,1004,Correct,2,864
2,LYLYL,151,1,731,Correct,2,844
2,CXCDC,184,2,674,Incorrect,2,943
2,XZXNX,16,1,811,Incorrect,2,895
2,PXPXP,151,1,1280,Correct,2,871
2,ZRZYZ,161,2,884,Correct,2,854
2,PUPYP,111,3,652,Correct,2,773
2,RNRNR,14,1,1170,Correct,2,668
2,KDKDK,195,1,1280,Correct,2,728
2,KNKNK,15,1,792,Correct,2,723
2,PRPKP,161,2,749,Correct,2,950
2,UNYNY,221,1,983,Correct,2,808
2,NYNYN,113,1,918,Correct,2,874
2,YXYXY,152,1,1018,Incorrect,2,850
2,RDRDR,196,1,749,Correct,2,778
2,FCFCF,15,1,571,Correct,2,720
2,ZKZKZ,152,1,755,Correct,2,658
2,ZUZUZ,12,3,681,Correct,2,925
3,E,5,3,6545,New Target,3,888
3,YZYZY,151,1,825,Correct,3,770
3,VFVNV,161,2,718,Correct,3,934
3,KYKYK,151,1,622,Correct,3,715
3,NKNKN,152,2,761,Incorrect,3,931
3,XVXNX,161,2,947,Correct,3,789
3,RERFR,71,3,922,Correct,3,752
3,XNXNX,13,1,721,Correct,3,734
3,NXNXN,152,1,987,Correct,3,861
3,ZLZNZ,161,2,784,Correct,3,743
3,CUCNC,171,2,1333,Correct,3,890
3,FYFRF,16,2,955,Correct,3,816
3,ZLZLZ,151,1,804,Correct,3,662
3,YZYZY,152,1,735,Correct,3,760
3,CYCYC,153,1,759,Correct,3,865
3,VUVUV,192,1,1475,Correct,3,732
3,PXPRP,16,2,1089,Correct,3,866
3,YPYPY,151,1,1323,Correct,3,914
3,CECEC,8,3,641,Correct,3,774
3,VNENV,223,1,1380,Correct,3,706
3,KRKFK,222,2,1013,Correct,3,904
3,XLXLE,225,1,722,Correct,3,864
3,RFRUR,183,2,1089,Correct,3,700
3,XRXLX,16,2,1105,Correct,3,778
3,NZNPN,162,2,961,Correct,3,743
3,XZXZX,151,1,1156,Correct,3,828
3,FZFZF,152,,,Incorrect,3,914
3,PFPFP,153,1,865,Correct,3,902
3,YZYXY,161,2,1062,Correct,3,828
3,KEKEK,9,3,808,Correct,3,794
3,CXCPC,14,2,901,Correct,3,672
3,VXVXV,151,1,703,Correct,3,688
3,NUNZN,174,2,1120,Correct,3,683
3,RKRVR,16,2,840,Correct,3,904
3,XRXRX,151,1,636,Correct,3,927
3,ERNFN,231,2,1047,Incorrect,3,913
3,YRYNY,222,2,681,Correct,3,735
3,PZPEP,102,3,773,Correct,3,888
3,ZYZXZ,14,1,1353,Incorrect,3,905
3,RZRVR,162,2,809,Correct,3,934
3,XRXRX,151,1,822,Correct,3,679
3,KUKFK,175,2,930,Correct,3,725
3,RKRKR,15,1,989,Correct,3,657
3,ZFZFZ,152,1,968,Correct,3,936
3,YZYVY,161,2,887,Correct,3,947
3,XPXNX,162,2,977,Correct,3,708
3,YRYRY,151,1,835,Correct,3,859
3,EPVPV,221,1,933,Correct,3,936
3,CRCEC,112,3,1094,Correct,3,883
3,RFRCR,14,,,Incorrect,3,892
3,CPCVC,162,2,813,Correct,3,681
3,RXRCR,163,2,758,Correct,3,858
3,VNVLV,164,2,848,Correct,3,831
3,ZXZXZ,151,1,739,Correct,3,946
3,ZCZCZ,152,1,467,Correct,3,690
3,PYPUP,186,2,716,Correct,3,689
3,YKYPY,16,2,691,Correct,3,931
3,YREXY,233,1,1122,Incorrect,3,763
3,ZKZKZ,113,1,899,Correct,3,747
3,XLXNX,161,2,884,Correct,3,906
3,KFKRE,235,2,949,Correct,3,923
3,RXRLR,222,2,967,Correct,3,780
3,RERXR,121,3,651,Correct,3,802
4,J,5,3,12558,New Target,4,727
4,CYCVC,161,2,1423,Correct,4,813
4,RXRCR,162,2,699,Correct,4,915
4,FPFVF,163,2,971,Correct,4,691
4,LZLZL,151,1,496,Correct,4,713
4,PLPLP,152,1,1126,Correct,4,814
4,NPNPN,153,1,644,Correct,4,752
4,XZXZX,161,1,640,Incorrect,4,835
4,CNCKC,162,2,765,Correct,4,904
4,PCPYJ,235,2,734,Correct,4,652
4,VYVYV,113,1,661,Correct,4,942
4,RLRLR,152,1,596,Correct,4,834
4,CJCJC,7,1,600,Incorrect,4,733
4,ZLZLZ,13,1,905,Correct,4,752
4,FZFZF,152,1,702,Correct,4,809
4,CFCFC,153,1,826,Correct,4,849
4,PZPZP,154,1,576,Correct,4,825
4,XEXEX,191,1,662,Correct,4,705
4,NVNFN,16,2,991,Correct,4,916
4,KYKYK,151,1,838,Correct,4,659
4,ZNZVZ,161,2,1118,Correct,4,843
4,YVJXY,233,2,1513,Correct,4,888
4,XFXFX,113,1,676,Correct,4,844
4,XNXNX,152,1,1042,Correct,4,824
4,FJFKF,81,3,605,Correct,4,885
4,CZCYC,14,2,889,Correct,4,922
4,ZXZCZ,162,2,768,Correct,4,827
4,RYRYJ,225,1,1223,Correct,4,923
4,FPFZF,222,2,819,Correct,4,783
4,XRXRX,151,1,751,Correct,4,685
4,YPYEY,182,2,974,Correct,4,715
4,XRXRX,15,1,704,Correct,4,798
4,XZXPX,161,2,703,Correct,4,767
4,CJCJC,9,3,811,Correct,4,877
4,ZXZVZ,14,2,819,Correct,4,800
4,VKVKV,151,1,640,Correct,4,656
4,VEVNV,173,2,650,Correct,4,900
4,ZKZVZ,16,2,1014,Correct,4,891
4,XVXJX,102,3,813,Correct,4,715
4,RXRVR,14,2,1004,Correct,4,900
4,LRLRL,151,1,670,Correct,4,819
4,YNJNY,223,1,1130,Correct,4,858
4,NPNJN,222,3,1011,Incorrect,4,923
4,ZEZEZ,194,1,742,Correct,4,748
4,ZNZNZ,15,1,1445,Correct,4,694
4,YZYZY,152,1,846,Correct,4,685
4,XYXYX,153,1,776,Correct,4,687
4,ZXZXZ,221,1,863,Correct,4,874
4,LYLZL,222,,,Incorrect,4,738
4,CYCNC,162,2,1107,Correct,4,757
4,XEXEX,195,1,1094,Correct,4,721
4,CVCXC,16,2,1025,Correct,4,823
4,ZPZXZ,162,2,1138,Correct,4,791
4,FZFZF,151,3,868,Incorrect,4,721
4,RXRJR,112,3,934,Correct,4,928
4,PRPFP,14,2,1035,Correct,4,800
4,PKPEP,186,2,1594,Correct,4,857
4,XZXPX,16,2,1004,Correct,4,702
4,JCZVZ,231,2,715,Correct,4,816
4,RXRLR,222,2,875,Correct,4,718
4,VZVZV,151,1,849,Correct,4,750
4,XJXJX,12,3,795,Correct,4,719
5,I,5,3,16032,New Target,5,704
5,PCPCP,151,1,768,Correct,5,660
5,XYXYX,152,1,623,Correct,5,672
5,VXVXV,153,1,532,Correct,5,674
5,XVXVX,154,1,876,Correct,5,658
5,ZRZXZ,161,2,820,Correct,5,782
5,FPFZF,162,2,670,Correct,5,759
5,ZYZYZ,151,1,702,Correct,5,808
5,RVRZR,161,2,687,Correct,5,669
5,CICIC,7,3,814,Correct,5,741
5,XLXLX,13,1,726,Correct,5,797
5,YVYVY,152,1,959,Correct,5,904
5,CJCJC,191,1,1128,Correct,5,687
5,FNFCF,16,2,948,Correct,5,820
5,PVPRP,162,2,790,Correct,5,806
5,FZFZF,151,1,869,Correct,5,688
5,NVIVN,223,1,909,Correct,5,756
5,CVCIC,82,3,740,Correct,5,759
5,ZXZXZ,13,1,977,Correct,5,829
5,FCFZF,161,2,809,Correct,5,659
5,IXRXR,221,,,Incorrect,5,767
5,ZPZNZ,222,,,Incorrect,5,903
5,VZVZV,151,1,772,Correct,5,877
5,YRYNY,161,2,783,Correct,5,762
5,VNVPV,162,2,935,Correct,5,875
5,RVRJR,182,2,988,Correct,5,816
5,VRVRV,15,1,932,Correct,5,676
5,VIVIV,9,1,712,Incorrect,5,818
5,CXCVC,14,2,709,Correct,5,773
5,PZPZP,151,1,591,Correct,5,878
5,IXVKV,231,2,1541,Correct,5,710
5,YJYCY,173,2,1568,Incorrect,5,801
5,VYVYV,15,1,672,Correct,5,715
5,YVYVY,152,1,650,Correct,5,877
5,NVNVN,153,1,951,Correct,5,890
5,XYXVX,161,2,758,Correct,5,905
5,NJNCN,174,2,1212,Correct,5,924
5,NXNYN,16,2,1028,Correct,5,849
5,VXVCV,162,2,1017,Correct,5,684
5,ZKZKZ,151,1,854,Correct,5,883
5,XRXYX,161,2,1193,Correct,5,869
5,ZCZXZ,162,2,889,Correct,5,660
5,KVKYI,235,2,1068,Correct,5,865
5,CNCNC,113,1,637,Correct,5,770
5,RIRIR,10,1,706,Incorrect,5,685
5,VYVXV,14,2,1149,Correct,5,830
5,FXIRF,233,3,608,Incorrect,5,666
5,PFPFP,113,1,1088,Correct,5,880
5,VPVPV,152,1,969,Correct,5,921
5,ZJZJZ,195,2,894,Incorrect,5,749
5,ZVZNZ,16,2,758,Correct,5,720
5,YVYXY,162,2,884,Correct,5,719
5,PRPRP,151,1,752,Correct,5,754
5,YPYPY,152,1,730,Correct,5,756
5,ZIZPZ,111,3,731,Correct,5,692
5,NKNXN,14,1,1397,Incorrect,5,870
5,RZRXR,162,2,877,Correct,5,660
5,RXRXR,151,1,696,Correct,5,711
5,ZJZJZ,196,1,1152,Correct,5,948
5,CVCVI,225,1,796,Incorrect,5,788
5,NKNKN,113,1,745,Correct,5,711
5,NRNZN,161,2,840,Correct,5,708
5,CNCNC,151,1,629,Correct,5,669
5,RFRIR,122,3,986,Correct,5,684
6,B,5,3,12979,New Target,6,918
6,YKYZY,161,2,994,Correct,6,945
6,VCVRV,162,2,624,Correct,6,864
6,XVXVX,151,1,973,Correct,6,886
6,KZKRK,161,2,703,Correct,6,865
6,ZVZXZ,162,2,1546,Correct,6,892
6,RCRNR,163,2,896,Correct,6,920
6,CXCRC,164,2,1090,Correct,6,919
6,VNBCV,233,,,Incorrect,6,678
6,CXCVC,222,2,846,Correct,6,876
6,RFRFR,151,1,643,Correct,6,909
6,XPXRX,161,2,1187,Correct,6,766
6,RYRBR,72,2,1185,Incorrect,6,667
6,ZKZKZ,13,1,1352,Correct,6,879
6,FIFRF,171,2,1514,Correct,6,863
6,VZVLV,16,2,871,Correct,6,808
6,RPRVR,162,2,842,Correct,6,875
6,YBYBY,8,3,563,Correct,6,791
6,PYPVP,14,2,809,Correct,6,700
6,NININ,192,1,1102,Correct,6,876
6,RNRNR,15,1,860,Correct,6,796
6,NXNVN,161,2,1092,Correct,6,768
6,RNRNR,151,1,638,Correct,6,883
6,FRFVF,161,2,1104,Correct,6,746
6,YVYFB,235,2,1020,Incorrect,6,811
6,ZRZXZ,222,2,893,Correct,6,805
6,VNVIV,193,2,1094,Incorrect,6,718
6,PXPNP,16,2,887,Correct,6,733
6,ZXZPZ,162,2,911,Correct,6,728
6,VBVBV,9,3,695,Correct,6,768
6,CXCXC,13,1,862,Correct,6,949
6,PCPFP,161,2,691,Correct,6,879
6,KNKNK,151,1,881,Correct,6,761
6,XIXIX,194,1,727,Correct,6,845
6,CYCYC,15,1,852,Correct,6,763
6,FVFYF,161,1,652,Incorrect,6,751
6,YNYRY,162,2,973,Correct,6,806
6,BVPXP,231,2,865,Correct,6,780
6,NXNXN,113,2,743,Incorrect,6,879
6,FRFRF,152,1,752,Correct,6,881
6,YVYVY,153,1,647,Correct,6,936
6,ZKZCZ,161,2,721,Correct,6,930
6,VIVXV,175,2,1055,Correct,6,794
6,PRBRP,223,1,941,Correct,6,892
6,YZYBY,102,2,789,Incorrect,6,687
6,CXCVC,14,2,910,Correct,6,793
6,FYFYF,151,1,1078,Correct,6,691
6,VKVXV,161,2,1042,Correct,6,864
6,ZBZBZ,11,3,579,Correct,6,814
6,FPFNF,14,1,1073,Incorrect,6,900
6,CXCXC,151,1,668,Correct,6,922
6,YCYCY,152,1,587,Correct,6,838
6,FPFPF,153,1,569,Correct,6,852
6,CVCVB,225,1,1080,Correct,6,923
6,ZCZCZ,113,1,485,Correct,6,798
6,CZCNC,161,2,888,Correct,6,858
6,KIKFK,176,2,988,Correct,6,872
6,PXPXP,15,1,890,Correct,6,890
6,RYRYR,152,1,1376,Correct,6,806
6,ZRZCZ,161,2,1461,Correct,6,807
6,RVRVR,151,1,965,Correct,6,784
6,XYXNX,161,2,646,Correct,6,845
6,BVKVK,221,1,1065,Correct,6,707
6,CBCBC,12,3,519,Correct,6,798
7,W,5,3,17979,New Target,7,908
7,RKRKR,151,1,749,Correct,7,894
7,CVCRC,161,2,728,Correct,7,695
7,PKPKP,151,1,628,Correct,7,658
7,FPFPF,152,1,691,Correct,7,797
7,VRVPV,161,2,1067,Correct,7,792
7,ZKZYZ,162,2,1464,Correct,7,743
7,PVPCP,233,2,758,Correct,7,722
7,KVKVK,113,1,781,Correct,7,724
7,YXYVY,161,2,757,Correct,7,731
7,FNFNF,151,1,583,Correct,7,847
7,YWYWY,7,1,1064,Incorrect,7,669
7,ZYZYZ,13,1,691,Correct,7,826
7,PYPYP,152,1,696,Correct,7,857
7,XRXRX,153,1,656,Correct,7,811
7,PXPXP,154,1,633,Correct,7,805
7,FCFBF,181,2,708,Correct,7,771
7,FVFVF,15,1,679,Correct,7,863
7,CYCZC,161,2,751,Correct,7,898
7,XZXVX,162,2,979,Correct,7,925
7,PFPFP,151,1,805,Correct,7,708
7,RVRLR,161,2,1052,Correct,7,681
7,ZBZBZ,192,1,1335,Correct,7,929
7,VCVNV,16,2,833,Correct,7,876
7,NWNWN,8,3,519,Correct,7,775
7,XNXVX,14,2,1160,Correct,7,668
7,CXCNC,162,2,1003,Correct,7,938
7,YVYVW,225,1,1223,Correct,7,678
7,VFVFV,113,1,929,Correct,7,722
7,VFWFV,223,1,622,Correct,7,834
7,CVCFC,222,2,748,Correct,7,767
7,YBYBY,193,1,1504,Correct,7,919
7,PYPYP,15,1,1382,Correct,7,922
7,NKNWN,91,2,1039,Incorrect,7,936
7,VNVNV,13,1,791,Correct,7,924
7,RVRVR,152,1,1178,Correct,7,892
7,FVFBF,184,2,720,Incorrect,7,708
7,VZVKV,16,2,1101,Correct,7,697
7,VPVCV,162,2,817,Correct,7,891
7,WYZCZ,231,2,948,Correct,7,794
7,PFPFP,113,1,780,Correct,7,928
7,PRPRP,152,1,805,Correct,7,732
7,NWNWN,10,3,518,Correct,7,856
7,VKVCV,14,2,1065,Correct,7,656
7,WPYPY,221,1,553,Correct,7,732
7,VBVBV,195,1,998,Correct,7,803
7,ZKZYZ,16,2,736,Correct,7,785
7,XYXYX,151,1,712,Correct,7,750
7,FZFXF,161,2,992,Correct,7,889
7,XKXKX,151,1,679,Correct,7,903
7,XPXPX,152,1,1442,Correct,7,770
7,FWFWF,11,3,1499,Correct,7,868
7,FNFBF,186,2,1141,Correct,7,740
7,ZVZYZ,16,2,918,Correct,7,679
7,FZFZF,151,1,995,Correct,7,769
7,NPNFW,235,2,828,Correct,7,922
7,PCPCP,113,1,630,Correct,7,680
7,NKNWN,122,3,657,Correct,7,792
8,M,5,3,4510,New Target,8,746
8,VYVNV,161,2,993,Correct,8,888
8,KLKNK,162,2,787,Correct,8,704
8,NRNRN,151,1,1158,Correct,8,814
8,VNVFV,161,2,770,Correct,8,679
8,XNXNM,225,1,939,Correct,8,652
8,CXCVC,222,2,650,Correct,8,907
8,KRKZK,162,2,829,Correct,8,899
8,NMNFN,71,3,785,Correct,8,858
8,ZFZFZ,13,1,933,Correct,8,814
8,YPYCY,161,2,594,Correct,8,872
8,KCKCK,151,1,610,Correct,8,674
8,VNVNV,152,1,869,Correct,8,939
8,LXLXL,153,1,835,Correct,8,912
8,CLCLC,154,1,681,Correct,8,708
8,NYNYN,155,1,620,Correct,8,871
8,LCMYL,233,2,632,Correct,8,735
8,NCNCN,113,1,767,Correct,8,888
8,ZVZRZ,161,2,705,Correct,8,915
8,ZVZVZ,151,1,736,Correct,8,693
8,PZPVP,161,2,1074,Correct,8,908
8,PWPNP,171,2,940,Correct,8,697
8,KLKCM,235,2,1286,Correct,8,945
8,XMXMX,8,1,744,Incorrect,8,894
8,PRPXP,14,2,808,Correct,8,922
8,CVCYC,162,2,970,Correct,8,886
8,PXPMP,92,2,1036,Incorrect,8,750
8,ZCZLZ,14,2,1074,Correct,8,911
8,XWXWX,192,1,1196,Correct,8,735
8,ZCZLZ,16,2,684,Correct,8,917
8,MNCYC,231,1,985,Incorrect,8,684
8,ZXZXZ,113,1,723,Correct,8,920
8,YRYNY,161,2,713,Correct,8,867
8,ZLZPZ,162,2,745,Correct,8,919
8,VZVZV,151,1,831,Correct,8,855
8,MXPXP,221,1,770,Correct,8,836
8,VWVWV,193,1,804,Correct,8,896
8,PYPYP,16,1,737,Incorrect,8,943
8,XPXVX,162,2,1160,Correct,8,695
8,XLXLX,151,1,797,Correct,8,942
8,YMYMY,10,3,624,Correct,8,855
8,VYVYV,13,1,698,Correct,8,694
8,PWPZP,174,2,1054,Correct,8,895
8,PYPKP,16,2,1204,Correct,8,936
8,NPNXN,162,2,808,Correct,8,796
8,KVKVK,223,1,1003,Correct,8,777
8,NVNFN,222,2,653,Correct,8,688
8,XNXNX,151,1,1542,Correct,8,775
8,YZYMY,112,3,1524,Correct,8,685
8,PFPFP,13,1,688,Correct,8,738
8,ZWZWZ,195,1,1429,Correct,8,909
8,PCPZP,16,2,905,Correct,8,946
8,LRLPL,162,2,1033,Correct,8,825
8,CZCZC,151,1,801,Correct,8,876
8,NZNZN,152,1,618,Correct,8,692
8,CVCXC,161,2,1000,Correct,8,744
8,XCXCX,151,1,671,Correct,8,918
8,YWYWY,196,1,1116,Correct,8,702
8,NLNLN,15,1,653,Correct,8,949
8,VNVNV,152,1,564,Correct,8,919
8,ZMZMZ,12,1,707,Incorrect,8,787
9,S,5,3,10942,New Target,9,944
9,NZNZN,151,1,825,Correct,9,924
9,KVKZK,161,2,734,Correct,9,773
9,LZLZL,151,1,632,Correct,9,718
9,XLXLX,152,1,687,Correct,9,873
9,ZXZXZ,153,1,634,Correct,9,793
9,KNKZK,161,2,905,Correct,9,714
9,NRNYN,162,2,972,Correct,9,717
9,CLCVC,163,2,1157,Correct,9,808
9,ZCZFZ,164,2,750,Correct,9,838
9,NSNSN,7,1,1104,Incorrect,9,947
9,VZVZV,13,,,Incorrect,9,745
9,NVNCN,161,2,898,Correct,9,763
9,VMVMV,191,1,685,Correct,9,845
9,CVCXC,16,2,681,Correct,9,781
9,ZYZRZ,162,2,819,Correct,9,841
9,XNXZX,163,2,870,Correct,9,726
9,PXPXP,151,1,871,Correct,9,887
9,VCVSV,82,3,860,Correct,9,718
9,PRPCP,14,2,764,Correct,9,866
9,ZMZMZ,192,1,835,Incorrect,9,893
9,ZFZFZ,15,1,800,Correct,9,901
9,FCFCF,152,1,611,Correct,9,809
9,YLYZY,161,2,873,Correct,9,922
9,KNKVK,162,2,1173,Correct,9,905
9,SFPCP,231,2,709,Correct,9,935
9,RPRPR,113,1,1440,Correct,9,748
9,XMXMX,193,1,1292,Correct,9,783
9,KFKFK,15,2,750,Incorrect,9,835
9,VSVSV,9,1,613,Incorrect,9,800
9,YVSVY,223,1,699,Correct,9,899
9,VPVPV,113,1,677,Correct,9,768
9,XZXZX,152,1,660,Correct,9,950
9,KZKXK,161,2,1008,Correct,9,831
9,RFRPR,162,2,1306,Correct,9,789
9,NVNVS,225,1,1215,Correct,9,702
9,ZXZXZ,113,1,799,Correct,9,941
9,SRVRV,221,1,1407,Correct,9,919
9,YCYCY,113,1,821,Correct,9,681
9,KMKZK,174,2,657,Correct,9,943
9,FZSVF,233,1,1007,Incorrect,9,675
9,VYVYV,113,1,678,Correct,9,852
9,LVLVL,152,1,860,Correct,9,862
9,YFYFY,153,1,680,Correct,9,930
9,NXNSN,102,3,740,Correct,9,701
9,FNFCF,14,,,Incorrect,9,731
9,KVKVK,151,1,1029,Correct,9,758
9,VZVCV,161,2,832,Correct,9,837
9,ZYZMZ,185,2,1010,Correct,9,892
9,VXVZV,16,2,830,Correct,9,759
9,VPVPV,151,1,609,Correct,9,884
9,RVRNS,235,2,1355,Correct,9,802
9,YZYZY,113,1,863,Correct,9,700
9,ZSZSZ,11,3,767,Correct,9,902
9,FRFRF,13,2,1015,Incorrect,9,713
9,ZMZMZ,196,1,900,Correct,9,734
9,NZNXN,16,2,824,Correct,9,709
9,LSLFL,121,3,750,Correct,9,712
10,Q,5,3,3066,New Target,10,937
10,ZVZPZ,161,2,826,Correct,10,939
10,RZRZR,151,1,624,Correct,10,677
10,ZFZFZ,152,1,825,Correct,10,935
10,RZRZR,153,1,665,Correct,10,804
10,PZPXP,161,2,691,Correct,10,826
10,VFQPV,233,2,791,Correct,10,903
10,ZPZRZ,222,1,747,Incorrect,10,856
10,CYCVC,162,2,784,Correct,10,696
10,CPCPC,151,1,662,Correct,10,776
10,YZYQY,72,2,688,Incorrect,10,779
10,FVFXF,14,2,718,Correct,10,718
10,YNYNQ,225,1,710,Correct,10,760
10,ZYZYZ,113,1,663,Correct,10,682
10,FRFSF,181,2,671,Incorrect,10,768
10,XNXPX,16,2,791,Correct,10,829
10,NXNXN,151,1,877,Correct,10,762
10,PVPZP,161,2,757,Correct,10,695
10,XVXPX,162,2,797,Correct,10,725
10,FXFVF,163,1,946,Incorrect,10,761
10,NSNKN,172,2,1029,Incorrect,10,746
10,VXVNV,16,2,820,Correct,10,776
10,XZXZX,151,1,708,Correct,10,891
10,VQVQV,8,3,583,Correct,10,926
10,ZYZPZ,14,2,723,Correct,10,836
10,PZPSP,183,,,Incorrect,10,665
10,YVYVY,15,1,1034,Correct,10,670
10,NCNQN,92,3,1074,Correct,10,843
10,FCFVF,14,,,Incorrect,10,833
10,ZFZFZ,151,1,1018,Correct,10,917
10,NSNSN,194,1,651,Correct,10,709
10,YPYFY,16,2,543,Correct,10,867
10,ZKZKZ,151,1,784,Correct,10,762
10,QZRCR,231,2,807,Correct,10,699
10,YPYVY,222,2,960,Correct,10,790
10,ZNZNZ,151,1,649,Correct,10,920
10,VQVQV,10,3,703,Correct,10,901
10,RVRZR,14,2,1064,Correct,10,671
10,KRKSK,185,1,1074,Incorrect,10,810
10,NPNPN,15,1,623,Correct,10,747
10,YPYPY,152,1,509,Correct,10,675
10,VCVYV,161,2,466,Correct,10,674
10,FPFNF,162,2,481,Correct,10,871
10,QVXVX,221,2,813,Incorrect,10,877
10,ZVZRZ,222,2,638,Correct,10,866
10,LFLFL,151,1,510,Correct,10,683
10,VLVLV,152,1,542,Correct,10,784
10,KXQXK,223,1,1097,Correct,10,819
10,YQYQY,11,3,616,Correct,10,656
10,YCYCY,13,1,635,Correct,10,682
10,PZPYP,161,2,718,Correct,10,950
10,LPLFL,162,2,844,Correct,10,662
10,VSVSV,196,1,574,Correct,10,766
10,VFVYQ,235,2,802,Correct,10,685
10,CZCXC,222,2,1013,Correct,10,802
10,PVPCP,162,2,626,Correct,10,747
10,CXCXC,151,1,524,Correct,10,769
10,NZNZN,152,1,621,Correct,10,814
10,YPYCY,161,2,791,Correct,10,795
10,ZQZQZ,12,3,1084,Correct,10,730
11,T,5,3,3770,New Target,11,892
11,KFKFK,151,1,975,Correct,11,901
11,LZLZL,152,1,650,Correct,11,854
11,PFPVP,161,2,757,Correct,11,698
11,FRFPF,162,2,1109,Correct,11,913
11,FZFZF,151,1,559,Correct,11,739
11,VTVTV,7,1,644,Incorrect,11,661
11,KYKCK,14,2,676,Correct,11,676
11,VPVPV,151,1,554,Correct,11,870
11,XQXQX,191,1,1452,Correct,11,734
11,PZPYP,16,2,707,Correct,11,905
11,KXKLK,162,2,952,Correct,11,821
11,TCNCN,221,1,634,Correct,11,771
11,PZPNP,222,2,612,Correct,11,830
11,RCRPR,162,2,661,Correct,11,678
11,PZPRT,235,2,591,Correct,11,760
11,XFXVX,222,2,942,Correct,11,775
11,LTLVL,81,3,1129,Correct,11,891
11,ZCZPZ,14,2,1223,Correct,11,663
11,NCNQN,182,2,1263,Correct,11,735
11,XZXNX,16,2,960,Correct,11,825
11,ZPZPZ,151,1,843,Correct,11,842
11,CFCFC,152,1,640,Correct,11,729
11,VXTRV,233,2,755,Correct,11,950
11,CFCVC,222,2,717,Correct,11,696
11,PYPYP,151,1,844,Correct,11,681
11,FQFYF,173,2,633,Correct,11,948
11,CNCFC,16,2,928,Correct,11,913
11,PTPTP,9,1,554,Incorrect,11,898
11,ZCZCZ,13,1,696,Correct,11,795
11,KZKZK,152,1,756,Correct,11,668
11,RLRVR,161,2,1048,Correct,11,912
11,ZRZKZ,162,2,661,Correct,11,724
11,KLKLT,225,1,732,Correct,11,930
11,ZQZQZ,194,1,641,Correct,11,784
11,VZVZV,15,2,433,Incorrect,11,718
11,RVRZR,161,2,656,Correct,11,854
11,ZPZCZ,162,2,614,Correct,11,870
11,VYVYV,151,1,513,Correct,11,784
11,RVRVR,152,2,571,Incorrect,11,909
11,PTPTP,10,1,631,Incorrect,11,776
11,PXPXP,13,,,Incorrect,11,759
11,KCKCK,152,1,704,Correct,11,719
11,YVYVY,153,1,771,Correct,11,941
11,CYCYC,154,1,1130,Correct,11,784
11,XCXCX,155,1,674,Correct,11,840
11,CYCQC,185,2,1181,Correct,11,714
11,KCKNK,16,2,831,Correct,11,869
11,VPVPV,151,1,841,Correct,11,651
11,TXFZF,231,2,1206,Correct,11,883
11,NYNVN,222,2,1122,Correct,11,722
11,VQVXV,176,2,598,Correct,11,914
11,ZRZRZ,15,2,574,Incorrect,11,877
11,VTVZV,111,2,842,Incorrect,11,797
11,PXPVP,14,2,1295,Correct,11,751
11,FVFVF,151,1,932,Correct,11,735
11,VRVLV,161,2,1138,Correct,11,805
11,YCYCY,151,1,1147,Correct,11,746
11,XZTZX,223,1,1238,Correct,11,709
11,VTVTV,12,1,1015,Incorrect,11,923
12,O,5,3,1129,New Target,12,781
12,VXVLV,161,2,976,Correct,12,829
12,KVKCK,162,2,686,Correct,12,701
12,VLVLV,151,1,681,Correct,12,722
12,ZCZVZ,161,2,703,Correct,12,860
12,KFKFK,151,1,576,Correct,12,948
12,XKXKX,152,1,733,Correct,12,837
12,YXYXY,153,1,739,Correct,12,796
12,FVFVF,154,1,522,Correct,12,691
12,PVPOP,72,3,1053,Correct,12,677
12,ZXZYZ,14,2,1018,Correct,12,742
12,PXPVP,162,2,1143,Correct,12,774
12,ZTZTZ,191,1,866,Correct,12,749
12,CVCKC,16,2,704,Correct,12,913
12,CKCKC,151,1,1270,Correct,12,757
12,NPNPN,152,1,570,Correct,12,891
12,ZRZNZ,161,1,453,Incorrect,12,834
12,OZCZC,221,1,972,Correct,12,701
12,LFLFL,113,1,546,Correct,12,928
12,CXCXC,152,1,722,Correct,12,698
12,KPKPK,153,1,554,Correct,12,836
12,FRFKF,161,2,728,Correct,12,836
12,FOFOF,8,3,713,Correct,12,866
12,ZFZFZ,13,1,690,Correct,12,713
12,LKLZO,235,2,957,Correct,12,748
12,KLKZK,222,2,747,Correct,12,767
12,YXYCY,162,2,904,Correct,12,712
12,LOLOL,9,3,679,Correct,12,826
12,XLXLX,13,1,1154,Correct,12,712
12,XVXVX,152,1,986,Correct,12,771
12,FTFTF,192,1,553,Correct,12,684
12,OXNZN,231,1,1130,Incorrect,12,713
12,CZCZC,113,1,561,Correct,12,811
12,LZLZL,152,1,753,Correct,12,731
12,VLVPV,161,2,778,Correct,12,743
12,VYVYO,225,1,1092,Correct,12,657
12,XKXKX,113,1,681,Correct,12,934
12,RTRTR,193,1,757,Correct,12,782
12,KVKCK,16,2,666,Correct,12,884
12,ROROR,101,3,820,Correct,12,790
12,PRPRP,13,1,1210,Correct,12,678
12,LYLVL,161,2,778,Correct,12,921
12,PLPLP,151,1,700,Correct,12,843
12,CTCTC,194,1,1046,Correct,12,730
12,XZXYX,16,2,844,Correct,12,933
12,NKNKN,151,1,1052,Correct,12,825
12,VLVZV,161,2,950,Correct,12,870
12,YOYOY,11,3,630,Correct,12,707
12,PZOZP,223,1,1109,Correct,12,669
12,FYFYF,113,1,708,Correct,12,710
12,ZXZVZ,161,2,942,Correct,12,774
12,VKVZV,162,2,750,Correct,12,686
12,ZTZTZ,195,1,550,Correct,12,738
12,LKLZL,16,2,771,Correct,12,885
12,KCKVK,162,2,1017,Correct,12,663
12,PXPKP,163,1,1010,Incorrect,12,930
12,KCOZK,233,2,896,Correct,12,671
12,FKFKF,113,1,883,Correct,12,765
12,CTCRC,176,2,691,Correct,12,859
12,NXNXN,15,1,949,Correct,12,908
12,KXKVK,161,2,737,Correct,12,901
12,CPCOC,122,2,738,Incorrect,12,934
13,H,5,3,1822,New Target,13,867
13,VFVNV,151,2,661,Incorrect,13,705
13,YVYVY,152,1,728,Correct,13,944
13,XVXVX,153,1,509,Correct,13,794
13,NRNXN,161,2,656,Correct,13,731
13,PZPKP,162,2,667,Correct,13,744
13,HLVLV,221,1,1000,Correct,13,703
13,CXCZC,222,2,947,Correct,13,867
13,LHLYL,71,2,785,Incorrect,13,897
13,YKYFY,14,2,911,Correct,13,913
13,YOYRY,171,2,665,Correct,13,940
13,ZKZYZ,16,1,854,Incorrect,13,790
13,RZRZR,151,2,593,Incorrect,13,949
13,NFNYN,161,2,717,Correct,13,857
13,KVKFK,162,2,723,Correct,13,834
13,XFXYX,163,2,909,Correct,13,795
13,LKLVL,164,2,859,Correct,13,727
13,NLNLN,151,1,707,Correct,13,688
13,XCXOX,182,2,805,Correct,13,917
13,FXFXF,15,1,1068,Correct,13,662
13,VHVHV,8,3,524,Correct,13,654
13,PVPVP,13,1,778,Correct,13,787
13,CRCXC,161,2,1198,Correct,13,753
13,NXNXN,151,1,633,Correct,13,666
13,XRXRX,152,1,753,Correct,13,871
13,YFYXY,161,2,822,Correct,13,761
13,ZOZOZ,193,1,638,Correct,13,660
13,RZRZR,15,1,670,Correct,13,655
13,FKFKF,152,1,753,Correct,13,921
13,PFPFP,153,1,498,Correct,13,856
13,XYXHX,92,2,641,Incorrect,13,850
13,RZRKR,14,2,1031,Correct,13,889
13,FLFLH,225,1,1004,Correct,13,923
13,KRKRK,113,1,518,Correct,13,824
13,ZVZNZ,161,2,899,Correct,13,799
13,ZOZOZ,194,1,704,Correct,13,934
13,FZFZF,15,2,633,Incorrect,13,787
13,FHFKF,101,3,758,Correct,13,661
13,ZXHLZ,233,2,1485,Correct,13,792
13,FKFXF,222,2,1347,Correct,13,903
13,CFCYC,162,1,1027,Incorrect,13,765
13,ZXZVZ,163,2,748,Correct,13,798
13,KCKOK,185,2,1076,Correct,13,827
13,ZXZVH,235,2,1116,Correct,13,839
13,CKCKC,113,1,1047,Correct,13,841
13,ZXZCZ,161,2,767,Correct,13,830
13,YVYVY,151,1,1528,Correct,13,743
13,RVHVR,223,1,1362,Correct,13,662
13,ZRZRZ,113,1,929,Correct,13,775
13,ZHZHZ,11,1,1428,Incorrect,13,742
13,VZVZV,13,1,1311,Correct,13,938
13,HZVRV,231,2,671,Correct,13,770
13,FVFVF,113,,,Incorrect,13,932
13,RNRCR,161,2,1045,Correct,13,934
13,COCOC,196,1,1283,Correct,13,671
13,VNVXV,16,2,966,Correct,13,759
13,XHXHX,12,3,623,Correct,13,925
14,G,5,3,1606,New Target,14,903
14,FZFZF,151,1,738,Correct,14,653
14,RPRVR,161,2,772,Correct,14,918
14,XCXCX,151,1,1080,Correct,14,756
14,YXYXY,152,1,1557,Correct,14,794
14,KZKZK,153,1,811,Correct,14,820
14,RYRKR,161,2,591,Correct,14,806
14,FYFNF,162,2,656,Correct,14,693
14,VKVKV,151,1,541,Correct,14,675
14,KPGPK,223,1,1118,Correct,14,728
14,YNYNY,113,1,652,Correct,14,690
14,VYVYV,152,1,630,Correct,14,778
14,YCYXY,161,2,828,Correct,14,865
14,LKLGL,72,3,1043,Correct,14,655
14,VXVXV,13,1,612,Correct,14,662
14,KCKVK,161,2,691,Correct,14,758
14,YKYKY,151,1,875,Correct,14,751
14,RHRXR,171,2,761,Correct,14,859
14,FVFCF,16,2,774,Correct,14,700
14,YXYGY,82,3,858,Correct,14,761
14,CLCLC,13,1,878,Correct,14,833
14,ZXZCZ,161,2,894,Correct,14,769
14,VLVFV,162,2,940,Correct,14,884
14,CPCPG,225,1,788,Correct,14,906
14,KHKNK,172,2,697,Correct,14,736
14,ZKZVZ,16,2,802,Correct,14,819
14,YKYLY,162,2,740,Correct,14,927
14,CNCNC,151,1,905,Correct,14,798
14,PGPGP,9,1,1287,Incorrect,14,851
14,VPVPV,13,2,746,Incorrect,14,793
14,FXGRF,233,2,687,Correct,14,803
14,CYCVC,222,2,1049,Correct,14,710
14,FNFNF,151,1,568,Correct,14,671
14,KFKCK,161,2,1076,Correct,14,744
14,ZFZHZ,183,,,Incorrect,14,726
14,NXNXN,15,1,665,Correct,14,729
14,FNFNF,152,1,693,Correct,14,757
14,LXLNG,235,2,1052,Correct,14,853
14,XKXVX,222,2,615,Correct,14,733
14,ZHZHZ,194,1,1146,Correct,14,690
14,PFPFP,15,1,626,Correct,14,784
14,ZYZYZ,152,1,557,Correct,14,682
14,XPXVX,161,2,753,Correct,14,690
14,YCYCY,151,1,645,Correct,14,898
14,RGRGR,10,3,908,Correct,14,887
14,VRVRV,13,1,1299,Correct,14,666
14,PKPNP,161,2,1137,Correct,14,892
14,XGXGX,11,1,1129,Incorrect,14,771
14,GZYVY,231,,,Incorrect,14,713
14,VCVNV,222,2,749,Correct,14,741
14,VHVHV,195,1,1094,Correct,14,658
14,LXLNL,16,2,770,Correct,14,760
14,GKPKP,221,1,761,Correct,14,751
14,XRXPX,222,2,798,Correct,14,785
14,XNXNX,151,1,670,Correct,14,937
14,KHKNK,176,2,666,Incorrect,14,701
14,RZRZR,15,1,534,Correct,14,739
14,CGCFC,121,3,983,Correct,14,805
15,A,5,3,4111,New Target,15,804
15,XRXFX,161,2,829,Correct,15,816
15,RXRKR,162,,,Incorrect,15,805
15,YRYRY,151,1,594,Correct,15,873
15,XPXPX,152,1,655,Correct,15,834
15,RPRPR,153,1,649,Correct,15,772
15,NCNCN,154,1,569,Correct,15,707
15,RXRZR,161,2,802,Correct,15,813
15,NANAN,7,3,740,Correct,15,812
15,KCKYK,14,2,662,Correct,15,916
15,XKXFX,162,1,1153,Incorrect,15,688
15,ZLZKZ,163,2,1114,Correct,15,860
15,VCVZV,164,2,1010,Correct,15,776
15,XCXVX,165,2,1451,Correct,15,918
15,LKLZA,235,2,611,Correct,15,818
15,NCNCN,113,1,609,Correct,15,742
15,YGYGY,191,1,990,Correct,15,667
15,VLVLV,15,1,657,Correct,15,733
15,XRXRX,152,1,629,Correct,15,901
15,KAKPK,81,3,732,Correct,15,844
15,YZAZY,233,1,1205,Incorrect,15,782
15,CFCFC,113,1,759,Correct,15,949
15,VNVLV,161,2,639,Correct,15,695
15,KPKVK,162,1,571,Incorrect,15,723
15,NCNRN,163,2,777,Correct,15,785
15,FGFGF,192,1,946,Correct,15,720
15,RCRYR,16,2,608,Correct,15,804
15,KRKCK,162,2,705,Correct,15,705
15,CRCRC,151,1,1101,Correct,15,708
15,XPAPX,223,1,1029,Correct,15,761
15,LPLXL,222,2,722,Correct,15,780
15,CGCVC,173,2,1460,Correct,15,919
15,FKFZF,16,2,878,Correct,15,828
15,CACAC,9,3,732,Correct,15,911
15,XCXCX,13,1,909,Correct,15,872
15,AXRXR,221,1,1227,Correct,15,839
15,NKNRN,222,2,1068,Correct,15,935
15,KNKFK,162,2,932,Correct,15,757
15,KAKAK,10,3,757,Correct,15,741
15,ZCZRZ,14,2,748,Correct,15,885
15,RPRPR,151,1,751,Correct,15,883
15,NCNCN,152,1,931,Correct,15,837
15,RYRGR,184,2,612,Correct,15,792
15,VPVPV,15,1,701,Correct,15,837
15,RCRCA,225,1,740,Correct,15,760
15,KXKPK,222,2,826,Correct,15,813
15,NPNPN,151,1,493,Correct,15,853
15,YCYCY,152,1,622,Correct,15,698
15,PXPAP,112,2,708,Incorrect,15,916
15,ZCZNZ,14,2,905,Correct,15,828
15,KYKGK,185,2,829,Correct,15,806
15,ANLPL,231,2,849,Correct,15,749
15,CXCPC,222,2,631,Correct,15,700
15,YRYRY,151,1,688,Correct,15,785
15,LGLGL,196,1,683,Correct,15,763
15,VYVLV,16,2,681,Correct,15,712
15,KVKVK,151,1,1125,Correct,15,674
15,RKRKR,152,1,911,Correct,15,817
15,VXVXV,153,1,577,Correct,15,685
15,XAXAX,12,3,712,Correct,15,941
