Trial No,Stimulus,Trigger,Response,Response Time(ms),Correct,Block,Fixation Duration
Practice
OT Practice
1,SKSKS,15,,,False,0,682
1,DLDUD,16,,,False,0,730
1,PDPGP,16,2,1230,Correct,0,662
1,MWMWM,15,1,871,Correct,0,671
1,FTFTF,15,2,666,False,0,756
1,AXAMA,16,2,918,Correct,0,754
1,RYRGR,16,2,998,Correct,0,793
1,DODOD,15,1,598,Correct,0,761
1,QTQAQ,16,2,743,Correct,0,732
1,YEYEY,15,1,514,Correct,0,693
2,GYGDG,16,2,708,Correct,0,742
2,SWSWS,15,1,505,Correct,0,910
2,HLHUH,16,2,791,Correct,0,911
2,DEDED,15,1,633,Correct,0,931
2,ZPZOZ,16,2,626,Correct,0,914
2,ATATA,15,1,706,Correct,0,699
2,QOQOQ,15,1,712,Correct,0,904
2,FPFGF,16,2,800,Correct,0,808
2,TRTET,16,2,745,Correct,0,711
2,DQDQD,15,1,812,Correct,0,891
4,PLPLP,15,1,753,Correct,0,923
4,ATAIA,16,2,826,Correct,0,751
4,SKSGS,16,2,733,Correct,0,804
4,ZYZYZ,15,2,603,False,0,681
4,QSQSQ,15,1,818,Correct,0,947
4,TZTDT,16,2,851,Correct,0,854
4,JYJGJ,16,2,648,Correct,0,764
4,DYDYD,15,1,820,Correct,0,764
4,LTLCL,16,2,1060,Correct,0,896
4,FQFEF,16,2,633,Correct,0,948
1,SKSKS,15,1,902,Correct,0,678
1,DLDUD,16,2,690,Correct,0,939
1,PDPGP,16,1,782,False,0,708
1,MWMWM,15,1,896,Correct,0,899
1,FTFTF,15,1,757,Correct,0,771
1,AXAMA,16,2,687,Correct,0,720
1,RYRGR,16,2,699,Correct,0,753
1,DODOD,15,1,1098,Correct,0,657
1,QTQAQ,16,2,696,Correct,0,700
1,YEYEY,15,1,803,Correct,0,747
2,GYGDG,16,2,762,Correct,0,665
2,SWSWS,15,1,724,Correct,0,655
2,HLHUH,16,2,820,Correct,0,656
2,DEDED,15,1,566,Correct,0,891
2,ZPZOZ,16,2,612,Correct,0,828
2,ATATA,15,1,559,Correct,0,890
2,QOQOQ,15,1,737,Correct,0,805
2,FPFGF,16,2,711,Correct,0,872
2,TRTET,16,2,717,Correct,0,900
2,DQDQD,15,2,932,False,0,804
DT Practice
1,TKTKT,15,1,940,Correct,0,940
1,SLSUS,16,2,1059,Correct,0,702
1,VZVGV,7,,,False,0,841
1,XWXZX,7,[2][3],[715][1227],Correct,0,745
1,ATATA,15,1,875,Correct,0,924
1,HXZMH,16,,,False,0,856
1,TZTZT,7,[2],[1192],False,0,921
1,UOUOU,15,,,False,0,855
1,ZTWAW,16,2,1568,Correct,0,949
1,RZRER,7,[2],[1303],False,0,842
2,JYJDJ,16,2,1063,Correct,0,695
2,DWDWD,15,1,1063,Correct,0,686
2,GNGNG,7,[1][3],[1093][1445],Correct,0,780
2,NEZEZ,16,2,1213,False,0,736
2,RNROR,7,[2],[1156],False,0,937
2,QTQNQ,7,[2][3],[900][1171],Correct,0,917
2,HOHON,15,1,940,Correct,0,651
2,KPKGK,16,2,936,Correct,0,934
2,DRDED,16,2,1066,Correct,0,789
2,LNLNL,7,[1][3],[768][1152],Correct,0,921
4,GLGLG,15,1,1025,Correct,0,815
4,DTDID,16,2,842,Correct,0,875
4,SMSGS,16,2,913,Correct,0,742
4,ZFZYZ,7,[2][3],[819][1187],Correct,0,925
4,TSTFT,7,[2][3],[755][1043],Correct,0,684
4,OFOFO,7,[1][3],[970][1306],Correct,0,676
4,WYFGW,16,2,1481,Correct,0,807
4,WYWYW,15,1,1014,Correct,0,778
4,MFMCM,7,[2][3],[1187][1459],Correct,0,863
4,HQHEH,16,2,1405,Correct,0,698
Trials
1,D,5,3,8501,New Target,1,766
1,ZNZYZ,161,,,Incorrect,1,777
1,FZFZF,151,1,939,Correct,1,907
1,RKRKR,152,1,1086,Correct,1,827
1,RXRNR,161,2,1513,Correct,1,885
1,CNCFC,162,2,1191,Correct,1,804
1,PDPDP,7,[1][3],[879][1135],Correct,1,777
1,CPCFC,14,2,864,Correct,1,666
1,VLVNV,162,2,779,Correct,1,699
1,KFKFK,151,2,698,Incorrect,1,714
1,ZNZNZ,152,1,784,Correct,1,934
1,KCKPD,235,2,891,Correct,1,781
1,ZKZFZ,222,2,784,Correct,1,829
1,NRNZN,162,2,989,Correct,1,711
1,KXKRK,163,2,781,Correct,1,893
1,YPYZY,164,2,1307,Correct,1,682
1,FKDKF,223,2,902,Incorrect,1,664
1,RPRPR,113,1,829,Correct,1,795
1,VRVKV,161,2,757,Correct,1,758
1,RFRPR,162,2,1056,Correct,1,812
1,KVKVK,151,2,911,Incorrect,1,779
1,YKYVY,161,,,Incorrect,1,722
1,VDVDV,8,[1][3],[1190][1398],Correct,1,944
1,DVZVZ,221,1,1400,Correct,1,912
1,YFYFY,113,1,790,Correct,1,906
1,ZYZYZ,152,1,891,Correct,1,884
1,VLVXV,161,2,933,Correct,1,716
1,DPXZX,231,2,1211,Correct,1,756
1,RYRYR,113,1,1087,Correct,1,878
1,PDPNP,91,[2][3],[998][1366],Correct,1,912
1,KXKXK,13,1,1489,Correct,1,897
1,ZYZYZ,152,1,770,Correct,1,765
1,VKVKV,153,1,880,Correct,1,673
1,YZYZY,154,1,712,Correct,1,801
1,NLNZN,161,2,992,Correct,1,882
1,ZNDYZ,233,2,1076,Correct,1,788
1,PCPXP,222,2,868,Correct,1,731
1,ZVZFZ,162,1,1116,Incorrect,1,788
1,RCRZR,163,2,1226,Correct,1,780
1,LRLRL,151,1,840,Correct,1,694
1,ZDZDZ,10,[1][3],[731][1035],Correct,1,753
1,RNRZR,14,2,812,Correct,1,752
1,CXCYC,162,2,950,Correct,1,809
1,RCRLR,163,2,989,Correct,1,706
1,FRFRF,151,1,768,Correct,1,742
1,XFXFX,152,1,728,Correct,1,937
1,RPRLR,161,2,753,Correct,1,809
1,YXYRY,162,2,895,Correct,1,723
1,FYFYF,151,1,777,Correct,1,741
1,YZYVY,161,2,904,Correct,1,656
1,YKYKY,151,1,738,Correct,1,700
1,XRXRX,152,2,704,Incorrect,1,794
1,XVXZX,161,2,1265,Correct,1,719
1,PDPDP,11,[1][3],[887][1143],Correct,1,876
1,ZFZFZ,13,1,908,Correct,1,836
1,PXPXP,152,1,691,Correct,1,720
1,LYLYL,153,2,717,Incorrect,1,888
1,NKNKD,225,,,Incorrect,1,658
1,ZNZNZ,113,1,1438,Correct,1,712
1,PYPZP,161,2,990,Correct,1,828
1,XPXPX,151,1,1158,Correct,1,674
1,VLVLV,152,1,1011,Correct,1,785
1,PKPXP,161,2,1025,Correct,1,889
1,FZFZF,151,1,787,Correct,1,819
1,LDLDL,12,[1][3],[1081][1353],Correct,1,840
2,U,5,3,1917,New Target,2,690
2,ZVZFZ,161,2,1328,Correct,2,752
2,FZFZF,151,1,1067,Correct,2,669
2,RFRFR,152,1,888,Correct,2,913
2,NZNKN,161,2,927,Correct,2,738
2,FZFNF,162,2,912,Correct,2,867
2,RXRXR,151,1,834,Correct,2,848
2,KRKYK,161,2,868,Correct,2,948
2,NZNPN,162,2,813,Correct,2,802
2,XPXPX,151,1,916,Correct,2,868
2,CUCUC,7,[1][3],[1291][1563],Correct,2,702
2,RFRFR,13,1,882,Correct,2,815
2,VYVXV,161,2,905,Correct,2,817
2,VDVDV,191,1,1288,Correct,2,921
2,ZKZRZ,15,2,906,Correct,2,917
2,XCXCX,151,1,752,Correct,2,788
2,CNCUC,82,[2][3],[998][1270],Correct,2,813
2,RCRCR,13,1,975,Correct,2,746
2,ZPZXZ,161,2,790,Correct,2,760
2,FKFYF,162,2,890,Correct,2,913
2,ZFZYZ,163,2,962,Correct,2,737
2,PXPXP,151,1,823,Correct,2,766
2,URCKC,231,2,1222,Correct,2,684
2,PCPCP,113,1,940,Correct,2,936
2,XNXNX,152,1,1285,Correct,2,705
2,RCRZR,161,2,917,Correct,2,931
2,XVXVX,151,1,800,Correct,2,656
2,NRNRN,152,1,869,Correct,2,941
2,FPFPF,225,1,800,Correct,2,721
2,XVXFX,222,2,972,Correct,2,670
2,PRPRP,151,1,764,Correct,2,928
2,FYFCF,161,2,889,Correct,2,734
2,XUXFX,91,[1][2],[1039][1343],Incorrect,2,877
2,CYCVC,14,1,1262,Incorrect,2,726
2,VDVKV,172,2,1571,Correct,2,902
2,YCYCY,15,1,1002,Correct,2,878
2,NKNLN,161,2,990,Correct,2,738
2,XPUKX,233,2,1457,Correct,2,813
2,ZPZPZ,113,1,1486,Correct,2,937
2,KRKRK,152,1,1240,Correct,2,916
2,XKXKX,153,1,1125,Correct,2,776
2,YUYVY,101,[2][3],[1074][1410],Correct,2,663
2,XKXFU,235,1,915,Incorrect,2,834
2,NFNFN,113,1,1084,Correct,2,722
2,KDKDK,193,1,1225,Correct,2,879
2,XYXKX,16,2,1075,Correct,2,823
2,YZUZY,223,1,1473,Correct,2,869
2,KFKVK,222,2,1188,Correct,2,723
2,LYLYL,151,1,1076,Correct,2,684
2,CXCDC,184,2,1064,Incorrect,2,674
2,XZXNX,16,2,931,Correct,2,891
2,PXPXP,151,1,986,Correct,2,728
2,ZRZYZ,161,2,1066,Correct,2,865
2,PUPYP,111,[2][3],[1340][1596],Correct,2,721
2,RNRNR,14,1,1044,Correct,2,677
2,KDKDK,195,1,1308,Correct,2,679
2,KNKNK,15,1,1048,Correct,2,650
2,PRPKP,161,2,937,Correct,2,790
2,UNYNY,221,1,907,Correct,2,905
2,NYNYN,113,1,1186,Correct,2,724
2,YXYXY,152,1,1072,Incorrect,2,681
2,RDRDR,196,1,940,Correct,2,925
2,FCFCF,15,1,1040,Correct,2,819
2,ZKZKZ,152,2,691,Incorrect,2,769
2,ZUZUZ,12,[1],[1108],Incorrect,2,794
3,E,5,3,1843,New Target,3,878
3,YZYZY,151,1,1078,Correct,3,873
3,VFVNV,161,2,1058,Correct,3,853
3,KYKYK,151,1,1135,Correct,3,867
3,NKNKN,152,1,1003,Correct,3,828
3,XVXNX,161,2,969,Correct,3,899
3,RERFR,71,[2],[1476],Incorrect,3,903
3,XNXNX,13,1,974,Correct,3,727
3,NXNXN,152,1,1039,Correct,3,847
3,ZLZNZ,161,2,863,Correct,3,793
3,CUCNC,171,2,1064,Correct,3,713
3,FYFRF,16,2,850,Correct,3,893
3,ZLZLZ,151,1,797,Correct,3,670
3,YZYZY,152,1,803,Correct,3,888
3,CYCYC,153,1,1338,Correct,3,862
3,VUVUV,192,1,844,Correct,3,889
3,PXPRP,16,2,907,Correct,3,650
3,YPYPY,151,1,982,Correct,3,651
3,CECEC,8,[1][3],[1070][1326],Correct,3,650
3,VNENV,223,,,Incorrect,3,748
3,KRKFK,222,2,1145,Correct,3,753
3,XLXLE,225,2,966,Incorrect,3,835
3,RFRUR,183,2,980,Correct,3,918
3,XRXLX,16,2,1032,Correct,3,805
3,NZNPN,162,2,1003,Correct,3,692
3,XZXZX,151,1,760,Correct,3,923
3,FZFZF,152,1,916,Correct,3,670
3,PFPFP,153,1,968,Correct,3,687
3,YZYXY,161,2,1303,Correct,3,765
3,KEKEK,9,[1][3],[999][1351],Correct,3,864
3,CXCPC,14,2,911,Correct,3,715
3,VXVXV,151,1,837,Correct,3,736
3,NUNZN,174,2,806,Correct,3,768
3,RKRVR,16,2,1066,Correct,3,885
3,XRXRX,151,1,738,Correct,3,846
3,ERNFN,231,2,1366,Incorrect,3,913
3,YRYNY,222,2,790,Correct,3,738
3,PZPEP,102,[2][3],[1026][1249],Correct,3,782
3,ZYZXZ,14,2,1120,Correct,3,661
3,RZRVR,162,2,794,Correct,3,807
3,XRXRX,151,1,763,Correct,3,843
3,KUKFK,175,2,941,Correct,3,841
3,RKRKR,15,1,786,Correct,3,654
3,ZFZFZ,152,1,915,Correct,3,892
3,YZYVY,161,2,767,Correct,3,861
3,XPXNX,162,2,852,Correct,3,881
3,YRYRY,151,1,660,Correct,3,879
3,EPVPV,221,1,1471,Correct,3,717
3,CRCEC,112,[2],[1059],Incorrect,3,725
3,RFRCR,14,,,Incorrect,3,922
3,CPCVC,162,,,Incorrect,3,950
3,RXRCR,163,2,1074,Correct,3,710
3,VNVLV,164,2,795,Correct,3,844
3,ZXZXZ,151,1,829,Correct,3,825
3,ZCZCZ,152,1,678,Correct,3,673
3,PYPUP,186,2,934,Correct,3,676
3,YKYPY,16,2,801,Correct,3,861
3,YREXY,233,2,1318,Correct,3,888
3,ZKZKZ,113,1,952,Correct,3,788
3,XLXNX,161,2,1221,Correct,3,855
3,KFKRE,235,2,821,Correct,3,930
3,RXRLR,222,,,Incorrect,3,716
3,RERXR,121,[2],[1438],Incorrect,3,689
4,J,5,3,1484,New Target,4,872
4,CYCVC,161,2,1162,Correct,4,715
4,RXRCR,162,2,861,Correct,4,800
4,FPFVF,163,2,1318,Correct,4,685
4,LZLZL,151,1,794,Correct,4,726
4,PLPLP,152,1,948,Correct,4,671
4,NPNPN,153,1,768,Correct,4,898
4,XZXZX,161,1,789,Incorrect,4,767
4,CNCKC,162,2,1212,Correct,4,713
4,PCPYJ,235,2,1076,Correct,4,719
4,VYVYV,113,1,1248,Correct,4,854
4,RLRLR,152,1,1038,Correct,4,876
4,CJCJC,7,[1][3],[1171][1411],Correct,4,859
4,ZLZLZ,13,1,1069,Correct,4,717
4,FZFZF,152,1,953,Correct,4,782
4,CFCFC,153,1,717,Correct,4,664
4,PZPZP,154,1,1246,Correct,4,913
4,XEXEX,191,1,976,Correct,4,919
4,NVNFN,16,2,779,Correct,4,832
4,KYKYK,151,2,1027,Incorrect,4,761
4,ZNZVZ,161,,,Incorrect,4,868
4,YVJXY,233,2,1471,Correct,4,927
4,XFXFX,113,1,1030,Correct,4,825
4,XNXNX,152,1,941,Correct,4,943
4,FJFKF,81,[2][3],[1078][1398],Correct,4,890
4,CZCYC,14,2,1010,Correct,4,790
4,ZXZCZ,162,2,1040,Correct,4,820
4,RYRYJ,225,1,1080,Correct,4,934
4,FPFZF,222,2,1074,Correct,4,765
4,XRXRX,151,1,932,Correct,4,929
4,YPYEY,182,,,Incorrect,4,775
4,XRXRX,15,1,748,Correct,4,802
4,XZXPX,161,2,756,Correct,4,742
4,CJCJC,9,[1][3],[1075][1410],Correct,4,783
4,ZXZVZ,14,2,1269,Correct,4,758
4,VKVKV,151,1,937,Correct,4,828
4,VEVNV,173,2,873,Correct,4,730
4,ZKZVZ,16,2,1211,Correct,4,854
4,XVXJX,102,[2][3],[1146][1466],Correct,4,945
4,RXRVR,14,2,1043,Correct,4,662
4,LRLRL,151,1,699,Correct,4,883
4,YNJNY,223,1,1064,Correct,4,685
4,NPNJN,222,2,1111,Correct,4,658
4,ZEZEZ,194,1,859,Correct,4,911
4,ZNZNZ,15,1,1040,Correct,4,793
4,YZYZY,152,1,889,Correct,4,842
4,XYXYX,153,1,840,Correct,4,857
4,ZXZXZ,221,1,1082,Correct,4,800
4,LYLZL,222,2,1000,Correct,4,708
4,CYCNC,162,2,975,Correct,4,909
4,XEXEX,195,1,830,Correct,4,803
4,CVCXC,16,2,899,Correct,4,667
4,ZPZXZ,162,2,1079,Correct,4,748
4,FZFZF,151,1,799,Correct,4,808
4,RXRJR,112,[2][3],[1224][1414],Correct,4,947
4,PRPFP,14,2,1220,Correct,4,800
4,PKPEP,186,2,814,Correct,4,674
4,XZXPX,16,2,694,Correct,4,687
4,JCZVZ,231,2,1221,Correct,4,680
4,RXRLR,222,2,1288,Correct,4,811
4,VZVZV,151,1,1053,Correct,4,734
4,XJXJX,12,[1][3],[993][1280],Correct,4,747
5,I,5,3,1934,New Target,5,692
5,PCPCP,151,1,1115,Correct,5,805
5,XYXYX,152,1,848,Correct,5,894
5,VXVXV,153,1,871,Correct,5,786
5,XVXVX,154,1,920,Correct,5,811
5,ZRZXZ,161,2,889,Correct,5,729
5,FPFZF,162,2,844,Correct,5,716
5,ZYZYZ,151,1,1263,Correct,5,759
5,RVRZR,161,2,837,Correct,5,807
5,CICIC,7,[1][3],[834][1122],Correct,5,892
5,XLXLX,13,1,977,Correct,5,941
5,YVYVY,152,1,882,Correct,5,727
5,CJCJC,191,1,1570,Correct,5,878
5,FNFCF,16,2,925,Correct,5,692
5,PVPRP,162,2,905,Correct,5,896
5,FZFZF,151,1,830,Correct,5,773
5,NVIVN,223,1,1357,Correct,5,879
5,CVCIC,82,,,Incorrect,5,945
5,ZXZXZ,13,1,1140,Correct,5,864
5,FCFZF,161,2,855,Correct,5,902
5,IXRXR,221,1,1374,Correct,5,669
5,ZPZNZ,222,2,1175,Correct,5,913
5,VZVZV,151,1,927,Correct,5,857
5,YRYNY,161,2,989,Correct,5,797
5,VNVPV,162,2,1026,Correct,5,671
5,RVRJR,182,,,Incorrect,5,876
5,VRVRV,15,1,801,Correct,5,836
5,VIVIV,9,[1][3],[981][1255],Correct,5,854
5,CXCVC,14,2,979,Correct,5,666
5,PZPZP,151,1,828,Correct,5,925
5,IXVKV,231,,,Incorrect,5,657
5,YJYCY,173,2,1434,Incorrect,5,769
5,VYVYV,15,1,775,Correct,5,848
5,YVYVY,152,1,1133,Correct,5,824
5,NVNVN,153,1,734,Correct,5,942
5,XYXVX,161,2,1069,Correct,5,693
5,NJNCN,174,2,1034,Correct,5,661
5,NXNYN,16,2,765,Correct,5,664
5,VXVCV,162,2,978,Correct,5,810
5,ZKZKZ,151,1,843,Correct,5,868
5,XRXYX,161,2,879,Correct,5,770
5,ZCZXZ,162,2,688,Correct,5,797
5,KVKYI,235,2,988,Correct,5,678
5,CNCNC,113,1,939,Correct,5,778
5,RIRIR,10,[2],[1477],Incorrect,5,915
5,VYVXV,14,,,Incorrect,5,832
5,FXIRF,233,,,Incorrect,5,797
5,PFPFP,113,1,900,Correct,5,791
5,VPVPV,152,1,719,Correct,5,883
5,ZJZJZ,195,2,1066,Incorrect,5,766
5,ZVZNZ,16,2,1041,Correct,5,869
5,YVYXY,162,2,829,Correct,5,690
5,PRPRP,151,1,974,Correct,5,873
5,YPYPY,152,1,1089,Correct,5,666
5,ZIZPZ,111,[2][3],[1323][1563],Correct,5,950
5,NKNXN,14,2,1545,Correct,5,712
5,RZRXR,162,2,1007,Correct,5,899
5,RXRXR,151,1,869,Correct,5,908
5,ZJZJZ,196,1,1290,Correct,5,717
5,CVCVI,225,1,989,Incorrect,5,770
5,NKNKN,113,1,1003,Correct,5,726
5,NRNZN,161,2,1467,Correct,5,770
5,CNCNC,151,1,810,Correct,5,733
5,RFRIR,122,[2][3],[1061][1299],Correct,5,697
6,B,5,3,1232,New Target,6,723
6,YKYZY,161,,,Incorrect,6,939
6,VCVRV,162,2,1371,Correct,6,737
6,XVXVX,151,1,1198,Correct,6,666
6,KZKRK,161,,,Incorrect,6,926
6,ZVZXZ,162,2,1287,Correct,6,759
6,RCRNR,163,2,1083,Correct,6,722
6,CXCRC,164,2,1195,Correct,6,656
6,VNBCV,233,2,849,Correct,6,791
6,CXCVC,222,2,1013,Correct,6,736
6,RFRFR,151,,,Incorrect,6,697
6,XPXRX,161,,,Incorrect,6,795
6,RYRBR,72,[2],[853],Incorrect,6,897
6,ZKZKZ,13,1,779,Correct,6,919
6,FIFRF,171,2,877,Correct,6,876
6,VZVLV,16,2,1107,Correct,6,723
6,RPRVR,162,2,990,Correct,6,719
6,YBYBY,8,[1],[763],Incorrect,6,876
6,PYPVP,14,2,956,Correct,6,742
6,NININ,192,1,1261,Correct,6,718
6,RNRNR,15,1,877,Correct,6,948
6,NXNVN,161,2,764,Correct,6,837
6,RNRNR,151,1,1239,Correct,6,654
6,FRFVF,161,2,1161,Correct,6,865
6,YVYFB,235,2,1199,Incorrect,6,911
6,ZRZXZ,222,2,810,Correct,6,655
6,VNVIV,193,,,Incorrect,6,821
6,PXPNP,16,2,724,Correct,6,773
6,ZXZPZ,162,2,874,Correct,6,936
6,VBVBV,9,[3][1],[839][1175],Incorrect,6,741
6,CXCXC,13,1,1259,Correct,6,817
6,PCPFP,161,2,748,Correct,6,810
6,KNKNK,151,1,740,Correct,6,847
6,XIXIX,194,1,973,Correct,6,697
6,CYCYC,15,2,1004,Incorrect,6,784
6,FVFYF,161,2,827,Correct,6,703
6,YNYRY,162,2,685,Correct,6,758
6,BVPXP,231,2,782,Correct,6,688
6,NXNXN,113,1,932,Correct,6,780
6,FRFRF,152,1,968,Correct,6,728
6,YVYVY,153,1,833,Correct,6,861
6,ZKZCZ,161,2,719,Correct,6,656
6,VIVXV,175,2,1379,Correct,6,838
6,PRBRP,223,,,Incorrect,6,703
6,YZYBY,102,[2],[894],Incorrect,6,671
6,CXCVC,14,2,942,Correct,6,829
6,FYFYF,151,1,1004,Correct,6,825
6,VKVXV,161,2,1102,Correct,6,657
6,ZBZBZ,11,[1],[834],Incorrect,6,870
6,FPFNF,14,2,962,Correct,6,797
6,CXCXC,151,1,901,Correct,6,669
6,YCYCY,152,1,854,Correct,6,837
6,FPFPF,153,2,1546,Incorrect,6,772
6,CVCVB,225,1,1007,Correct,6,894
6,ZCZCZ,113,1,606,Correct,6,689
6,CZCNC,161,2,803,Correct,6,937
6,KIKFK,176,2,1522,Correct,6,910
6,PXPXP,15,1,926,Correct,6,726
6,RYRYR,152,1,889,Correct,6,937
6,ZRZCZ,161,2,970,Correct,6,755
6,RVRVR,151,1,805,Correct,6,894
6,XYXNX,161,2,854,Correct,6,887
6,BVKVK,221,1,1372,Correct,6,656
6,CBCBC,12,,,Incorrect,6,786
7,W,5,3,1480,New Target,7,825
7,RKRKR,151,1,849,Correct,7,937
7,CVCRC,161,2,847,Correct,7,852
7,PKPKP,151,1,755,Correct,7,784
7,FPFPF,152,1,839,Correct,7,845
7,VRVPV,161,2,840,Correct,7,830
7,ZKZYZ,162,2,1016,Correct,7,875
7,PVPCP,233,2,788,Correct,7,782
7,KVKVK,113,1,869,Correct,7,887
7,YXYVY,161,2,740,Correct,7,924
7,FNFNF,151,1,774,Correct,7,901
7,YWYWY,7,[1][3],[1128][1369],Correct,7,891
7,ZYZYZ,13,1,1057,Correct,7,750
7,PYPYP,152,1,750,Correct,7,747
7,XRXRX,153,1,732,Correct,7,713
7,PXPXP,154,1,627,Correct,7,772
7,FCFBF,181,2,705,Correct,7,710
7,FVFVF,15,1,874,Correct,7,755
7,CYCZC,161,2,873,Correct,7,871
7,XZXVX,162,2,875,Correct,7,732
7,PFPFP,151,1,862,Correct,7,764
7,RVRLR,161,2,687,Correct,7,797
7,ZBZBZ,192,1,692,Correct,7,867
7,VCVNV,16,2,728,Correct,7,890
7,NWNWN,8,[1][3],[1149][1438],Correct,7,729
7,XNXVX,14,2,1263,Correct,7,687
7,CXCNC,162,2,805,Correct,7,700
7,YVYVW,225,1,1050,Correct,7,858
7,VFVFV,113,1,772,Correct,7,849
7,VFWFV,223,1,931,Correct,7,875
7,CVCFC,222,2,959,Correct,7,935
7,YBYBY,193,1,894,Correct,7,778
7,PYPYP,15,1,828,Correct,7,926
7,NKNWN,91,[2][3],[1236][1524],Correct,7,828
7,VNVNV,13,1,901,Correct,7,683
7,RVRVR,152,1,888,Correct,7,650
7,FVFBF,184,2,721,Incorrect,7,713
7,VZVKV,16,2,924,Correct,7,688
7,VPVCV,162,2,879,Correct,7,692
7,WYZCZ,231,2,1276,Correct,7,928
7,PFPFP,113,1,708,Correct,7,673
7,PRPRP,152,1,856,Correct,7,926
7,NWNWN,10,[1][3],[937][1274],Correct,7,725
7,VKVCV,14,2,910,Correct,7,713
7,WPYPY,221,1,805,Correct,7,698
7,VBVBV,195,1,710,Correct,7,831
7,ZKZYZ,16,2,752,Correct,7,688
7,XYXYX,151,1,827,Correct,7,776
7,FZFXF,161,2,764,Correct,7,848
7,XKXKX,151,1,1173,Correct,7,764
7,XPXPX,152,1,1117,Correct,7,650
7,FWFWF,11,[1][3],[911][1214],Correct,7,695
7,FNFBF,186,2,1051,Correct,7,735
7,ZVZYZ,16,2,1072,Correct,7,944
7,FZFZF,151,1,848,Correct,7,661
7,NPNFW,235,2,800,Correct,7,941
7,PCPCP,113,1,711,Correct,7,697
7,NKNWN,122,[2][3],[1201][1440],Correct,7,726
8,M,5,3,1779,New Target,8,943
8,VYVNV,161,2,1000,Correct,8,753
8,KLKNK,162,2,833,Correct,8,943
8,NRNRN,151,1,852,Correct,8,786
8,VNVFV,161,2,775,Correct,8,822
8,XNXNM,225,1,807,Correct,8,855
8,CXCVC,222,2,812,Correct,8,814
8,KRKZK,162,2,940,Correct,8,905
8,NMNFN,71,[2][3],[1261][1517],Correct,8,662
8,ZFZFZ,13,1,869,Correct,8,679
8,YPYCY,161,2,996,Correct,8,902
8,KCKCK,151,1,779,Correct,8,947
8,VNVNV,152,1,755,Correct,8,756
8,LXLXL,153,1,885,Correct,8,864
8,CLCLC,154,1,682,Correct,8,757
8,NYNYN,155,1,719,Correct,8,831
8,LCMYL,233,2,1345,Correct,8,929
8,NCNCN,113,1,1037,Correct,8,949
8,ZVZRZ,161,2,936,Correct,8,782
8,ZVZVZ,151,1,891,Correct,8,728
8,PZPVP,161,2,1057,Correct,8,727
8,PWPNP,171,2,1025,Correct,8,700
8,KLKCM,235,2,1287,Correct,8,920
8,XMXMX,8,[1][3],[1077][1428],Correct,8,909
8,PRPXP,14,2,925,Correct,8,810
8,CVCYC,162,2,1038,Correct,8,805
8,PXPMP,92,[2][3],[1010][1251],Correct,8,749
8,ZCZLZ,14,2,953,Correct,8,848
8,XWXWX,192,1,1480,Correct,8,722
8,ZCZLZ,16,2,952,Correct,8,674
8,MNCYC,231,2,1141,Correct,8,785
8,ZXZXZ,113,1,930,Correct,8,741
8,YRYNY,161,2,963,Correct,8,786
8,ZLZPZ,162,2,751,Correct,8,872
8,VZVZV,151,1,818,Correct,8,936
8,MXPXP,221,1,1554,Correct,8,885
8,VWVWV,193,1,1353,Correct,8,745
8,PYPYP,16,1,907,Incorrect,8,769
8,XPXVX,162,2,858,Correct,8,890
8,XLXLX,151,1,1095,Correct,8,857
8,YMYMY,10,[1][3],[942][1262],Correct,8,872
8,VYVYV,13,1,1018,Correct,8,848
8,PWPZP,174,2,1498,Correct,8,670
8,PYPKP,16,2,735,Correct,8,922
8,NPNXN,162,2,965,Correct,8,788
8,KVKVK,223,1,1025,Correct,8,831
8,NVNFN,222,2,672,Correct,8,741
8,XNXNX,151,1,805,Correct,8,862
8,YZYMY,112,[2][3],[1015][1319],Correct,8,723
8,PFPFP,13,1,933,Correct,8,861
8,ZWZWZ,195,2,1090,Incorrect,8,867
8,PCPZP,16,2,1117,Correct,8,745
8,LRLPL,162,2,1439,Correct,8,913
8,CZCZC,151,1,839,Correct,8,854
8,NZNZN,152,1,962,Correct,8,657
8,CVCXC,161,2,1118,Correct,8,819
8,XCXCX,151,1,801,Correct,8,930
8,YWYWY,196,2,1278,Incorrect,8,672
8,NLNLN,15,1,1205,Correct,8,705
8,VNVNV,152,1,1374,Correct,8,666
8,ZMZMZ,12,[1][3],[946][1202],Correct,8,772
9,S,5,3,3013,New Target,9,800
9,NZNZN,151,1,1159,Correct,9,777
9,KVKZK,161,2,810,Correct,9,841
9,LZLZL,151,1,829,Correct,9,844
9,XLXLX,152,1,779,Correct,9,944
9,ZXZXZ,153,1,991,Correct,9,840
9,KNKZK,161,2,1232,Correct,9,684
9,NRNYN,162,2,738,Correct,9,837
9,CLCVC,163,2,1097,Correct,9,845
9,ZCZFZ,164,2,873,Correct,9,924
9,NSNSN,7,[1][3],[989][1292],Correct,9,718
9,VZVZV,13,1,858,Correct,9,809
9,NVNCN,161,2,1079,Correct,9,850
9,VMVMV,191,1,764,Correct,9,874
9,CVCXC,16,2,925,Correct,9,924
9,ZYZRZ,162,2,788,Correct,9,653
9,XNXZX,163,2,887,Correct,9,783
9,PXPXP,151,1,747,Correct,9,743
9,VCVSV,82,[2][3],[1010][1379],Correct,9,739
9,PRPCP,14,2,877,Correct,9,801
9,ZMZMZ,192,1,819,Incorrect,9,690
9,ZFZFZ,15,1,754,Correct,9,920
9,FCFCF,152,1,678,Correct,9,826
9,YLYZY,161,2,865,Correct,9,726
9,KNKVK,162,2,1332,Correct,9,840
9,SFPCP,231,2,1559,Correct,9,755
9,RPRPR,113,1,1077,Correct,9,668
9,XMXMX,193,1,928,Correct,9,806
9,KFKFK,15,1,953,Correct,9,946
9,VSVSV,9,[1][3],[1016][1352],Correct,9,685
9,YVSVY,223,1,1174,Correct,9,915
9,VPVPV,113,1,764,Correct,9,755
9,XZXZX,152,1,1169,Correct,9,850
9,KZKXK,161,2,836,Correct,9,942
9,RFRPR,162,2,938,Correct,9,716
9,NVNVS,225,1,1221,Correct,9,863
9,ZXZXZ,113,1,1037,Correct,9,775
9,SRVRV,221,1,1191,Correct,9,813
9,YCYCY,113,1,781,Correct,9,802
9,KMKZK,174,2,723,Correct,9,765
9,FZSVF,233,2,1210,Correct,9,766
9,VYVYV,113,1,833,Correct,9,804
9,LVLVL,152,1,862,Correct,9,896
9,YFYFY,153,1,612,Correct,9,752
9,NXNSN,102,[2][3],[1121][1376],Correct,9,776
9,FNFCF,14,2,928,Correct,9,720
9,KVKVK,151,1,974,Correct,9,840
9,VZVCV,161,2,792,Correct,9,939
9,ZYZMZ,185,2,956,Correct,9,837
9,VXVZV,16,2,859,Correct,9,879
9,VPVPV,151,1,586,Correct,9,775
9,RVRNS,235,2,969,Correct,9,793
9,YZYZY,113,1,892,Correct,9,674
9,ZSZSZ,11,[1][3],[908][1226],Correct,9,859
9,FRFRF,13,1,1217,Correct,9,857
9,ZMZMZ,196,1,691,Correct,9,940
9,NZNXN,16,2,731,Correct,9,802
9,LSLFL,121,[2][3],[1329][1554],Correct,9,904
10,Q,5,3,4053,New Target,10,873
10,ZVZPZ,161,2,857,Correct,10,792
10,RZRZR,151,1,733,Correct,10,803
10,ZFZFZ,152,1,981,Correct,10,747
10,RZRZR,153,1,944,Correct,10,876
10,PZPXP,161,2,860,Correct,10,895
10,VFQPV,233,2,1311,Correct,10,788
10,ZPZRZ,222,2,1184,Correct,10,776
10,CYCVC,162,1,776,Incorrect,10,679
10,CPCPC,151,1,877,Correct,10,903
10,YZYQY,72,[2][3],[935][1172],Correct,10,880
10,FVFXF,14,2,890,Correct,10,856
10,YNYNQ,225,1,955,Correct,10,757
10,ZYZYZ,113,1,1115,Correct,10,799
10,FRFSF,181,2,949,Incorrect,10,842
10,XNXPX,16,2,819,Correct,10,817
10,NXNXN,151,1,805,Correct,10,817
10,PVPZP,161,2,982,Correct,10,864
10,XVXPX,162,2,882,Correct,10,923
10,FXFVF,163,2,754,Correct,10,873
10,NSNKN,172,2,936,Incorrect,10,731
10,VXVNV,16,2,771,Correct,10,939
10,XZXZX,151,1,789,Correct,10,934
10,VQVQV,8,[1],[1376],Incorrect,10,700
10,ZYZPZ,14,2,1154,Correct,10,685
10,PZPSP,183,2,790,Correct,10,918
10,YVYVY,15,1,888,Correct,10,912
10,NCNQN,92,[2][3],[984][1239],Correct,10,945
10,FCFVF,14,2,980,Correct,10,769
10,ZFZFZ,151,1,739,Correct,10,848
10,NSNSN,194,1,794,Correct,10,828
10,YPYFY,16,2,877,Correct,10,826
10,ZKZKZ,151,1,736,Correct,10,741
10,QZRCR,231,2,1304,Correct,10,829
10,YPYVY,222,2,903,Correct,10,782
10,ZNZNZ,151,1,584,Correct,10,730
10,VQVQV,10,[1][3],[815][1104],Correct,10,659
10,RVRZR,14,2,857,Correct,10,879
10,KRKSK,185,2,732,Correct,10,790
10,NPNPN,15,1,683,Correct,10,699
10,YPYPY,152,1,609,Correct,10,930
10,VCVYV,161,2,706,Correct,10,675
10,FPFNF,162,2,699,Correct,10,652
10,QVXVX,221,1,1267,Correct,10,834
10,ZVZRZ,222,2,1160,Correct,10,797
10,LFLFL,151,1,800,Correct,10,686
10,VLVLV,152,1,683,Correct,10,716
10,KXQXK,223,1,1139,Correct,10,775
10,YQYQY,11,[1][3],[923][1196],Correct,10,722
10,YCYCY,13,1,957,Correct,10,762
10,PZPYP,161,2,811,Correct,10,823
10,LPLFL,162,2,825,Correct,10,942
10,VSVSV,196,1,1095,Correct,10,934
10,VFVYQ,235,2,1283,Correct,10,778
10,CZCXC,222,2,832,Correct,10,894
10,PVPCP,162,2,882,Correct,10,851
10,CXCXC,151,1,709,Correct,10,794
10,NZNZN,152,1,1035,Correct,10,878
10,YPYCY,161,2,919,Correct,10,776
10,ZQZQZ,12,[1][3],[923][1225],Correct,10,804
11,T,5,3,3585,New Target,11,847
11,KFKFK,151,1,940,Correct,11,748
11,LZLZL,152,1,754,Correct,11,727
11,PFPVP,161,2,819,Correct,11,889
11,FRFPF,162,2,893,Correct,11,657
11,FZFZF,151,1,811,Correct,11,832
11,VTVTV,7,[1][3],[821][1059],Correct,11,653
11,KYKCK,14,2,803,Correct,11,917
11,VPVPV,151,1,761,Correct,11,786
11,XQXQX,191,1,782,Correct,11,846
11,PZPYP,16,2,767,Correct,11,889
11,KXKLK,162,2,773,Correct,11,816
11,TCNCN,221,1,837,Correct,11,928
11,PZPNP,222,2,764,Correct,11,683
11,RCRPR,162,2,853,Correct,11,781
11,PZPRT,235,2,813,Correct,11,675
11,XFXVX,222,2,781,Correct,11,807
11,LTLVL,81,[2][3],[1156][1348],Correct,11,898
11,ZCZPZ,14,2,745,Correct,11,900
11,NCNQN,182,2,976,Correct,11,785
11,XZXNX,16,2,716,Correct,11,861
11,ZPZPZ,151,1,713,Correct,11,652
11,CFCFC,152,1,665,Correct,11,670
11,VXTRV,233,2,1201,Correct,11,824
11,CFCVC,222,2,727,Correct,11,761
11,PYPYP,151,1,808,Correct,11,944
11,FQFYF,173,2,908,Correct,11,868
11,CNCFC,16,2,734,Correct,11,697
11,PTPTP,9,[1][3],[720][961],Correct,11,676
11,ZCZCZ,13,1,1219,Correct,11,758
11,KZKZK,152,1,728,Correct,11,858
11,RLRVR,161,2,799,Correct,11,821
11,ZRZKZ,162,2,727,Correct,11,762
11,KLKLT,225,1,757,Correct,11,664
11,ZQZQZ,194,1,685,Correct,11,697
11,VZVZV,15,1,796,Correct,11,691
11,RVRZR,161,2,830,Correct,11,867
11,ZPZCZ,162,2,718,Correct,11,822
11,VYVYV,151,1,920,Correct,11,777
11,RVRVR,152,1,651,Correct,11,710
11,PTPTP,10,[1][3],[893][1117],Correct,11,777
11,PXPXP,13,1,942,Correct,11,788
11,KCKCK,152,1,1387,Correct,11,816
11,YVYVY,153,1,623,Correct,11,679
11,CYCYC,154,1,640,Correct,11,708
11,XCXCX,155,1,949,Correct,11,884
11,CYCQC,185,2,914,Correct,11,845
11,KCKNK,16,2,722,Correct,11,785
11,VPVPV,151,1,735,Correct,11,664
11,TXFZF,231,2,1058,Correct,11,917
11,NYNVN,222,2,901,Correct,11,679
11,VQVXV,176,2,717,Correct,11,895
11,ZRZRZ,15,1,819,Correct,11,843
11,VTVZV,111,[2][3],[1021][1229],Correct,11,912
11,PXPVP,14,2,1463,Correct,11,725
11,FVFVF,151,1,1023,Correct,11,846
11,VRVLV,161,2,955,Correct,11,748
11,YCYCY,151,1,559,Correct,11,696
11,XZTZX,223,1,1193,Correct,11,914
11,VTVTV,12,[1][3],[834][1091],Correct,11,710
12,O,5,3,2712,New Target,12,772
12,VXVLV,161,2,970,Correct,12,720
12,KVKCK,162,2,765,Correct,12,654
12,VLVLV,151,1,615,Correct,12,766
12,ZCZVZ,161,2,919,Correct,12,653
12,KFKFK,151,1,668,Correct,12,651
12,XKXKX,152,1,917,Correct,12,882
12,YXYXY,153,1,658,Correct,12,905
12,FVFVF,154,1,1130,Correct,12,787
12,PVPOP,72,[2][3],[1052][1260],Correct,12,856
12,ZXZYZ,14,2,812,Correct,12,856
12,PXPVP,162,2,684,Correct,12,844
12,ZTZTZ,191,1,642,Correct,12,895
12,CVCKC,16,2,796,Correct,12,746
12,CKCKC,151,1,806,Correct,12,722
12,NPNPN,152,1,786,Correct,12,898
12,ZRZNZ,161,2,812,Correct,12,737
12,OZCZC,221,1,1198,Correct,12,845
12,LFLFL,113,1,806,Correct,12,725
12,CXCXC,152,1,711,Correct,12,829
12,KPKPK,153,1,636,Correct,12,818
12,FRFKF,161,2,823,Correct,12,775
12,FOFOF,8,[1][3],[976][1233],Correct,12,725
12,ZFZFZ,13,1,817,Correct,12,710
12,LKLZO,235,2,1054,Correct,12,915
12,KLKZK,222,2,892,Correct,12,715
12,YXYCY,162,2,864,Correct,12,688
12,LOLOL,9,[1][3],[650][987],Correct,12,820
12,XLXLX,13,1,1128,Correct,12,844
12,XVXVX,152,1,947,Correct,12,720
12,FTFTF,192,1,753,Correct,12,714
12,OXNZN,231,2,981,Correct,12,865
12,CZCZC,113,1,1247,Correct,12,924
12,LZLZL,152,1,735,Correct,12,898
12,VLVPV,161,2,699,Correct,12,722
12,VYVYO,225,1,1073,Correct,12,856
12,XKXKX,113,1,940,Correct,12,707
12,RTRTR,193,1,701,Correct,12,763
12,KVKCK,16,2,705,Correct,12,919
12,ROROR,101,[1][3],[749][1035],Correct,12,789
12,PRPRP,13,,,Incorrect,12,802
12,LYLVL,161,2,839,Correct,12,942
12,PLPLP,151,1,743,Correct,12,758
12,CTCTC,194,1,715,Correct,12,908
12,XZXYX,16,2,743,Correct,12,742
12,NKNKN,151,1,637,Correct,12,711
12,VLVZV,161,2,627,Correct,12,857
12,YOYOY,11,[1][3],[879][1088],Correct,12,766
12,PZOZP,223,1,1154,Correct,12,819
12,FYFYF,113,1,780,Correct,12,719
12,ZXZVZ,161,2,767,Correct,12,753
12,VKVZV,162,2,812,Correct,12,682
12,ZTZTZ,195,1,716,Correct,12,908
12,LKLZL,16,2,838,Correct,12,730
12,KCKVK,162,2,813,Correct,12,658
12,PXPKP,163,2,838,Correct,12,736
12,KCOZK,233,2,1070,Correct,12,757
12,FKFKF,113,1,901,Correct,12,826
12,CTCRC,176,2,1334,Correct,12,850
12,NXNXN,15,1,982,Correct,12,753
12,KXKVK,161,2,785,Correct,12,857
12,CPCOC,122,[2][3],[811][1052],Correct,12,827
13,H,5,3,3865,New Target,13,655
13,VFVNV,151,2,1066,Incorrect,13,777
13,YVYVY,152,1,830,Correct,13,855
13,XVXVX,153,1,783,Correct,13,931
13,NRNXN,161,2,731,Correct,13,677
13,PZPKP,162,2,870,Correct,13,709
13,HLVLV,221,1,1229,Correct,13,656
13,CXCZC,222,2,827,Correct,13,950
13,LHLYL,71,[2][3],[1010][1250],Correct,13,862
13,YKYFY,14,2,908,Correct,13,769
13,YOYRY,171,2,907,Correct,13,827
13,ZKZYZ,16,2,763,Correct,13,738
13,RZRZR,151,1,770,Correct,13,716
13,NFNYN,161,2,699,Correct,13,738
13,KVKFK,162,2,1025,Correct,13,811
13,XFXYX,163,2,713,Correct,13,876
13,LKLVL,164,2,756,Correct,13,718
13,NLNLN,151,1,920,Correct,13,895
13,XCXOX,182,2,813,Correct,13,702
13,FXFXF,15,1,843,Correct,13,889
13,VHVHV,8,[1][3],[1036][1291],Correct,13,827
13,PVPVP,13,1,787,Correct,13,860
13,CRCXC,161,2,794,Correct,13,701
13,NXNXN,151,1,1184,Correct,13,779
13,XRXRX,152,1,582,Correct,13,793
13,YFYXY,161,2,774,Correct,13,788
13,ZOZOZ,193,2,1401,Incorrect,13,831
13,RZRZR,15,1,857,Correct,13,832
13,FKFKF,152,1,838,Correct,13,878
13,PFPFP,153,1,954,Correct,13,738
13,XYXHX,92,[2][3],[968][1193],Correct,13,921
13,RZRKR,14,2,1023,Correct,13,908
13,FLFLH,225,1,927,Correct,13,654
13,KRKRK,113,1,785,Correct,13,826
13,ZVZNZ,161,2,741,Correct,13,854
13,ZOZOZ,194,1,1160,Correct,13,878
13,FZFZF,15,1,876,Correct,13,870
13,FHFKF,101,[2][3],[1047][1255],Correct,13,933
13,ZXHLZ,233,2,1360,Correct,13,903
13,FKFXF,222,2,994,Correct,13,663
13,CFCYC,162,2,852,Correct,13,741
13,ZXZVZ,163,2,695,Correct,13,727
13,KCKOK,185,2,874,Correct,13,934
13,ZXZVH,235,2,794,Correct,13,853
13,CKCKC,113,1,788,Correct,13,661
13,ZXZCZ,161,2,790,Correct,13,846
13,YVYVY,151,1,828,Correct,13,796
13,RVHVR,223,1,843,Correct,13,903
13,ZRZRZ,113,1,785,Correct,13,744
13,ZHZHZ,11,[1][3],[1162][1340],Correct,13,798
13,VZVZV,13,1,1182,Correct,13,920
13,HZVRV,231,2,793,Correct,13,664
13,FVFVF,113,1,846,Correct,13,813
13,RNRCR,161,2,752,Correct,13,829
13,COCOC,196,1,1032,Correct,13,809
13,VNVXV,16,2,837,Correct,13,684
13,XHXHX,12,[1][3],[769][1072],Correct,13,849
14,G,5,3,2959,New Target,14,838
14,FZFZF,151,2,1156,Incorrect,14,876
14,RPRVR,161,2,807,Correct,14,848
14,XCXCX,151,1,722,Correct,14,668
14,YXYXY,152,1,741,Correct,14,903
14,KZKZK,153,1,985,Correct,14,886
14,RYRKR,161,2,801,Correct,14,922
14,FYFNF,162,2,937,Correct,14,730
14,VKVKV,151,1,685,Correct,14,690
14,KPGPK,223,1,1158,Correct,14,814
14,YNYNY,113,1,687,Correct,14,713
14,VYVYV,152,1,716,Correct,14,770
14,YCYXY,161,2,778,Correct,14,662
14,LKLGL,72,[2][3],[957][1180],Correct,14,737
14,VXVXV,13,1,807,Correct,14,663
14,KCKVK,161,2,750,Correct,14,748
14,YKYKY,151,1,823,Correct,14,778
14,RHRXR,171,2,966,Correct,14,821
14,FVFCF,16,2,875,Correct,14,654
14,YXYGY,82,[2][3],[987][1257],Correct,14,664
14,CLCLC,13,1,926,Correct,14,684
14,ZXZCZ,161,2,960,Correct,14,750
14,VLVFV,162,2,819,Correct,14,741
14,CPCPG,225,1,772,Correct,14,856
14,KHKNK,172,2,1387,Correct,14,793
14,ZKZVZ,16,2,841,Correct,14,770
14,YKYLY,162,2,699,Correct,14,830
14,CNCNC,151,1,825,Correct,14,693
14,PGPGP,9,[1][3],[993][1186],Correct,14,799
14,VPVPV,13,1,1134,Correct,14,791
14,FXGRF,233,2,1090,Correct,14,925
14,CYCVC,222,1,777,Incorrect,14,918
14,FNFNF,151,1,626,Correct,14,748
14,KFKCK,161,2,781,Correct,14,739
14,ZFZHZ,183,1,638,Incorrect,14,851
14,NXNXN,15,1,742,Correct,14,852
14,FNFNF,152,1,556,Correct,14,799
14,LXLNG,235,2,1088,Correct,14,692
14,XKXVX,222,2,790,Correct,14,794
14,ZHZHZ,194,2,982,Incorrect,14,925
14,PFPFP,15,1,788,Correct,14,754
14,ZYZYZ,152,1,1113,Correct,14,763
14,XPXVX,161,2,863,Correct,14,939
14,YCYCY,151,1,900,Correct,14,702
14,RGRGR,10,[1][3],[1045][1237],Correct,14,866
14,VRVRV,13,1,882,Correct,14,685
14,PKPNP,161,1,670,Incorrect,14,900
14,XGXGX,11,[1][3],[996][1266],Correct,14,765
14,GZYVY,231,2,1147,Correct,14,686
14,VCVNV,222,2,1025,Correct,14,817
14,VHVHV,195,1,1120,Correct,14,704
14,LXLNL,16,2,935,Correct,14,847
14,GKPKP,221,1,921,Correct,14,683
14,XRXPX,222,2,854,Correct,14,842
14,XNXNX,151,1,840,Correct,14,839
14,KHKNK,176,2,824,Incorrect,14,804
14,RZRZR,15,1,1273,Correct,14,885
14,CGCFC,121,[2][3],[1206][1463],Correct,14,656
15,A,5,3,2675,New Target,15,705
15,XRXFX,161,2,963,Correct,15,685
15,RXRKR,162,2,1120,Correct,15,898
15,YRYRY,151,1,726,Correct,15,851
15,XPXPX,152,1,754,Correct,15,944
15,RPRPR,153,1,759,Correct,15,860
15,NCNCN,154,1,699,Correct,15,841
15,RXRZR,161,2,728,Correct,15,756
15,NANAN,7,[1][3],[1029][1237],Correct,15,851
15,KCKYK,14,2,1032,Correct,15,848
15,XKXFX,162,2,854,Correct,15,661
15,ZLZKZ,163,2,714,Correct,15,779
15,VCVZV,164,2,830,Correct,15,906
15,XCXVX,165,2,774,Correct,15,784
15,LKLZA,235,2,670,Correct,15,673
15,NCNCN,113,1,917,Correct,15,917
15,YGYGY,191,1,749,Correct,15,653
15,VLVLV,15,1,789,Correct,15,728
15,XRXRX,152,1,905,Correct,15,816
15,KAKPK,81,[2][3],[966][1253],Correct,15,777
15,YZAZY,233,1,1048,Incorrect,15,761
15,CFCFC,113,1,976,Correct,15,827
15,VNVLV,161,2,942,Correct,15,924
15,KPKVK,162,2,811,Correct,15,872
15,NCNRN,163,2,696,Correct,15,938
15,FGFGF,192,1,808,Correct,15,673
15,RCRYR,16,2,775,Correct,15,909
15,KRKCK,162,2,749,Correct,15,882
15,CRCRC,151,1,961,Correct,15,801
15,XPAPX,223,1,804,Correct,15,719
15,LPLXL,222,2,1538,Correct,15,865
15,CGCVC,173,,,Incorrect,15,703
15,FKFZF,16,2,1018,Correct,15,681
15,CACAC,9,[1][3],[959][1215],Correct,15,724
15,XCXCX,13,1,812,Correct,15,673
15,AXRXR,221,1,916,Correct,15,739
15,NKNRN,222,2,799,Correct,15,934
15,KNKFK,162,2,760,Correct,15,747
15,KAKAK,10,[1][3],[859][1146],Correct,15,715
15,ZCZRZ,14,2,1108,Correct,15,760
15,RPRPR,151,1,882,Correct,15,668
15,NCNCN,152,1,862,Correct,15,854
15,RYRGR,184,2,1042,Correct,15,739
15,VPVPV,15,1,1188,Correct,15,657
15,RCRCA,225,1,661,Correct,15,900
15,KXKPK,222,2,764,Correct,15,921
15,NPNPN,151,1,860,Correct,15,939
15,YCYCY,152,1,770,Correct,15,827
15,PXPAP,112,[2][3],[789][1332],Correct,15,896
15,ZCZNZ,14,2,931,Correct,15,666
15,KYKGK,185,2,725,Correct,15,772
15,ANLPL,231,2,1215,Correct,15,753
15,CXCPC,222,2,820,Correct,15,766
15,YRYRY,151,1,984,Correct,15,788
15,LGLGL,196,1,698,Correct,15,775
15,VYVLV,16,2,818,Correct,15,805
15,KVKVK,151,1,931,Correct,15,827
15,RKRKR,152,1,791,Correct,15,710
15,VXVXV,153,1,1145,Correct,15,841
15,XAXAX,12,[1][3],[981][1270],Correct,15,654
