Trial No,Stimulus,Trigger,Response,Response Time(ms),Correct,Block,Fixation Duration
Practice
OT Practice
1,SKSKS,15,1,1580,Correct,0,785
1,DLDUD,16,2,1380,Correct,0,771
1,PDPGP,16,1,885,False,0,725
1,MWMWM,15,1,796,Correct,0,682
1,FTFTF,15,1,802,Correct,0,823
1,AXAMA,16,2,781,Correct,0,714
1,RYRGR,16,2,531,Correct,0,837
1,DODOD,15,1,659,Correct,0,794
1,QTQAQ,16,2,715,Correct,0,919
1,YEYEY,15,1,594,Correct,0,781
2,GYGDG,16,2,765,Correct,0,894
2,SWSWS,15,1,566,Correct,0,744
2,HLHUH,16,2,644,Correct,0,846
2,DEDED,15,1,574,Correct,0,830
2,ZPZOZ,16,2,540,Correct,0,773
2,ATATA,15,1,488,Correct,0,864
2,QOQOQ,15,1,463,Correct,0,667
2,FPFGF,16,2,514,Correct,0,763
2,TRTET,16,2,775,Correct,0,653
2,DQDQD,15,1,528,Correct,0,689
AT Practice
1,TKTKT,15,2,647,False,0,721
1,SLSUS,16,1,550,False,0,735
1,VZVGV,7,1,770,False,0,867
1,XWXZX,7,3,1126,Correct,0,848
1,ATATA,15,1,690,Correct,0,704
1,HXZMH,16,2,926,Correct,0,809
1,TZTZT,7,1,816,False,0,770
1,UOUOU,15,1,869,Correct,0,772
1,ZTWAW,16,2,681,Correct,0,822
1,RZRER,7,3,675,Correct,0,741
2,JYJDJ,16,2,656,Correct,0,781
2,DWDWD,15,1,504,Correct,0,917
2,GNGNG,7,3,695,Correct,0,890
2,NEZEZ,16,1,611,Correct,0,750
2,RNROR,7,3,651,Correct,0,886
2,QTQNQ,7,3,825,Correct,0,731
2,HOHON,15,1,715,Correct,0,826
2,KPKGK,16,2,598,Correct,0,733
2,DRDED,16,1,822,False,0,691
2,LNLNL,7,3,536,Correct,0,882
4,GLGLG,15,1,777,Correct,0,757
4,DTDID,16,2,799,Correct,0,802
4,SMSGS,16,2,912,Correct,0,910
4,ZFZYZ,7,3,685,Correct,0,919
4,TSTFT,7,2,719,False,0,674
4,OFOFO,7,3,713,Correct,0,770
4,WYFGW,16,2,1026,Correct,0,852
4,WYWYW,15,1,803,Correct,0,734
4,MFMCM,7,3,1111,Correct,0,782
4,HQHEH,16,2,784,Correct,0,841
Trials
1,D,5,3,7568,New Target,1,839
1,BNBYB,161,2,1048,Correct,1,936
1,FBFBF,151,1,790,Correct,1,808
1,RKRKR,152,1,834,Correct,1,792
1,QSQNQ,161,2,730,Correct,1,770
1,CTCFC,162,2,967,Correct,1,781
1,PDPDP,7,3,638,Correct,1,706
1,OPOFO,14,2,685,Correct,1,783
1,HLHNH,162,2,960,Correct,1,691
1,MFMFM,151,1,783,Correct,1,906
1,BTBTB,152,1,795,Correct,1,723
1,MCMPD,235,2,728,Correct,1,687
1,BMBFB,222,2,859,Correct,1,701
1,NTNZN,162,2,914,Correct,1,766
1,MXMRM,163,2,1346,Correct,1,909
1,APABA,164,2,1332,Correct,1,794
1,FMDMF,223,1,727,Correct,1,899
1,QPQPQ,113,,,Incorrect,1,868
1,VQVMV,161,2,718,Correct,1,752
1,RERPR,162,2,860,Correct,1,854
1,KVKVK,151,1,750,Correct,1,851
1,AKAHA,161,2,668,Correct,1,745
1,VDVDV,8,3,520,Correct,1,892
1,DUGUG,221,1,850,Correct,1,676
1,AFAFA,113,1,750,Correct,1,687
1,GYGYG,152,1,987,Correct,1,737
1,VXVSV,161,2,637,Correct,1,839
1,DOWGW,231,2,963,Correct,1,662
1,QYQYQ,113,1,533,Correct,1,824
1,ODONO,91,3,653,Correct,1,687
1,MSMSM,13,1,632,Correct,1,858
1,GYGYG,152,1,516,Correct,1,862
1,UMUMU,153,1,741,Correct,1,896
1,BZBZB,154,3,774,Incorrect,1,696
1,NTNBN,161,2,675,Correct,1,699
1,GNDYG,233,2,881,Correct,1,845
1,OCOSO,222,2,692,Correct,1,915
1,BHBFB,162,2,738,Correct,1,738
1,QCQBQ,163,2,658,Correct,1,720
1,LQLQL,151,2,700,Incorrect,1,909
1,ZDZDZ,10,3,729,Correct,1,811
1,QNQZQ,14,2,789,Correct,1,765
1,CSCYC,162,2,637,Correct,1,859
1,RCRLR,163,2,609,Correct,1,695
1,FRFRF,151,1,831,Correct,1,866
1,WFWFW,152,1,825,Correct,1,741
1,QOQLQ,161,2,711,Correct,1,688
1,AWAQA,162,2,713,Correct,1,746
1,EAEAE,151,1,914,Correct,1,841
1,AGAUA,161,2,755,Correct,1,905
1,YMYMY,151,1,860,Correct,1,888
1,XQXQX,152,1,876,Correct,1,933
1,SHSGS,161,2,656,Correct,1,898
1,PDPDP,11,3,722,Correct,1,739
1,ZGZGZ,13,1,789,Correct,1,675
1,OXOXO,152,1,708,Correct,1,708
1,LYLYL,153,1,688,Correct,1,887
1,NKNKD,225,1,650,Correct,1,869
1,GNGNG,113,1,999,Correct,1,876
1,OYOBO,161,2,890,Correct,1,790
1,SOSOS,151,1,884,Correct,1,710
1,VHVHV,152,1,828,Correct,1,739
1,OKOXO,161,2,578,Correct,1,820
1,EZEZE,151,1,1313,Correct,1,900
1,LDLDL,12,3,839,Correct,1,784
2,U,5,3,1713,New Target,2,787
2,BVBEB,161,2,746,Correct,2,706
2,FBFBF,151,1,823,Correct,2,787
2,RFRFR,152,1,734,Correct,2,828
2,NBNKN,161,2,839,Correct,2,886
2,MKMNM,162,2,799,Correct,2,758
2,QXQXQ,151,1,666,Correct,2,757
2,MQMYM,161,2,630,Correct,2,838
2,TGTPT,162,2,724,Correct,2,843
2,XOXOX,151,1,597,Correct,2,680
2,CUCUC,7,3,591,Correct,2,923
2,RFRFR,13,1,742,Correct,2,706
2,VYVSV,161,2,646,Correct,2,692
2,VDVDV,191,3,742,Incorrect,2,733
2,GKGQG,15,2,717,Correct,2,946
2,SCSCS,151,1,780,Correct,2,700
2,CTCUC,82,3,612,Correct,2,913
2,RCRCR,13,1,739,Correct,2,819
2,BOBXB,161,2,687,Correct,2,796
2,FMFAF,162,2,713,Correct,2,896
2,BEBAB,163,2,706,Correct,2,946
2,PWPWP,151,1,642,Correct,2,717
2,UQCKC,231,2,715,Correct,2,932
2,OCOCO,113,1,948,Correct,2,909
2,TNTNT,152,1,937,Correct,2,734
2,QCQGQ,161,1,682,Incorrect,2,855
2,WVWVW,151,1,760,Correct,2,846
2,TQTQT,152,1,644,Correct,2,780
2,FOFOF,225,1,563,Correct,2,751
2,WVWFW,222,2,817,Correct,2,898
2,SWSWS,151,1,604,Correct,2,743
2,FYFCF,161,2,511,Correct,2,689
2,SUSWS,91,3,754,Correct,2,872
2,CACHC,14,2,1129,Correct,2,900
2,VDVKV,172,2,1100,Correct,2,691
2,YCYCY,15,1,653,Correct,2,687
2,NMNTN,161,2,796,Correct,2,813
2,XOUKX,233,2,883,Correct,2,909
2,BPBPB,113,1,716,Correct,2,717
2,MRMRM,152,1,840,Correct,2,854
2,XMXMX,153,1,585,Correct,2,926
2,AUAHA,101,3,748,Correct,2,769
2,XKXEU,235,2,669,Correct,2,672
2,TFTFT,113,1,687,Correct,2,707
2,MDMDM,193,3,918,Incorrect,2,949
2,WYWMW,16,2,631,Correct,2,873
2,AZUZA,223,3,938,Incorrect,2,668
2,KEKHK,222,2,920,Correct,2,931
2,LALAL,151,1,871,Correct,2,945
2,CWCDC,184,2,690,Incorrect,2,694
2,SGSTS,16,2,716,Correct,2,935
2,PXPXP,151,1,981,Correct,2,930
2,GRGYG,161,2,699,Correct,2,650
2,PUPOP,111,3,974,Correct,2,711
2,RNRNR,14,1,784,Correct,2,830
2,KDKDK,195,2,1213,Incorrect,2,744
2,KTKTK,15,1,1172,Correct,2,828
2,OROKO,161,2,787,Correct,2,725
2,UNANA,221,1,1314,Correct,2,676
2,TATAT,113,1,667,Correct,2,703
2,AWAWA,152,1,623,Incorrect,2,650
2,RDRDR,196,1,645,Correct,2,651
2,FCFCF,15,1,553,Correct,2,676
2,ZMZMZ,152,1,585,Correct,2,911
2,BUBUB,12,3,725,Correct,2,923
3,E,5,3,1292,New Target,3,760
3,YZYZY,151,1,949,Correct,3,768
3,VFVNV,161,2,693,Correct,3,870
3,KAKAK,151,1,805,Correct,3,757
3,TKTKT,152,1,1006,Correct,3,848
3,WHWTW,161,2,718,Correct,3,815
3,QEQFQ,71,3,954,Correct,3,812
3,XNXNX,13,1,1150,Correct,3,740
3,TXTXT,152,1,586,Correct,3,763
3,GLGNG,161,2,669,Correct,3,713
3,CUCTC,171,2,1244,Correct,3,781
3,FAFQF,16,2,807,Correct,3,789
3,ZLZLZ,151,1,964,Correct,3,758
3,YZYZY,152,1,664,Correct,3,781
3,CYCYC,153,1,679,Correct,3,800
3,HUHUH,192,1,1130,Correct,3,726
3,OSORO,16,2,726,Correct,3,813
3,YOYOY,151,1,717,Correct,3,907
3,CECEC,8,3,731,Correct,3,720
3,VNENV,223,1,834,Correct,3,942
3,KQKFK,222,2,664,Correct,3,908
3,XLXLE,225,1,655,Correct,3,947
3,QUQUQ,193,1,991,Correct,3,758
3,SWSLS,16,2,561,Correct,3,788
3,NBNPN,162,2,981,Correct,3,749
3,SGSGS,151,1,617,Correct,3,779
3,FBFBF,152,1,934,Correct,3,906
3,PFPFP,153,1,665,Correct,3,851
3,AGASA,161,2,664,Correct,3,766
3,KEKEK,9,3,706,Correct,3,914
3,CWCOC,14,2,622,Correct,3,879
3,HXHXH,151,1,794,Correct,3,909
3,NUNZN,174,2,1096,Correct,3,685
3,QMQVQ,16,2,922,Correct,3,759
3,SQSQS,151,1,701,Correct,3,760
3,ERNFN,231,2,899,Incorrect,3,655
3,AQANA,222,2,711,Correct,3,735
3,OBOEO,102,3,696,Correct,3,657
3,SYSXS,14,2,682,Correct,3,729
3,QBQHQ,162,2,634,Correct,3,764
3,XQXQX,151,1,580,Correct,3,931
3,KUKFK,175,2,583,Correct,3,779
3,RKRKR,15,1,683,Correct,3,712
3,GFGFG,152,1,685,Correct,3,711
3,YBYVY,161,2,639,Correct,3,669
3,SPSTS,162,2,541,Correct,3,809
3,AQAQA,151,1,613,Correct,3,702
3,EPVPV,221,1,923,Correct,3,712
3,CQCEC,112,2,1243,Incorrect,3,881
3,RFRCR,14,2,823,Correct,3,770
3,CPCVC,162,1,639,Incorrect,3,839
3,RXRCR,163,2,733,Correct,3,829
3,TNTLT,164,2,987,Correct,3,787
3,BSBSB,151,1,797,Correct,3,881
3,ZBZBZ,152,1,816,Correct,3,932
3,OYOUO,186,,,Incorrect,3,669
3,AKAOA,16,2,867,Correct,3,906
3,YQEWY,233,2,1531,Correct,3,756
3,ZMZMZ,113,3,811,Incorrect,3,761
3,SWSTS,161,2,679,Correct,3,734
3,MFMQE,235,,,Incorrect,3,854
3,RSRLR,222,2,780,Correct,3,852
3,QEQWQ,121,3,1235,Correct,3,832
4,K,5,3,2678,New Target,4,679
4,CACHC,161,2,777,Correct,4,686
4,RWRCR,162,2,626,Correct,4,781
4,FOFVF,163,2,706,Correct,4,784
4,LGLGL,151,1,704,Correct,4,781
4,PLPLP,152,1,796,Correct,4,817
4,NPNPN,153,1,699,Correct,4,658
4,SGSZS,161,2,613,Correct,4,840
4,DNDMD,162,2,690,Correct,4,890
4,OCOAK,235,2,1247,Correct,4,814
4,VYVYV,113,1,694,Correct,4,842
4,RLRLR,152,1,642,Correct,4,812
4,DKDKD,7,3,787,Correct,4,777
4,ZLZLZ,13,1,591,Correct,4,718
4,FZFZF,152,1,637,Correct,4,888
4,CFCFC,153,1,715,Correct,4,790
4,OZOZO,154,1,594,Correct,4,933
4,XEXEX,191,1,833,Correct,4,883
4,NVNFN,16,2,606,Correct,4,676
4,AYAYA,151,1,576,Correct,4,815
4,BNBVB,161,2,738,Correct,4,815
4,AHKXA,233,2,910,Correct,4,790
4,WFWFW,113,1,627,Correct,4,749
4,SNSNS,152,1,983,Correct,4,744
4,FKFMF,81,2,873,Incorrect,4,771
4,DZDYD,14,2,813,Correct,4,837
4,GXGDG,162,2,828,Correct,4,730
4,AYAYK,225,1,834,Correct,4,806
4,FPFGF,222,2,842,Correct,4,857
4,WRWRW,151,1,862,Correct,4,920
4,YPYEY,182,2,725,Correct,4,868
4,SQSQS,15,1,707,Correct,4,761
4,WZWPW,161,2,754,Correct,4,710
4,CKCKC,9,3,796,Correct,4,862
4,BWBVB,14,2,1103,Correct,4,918
4,HMHMH,151,1,907,Correct,4,843
4,VEVNV,173,2,781,Correct,4,939
4,GMGVG,16,2,1014,Correct,4,861
4,XHXKX,102,3,1111,Correct,4,764
4,QXQRQ,14,2,756,Correct,4,860
4,LQLQL,151,,,Incorrect,4,759
4,ALELA,223,1,762,Correct,4,826
4,TPTKT,222,2,693,Correct,4,853
4,GEGEG,194,1,640,Correct,4,834
4,ZNZNZ,15,1,748,Correct,4,889
4,YZYZY,152,1,681,Correct,4,795
4,SYSYS,153,1,577,Correct,4,917
4,ZSZSZ,221,1,595,Correct,4,788
4,LALGL,222,2,704,Correct,4,935
4,CYCTC,162,2,847,Correct,4,751
4,WEWEW,195,1,594,Correct,4,936
4,CHCSC,16,2,659,Correct,4,769
4,GWGXG,162,2,914,Correct,4,855
4,FGFGF,151,1,650,Correct,4,682
4,QWQKQ,112,3,582,Correct,4,919
4,OQOFO,14,2,754,Correct,4,914
4,PMPEP,186,2,749,Correct,4,812
4,WBWPW,16,2,726,Correct,4,816
4,KCDHD,231,2,670,Correct,4,925
4,RSRWR,222,2,587,Correct,4,884
4,HGHGH,151,1,720,Correct,4,654
4,SKSKS,12,3,664,Correct,4,878
5,L,5,3,1497,New Target,5,663
5,PDPDP,151,1,646,Correct,5,789
5,WAWAW,152,1,809,Correct,5,775
5,HWHWH,153,1,613,Correct,5,697
5,SHSHS,154,1,628,Correct,5,862
5,BRBWB,161,2,592,Correct,5,932
5,FPFBF,162,2,785,Correct,5,827
5,GAGAG,151,1,598,Correct,5,930
5,QVQGQ,161,2,937,Correct,5,796
5,CLCLC,7,3,746,Correct,5,902
5,XWXWX,13,1,575,Correct,5,916
5,AUAUA,152,1,935,Correct,5,655
5,CKCKC,191,1,1144,Correct,5,912
5,FNFCF,16,2,691,Correct,5,825
5,UHUQU,162,2,869,Correct,5,667
5,FZFZF,151,1,719,Correct,5,708
5,THLHT,223,1,925,Correct,5,779
5,CUCLC,82,3,801,Correct,5,797
5,BSBSB,13,1,748,Correct,5,728
5,FDFBF,161,2,761,Correct,5,744
5,LXRXR,221,1,799,Correct,5,934
5,ZOZNZ,222,2,844,Correct,5,718
5,UZUZU,151,1,793,Correct,5,685
5,AQATA,161,2,627,Correct,5,780
5,UNUPU,162,2,772,Correct,5,699
5,RVRKR,182,2,945,Correct,5,766
5,URURU,15,1,934,Correct,5,737
5,VLVLV,9,3,703,Correct,5,723
5,DXDVD,14,2,607,Correct,5,688
5,PZPZP,151,1,774,Correct,5,682
5,LXUMU,231,2,774,Correct,5,668
5,AKADA,173,2,846,Incorrect,5,848
5,HYHYH,15,1,658,Correct,5,905
5,AVAVA,152,1,771,Correct,5,723
5,TUTUT,153,1,1154,Correct,5,674
5,XYXWX,161,2,813,Correct,5,863
5,TKTDT,174,2,787,Correct,5,854
5,NXNYN,16,2,764,Correct,5,834
5,USUCU,162,2,843,Correct,5,717
5,ZMZMZ,151,2,720,Incorrect,5,869
5,WRWAW,161,2,778,Correct,5,905
5,GWGXG,162,2,697,Correct,5,686
5,MUMYL,235,2,1539,Correct,5,905
5,CNCNC,113,1,767,Correct,5,861
5,RLRLR,10,3,616,Correct,5,890
5,UAUWU,14,2,690,Correct,5,937
5,FXLRF,233,2,837,Correct,5,666
5,PFPFP,113,1,699,Correct,5,848
5,HPHPH,152,1,1017,Correct,5,812
5,GKGKG,195,1,661,Correct,5,911
5,ZUZTZ,16,2,722,Correct,5,816
5,AVASA,162,2,626,Correct,5,757
5,PRPRP,151,1,741,Correct,5,671
5,YPYPY,152,1,595,Correct,5,745
5,ZLZOZ,111,3,825,Correct,5,674
5,WMWSW,14,2,673,Correct,5,836
5,RZRXR,162,2,620,Correct,5,843
5,QWQWQ,151,1,592,Correct,5,734
5,ZKZKZ,196,1,818,Correct,5,770
5,CVCVL,225,1,796,Incorrect,5,724
5,NMNMN,113,1,984,Correct,5,736
5,TRTGT,161,2,792,Correct,5,839
5,CTCTC,151,1,631,Correct,5,698
5,RKRLR,122,3,627,Correct,5,918
6,B,5,3,1221,New Target,6,866
6,YMYGY,161,2,645,Correct,6,847
6,HUHRH,162,2,708,Correct,6,806
6,WHWHW,151,1,690,Correct,6,769
6,MGMRM,161,2,827,Correct,6,905
6,ZVZWZ,162,2,722,Correct,6,803
6,RCRTR,163,2,548,Correct,6,684
6,DSDRD,164,2,726,Correct,6,848
6,VTBDV,233,2,609,Correct,6,895
6,DSDHD,222,2,806,Correct,6,721
6,QEQEQ,151,1,700,Correct,6,914
6,XOXQX,161,1,728,Incorrect,6,808
6,RARBR,72,3,777,Correct,6,650
6,GMGMG,13,1,665,Correct,6,689
6,ELERE,171,2,742,Correct,6,875
6,HZHUH,16,2,757,Correct,6,697
6,RHRVR,162,2,661,Correct,6,662
6,YBYBY,8,3,808,Correct,6,721
6,PYPVP,14,2,773,Correct,6,660
6,TLTLT,192,1,801,Correct,6,754
6,QTQTQ,15,1,646,Correct,6,872
6,NXNVN,161,2,775,Correct,6,777
6,QNQNQ,151,1,1109,Correct,6,755
6,FUFHF,161,2,960,Correct,6,910
6,YVYFB,235,2,1199,Incorrect,6,922
6,WQWSW,222,2,905,Correct,6,800
6,HNHLH,193,2,801,Incorrect,6,740
6,OSOTO,16,2,729,Correct,6,855
6,GWGOG,162,2,674,Correct,6,905
6,UBUBU,9,3,491,Correct,6,911
6,CWCWC,13,1,603,Correct,6,890
6,OCOEO,161,2,705,Correct,6,700
6,MNMNM,151,1,641,Correct,6,685
6,XLXLX,194,1,654,Correct,6,874
6,AYAYA,15,1,1424,Correct,6,709
6,FUFAF,161,2,592,Correct,6,833
6,ANAQA,162,2,645,Correct,6,750
6,BUPWP,231,2,788,Correct,6,817
6,WSWSW,113,1,720,Correct,6,739
6,FRFRF,152,1,865,Correct,6,690
6,AUAUA,153,1,668,Correct,6,723
6,GMGCG,161,2,886,Correct,6,875
6,HLHWH,175,2,1465,Correct,6,921
6,PQBQP,223,2,756,Incorrect,6,944
6,AZABA,102,3,803,Correct,6,717
6,CWCVC,14,2,655,Correct,6,744
6,FAFAF,151,1,701,Correct,6,850
6,VMVSV,161,2,716,Correct,6,757
6,GBGBG,11,3,647,Correct,6,843
6,FOFNF,14,2,767,Correct,6,947
6,DSDSD,151,1,650,Correct,6,825
6,YDYDY,152,1,922,Correct,6,776
6,FOFOF,153,1,673,Correct,6,750
6,CHCHB,225,1,763,Correct,6,882
6,ZCZCZ,113,1,619,Correct,6,693
6,DZDGD,161,2,679,Correct,6,947
6,MLMEM,176,2,705,Correct,6,929
6,PXPXP,15,1,973,Correct,6,783
6,QYQYQ,152,1,570,Correct,6,925
6,GRGCG,161,2,689,Correct,6,714
6,QVQVQ,151,1,552,Correct,6,948
6,XYXNX,161,2,747,Correct,6,748
6,BHMHM,221,1,1237,Correct,6,782
6,CBCBC,12,3,753,Correct,6,733
7,W,5,3,2297,New Target,7,905
7,QKQKQ,151,1,1127,Correct,7,664
7,DUDQD,161,2,936,Correct,7,732
7,OKOKO,151,1,696,Correct,7,885
7,EOEOE,152,1,740,Correct,7,895
7,URUPU,161,2,709,Correct,7,684
7,GMGAG,162,2,677,Correct,7,665
7,HVWDH,233,2,1114,Correct,7,653
7,MHMHM,113,1,742,Correct,7,841
7,YXYVY,161,2,1205,Correct,7,691
7,FNFNF,151,1,706,Correct,7,767
7,AWAWA,7,3,604,Correct,7,907
7,ZAZAZ,13,1,735,Correct,7,780
7,OYOYO,152,1,560,Correct,7,656
7,SQSQS,153,1,607,Correct,7,852
7,OSOSO,154,1,604,Correct,7,871
7,FCFBF,181,2,624,Correct,7,691
7,EUEUE,15,1,589,Correct,7,856
7,CYCGC,161,2,699,Correct,7,879
7,SZSUS,162,2,693,Correct,7,863
7,OFOFO,151,1,597,Correct,7,748
7,RVRUR,161,2,586,Correct,7,739
7,ZBZBZ,192,1,823,Correct,7,870
7,UCUTU,16,2,550,Correct,7,667
7,NWNWN,8,3,627,Correct,7,905
7,XNXUX,14,2,640,Correct,7,876
7,CXCNC,162,2,593,Correct,7,710
7,AUAUW,225,2,759,Incorrect,7,731
7,HEHEH,113,1,625,Correct,7,849
7,UFWFU,223,1,736,Correct,7,849
7,HVHEH,222,2,709,Correct,7,948
7,YBYBY,193,1,621,Correct,7,928
7,OYOYO,15,1,640,Correct,7,776
7,TMTWT,91,3,754,Correct,7,721
7,HTHTH,13,1,649,Correct,7,919
7,UHUHU,152,1,829,Correct,7,657
7,EVEBE,184,2,579,Incorrect,7,850
7,HZHMH,16,2,948,Correct,7,814
7,VHVCV,162,2,801,Correct,7,944
7,WAGDG,231,2,572,Correct,7,811
7,PFPFP,113,1,589,Correct,7,826
7,OQOQO,152,1,707,Correct,7,706
7,TWTWT,10,3,622,Correct,7,823
7,VKVDV,14,2,603,Correct,7,899
7,WPAPA,221,1,590,Correct,7,794
7,HBHBH,195,1,582,Correct,7,675
7,ZMZAZ,16,2,583,Correct,7,857
7,SYSYS,151,1,501,Correct,7,936
7,FZFXF,161,2,532,Correct,7,913
7,SMSMS,151,1,521,Correct,7,815
7,XOXOX,152,1,646,Correct,7,950
7,FWFWF,11,3,676,Correct,7,814
7,ENEBE,186,2,562,Correct,7,776
7,ZVZGZ,16,2,658,Correct,7,902
7,EZEZE,151,1,602,Correct,7,923
7,TOTEW,235,2,640,Correct,7,674
7,PDPDP,113,1,525,Correct,7,882
7,TKTWT,122,3,751,Correct,7,875
8,M,5,3,5914,New Target,8,926
8,VYVNV,161,2,890,Correct,8,826
8,KLKTK,162,2,986,Correct,8,912
8,NQNQN,151,1,782,Correct,8,788
8,VHVEV,161,2,650,Correct,8,709
8,XNXNM,225,1,628,Correct,8,913
8,USUVU,222,2,585,Correct,8,702
8,KRKZK,162,2,624,Correct,8,655
8,TMTET,71,3,714,Correct,8,943
8,GFGFG,13,1,876,Correct,8,664
8,OPODO,161,2,820,Correct,8,715
8,KCKCK,151,1,1138,Correct,8,712
8,VTVTV,152,1,816,Correct,8,764
8,LSLSL,153,1,663,Correct,8,841
8,DLDLD,154,1,659,Correct,8,861
8,NYNYN,155,1,655,Correct,8,892
8,DCMAD,233,2,621,Correct,8,836
8,TDTDT,113,1,751,Correct,8,748
8,GVGRG,161,2,905,Correct,8,823
8,ZUZUZ,151,1,706,Correct,8,719
8,OGOVO,161,2,543,Correct,8,827
8,PWPTP,171,2,799,Correct,8,908
8,KLKDM,235,2,873,Correct,8,859
8,SMSMS,8,3,640,Correct,8,710
8,PRPSP,14,2,785,Correct,8,776
8,DVDYD,162,2,937,Correct,8,848
8,PXPMP,92,3,793,Correct,8,911
8,GDGLG,14,2,1087,Correct,8,905
8,SWSWS,192,1,868,Correct,8,655
8,GDGLG,16,2,559,Correct,8,666
8,MTCYC,231,2,672,Correct,8,838
8,GSGSG,113,1,731,Correct,8,831
8,YQYTY,161,2,624,Correct,8,932
8,ZLZPZ,162,2,1020,Correct,8,914
8,HZHZH,151,1,748,Correct,8,826
8,MSOSO,221,1,604,Correct,8,662
8,HWHWH,193,1,671,Correct,8,747
8,PYPAP,16,2,543,Correct,8,731
8,SPSVS,162,2,679,Correct,8,653
8,XLXLX,151,1,584,Correct,8,760
8,YMYMY,10,3,581,Correct,8,878
8,HYHYH,13,1,1292,Correct,8,724
8,OWOGO,174,2,544,Correct,8,852
8,PHPOP,16,2,623,Correct,8,880
8,NPNSN,162,2,533,Correct,8,680
8,HVMVH,223,2,556,Incorrect,8,703
8,THTFT,222,2,689,Correct,8,699
8,STSTS,151,1,670,Correct,8,765
8,AGAMA,112,3,706,Correct,8,679
8,PEPEP,13,1,675,Correct,8,715
8,ZWZWZ,195,1,627,Correct,8,787
8,ODOZO,16,2,516,Correct,8,730
8,LRLOL,162,1,616,Incorrect,8,869
8,GZGZG,151,1,667,Correct,8,689
8,TGTGT,152,1,793,Correct,8,775
8,CUCSC,161,2,591,Correct,8,928
8,SCSCS,151,1,640,Correct,8,847
8,AWAWA,196,1,652,Correct,8,846
8,NLNLN,15,1,602,Correct,8,842
8,VNVNV,152,1,830,Correct,8,737
8,GMGMG,12,3,690,Correct,8,930
9,S,5,3,1300,New Target,9,822
9,NBNBN,151,1,643,Correct,9,821
9,KVKZK,161,2,706,Correct,9,850
9,LBLBL,151,1,585,Correct,9,909
9,XLXLX,152,1,591,Correct,9,719
9,ZXZXZ,153,1,820,Correct,9,741
9,KNKZK,161,2,618,Correct,9,872
9,TQTAT,162,2,647,Correct,9,902
9,CLCUC,163,2,691,Correct,9,892
9,ZCZFZ,164,2,590,Correct,9,876
9,NSNSN,7,3,754,Correct,9,683
9,HGHGH,13,1,831,Correct,9,777
9,THTDT,161,2,522,Correct,9,704
9,VMVMV,191,1,689,Correct,9,720
9,CVCDC,16,2,640,Correct,9,771
9,ZAZRZ,162,2,674,Correct,9,687
9,XTXZX,163,2,575,Correct,9,823
9,OXOXO,151,1,693,Correct,9,695
9,DCDSD,82,3,692,Correct,9,782
9,PQPDP,14,,,Incorrect,9,785
9,ZMZMZ,192,1,1148,Incorrect,9,847
9,BEBEB,15,1,819,Correct,9,881
9,FCFCF,152,2,634,Incorrect,9,855
9,YAYBY,161,2,683,Correct,9,751
9,KNKVK,162,2,1100,Correct,9,670
9,SEPCP,231,2,820,Correct,9,900
9,OPOPO,113,1,540,Correct,9,863
9,XMXMX,193,1,652,Correct,9,912
9,KEKEK,15,1,605,Correct,9,740
9,USUSU,9,3,673,Correct,9,761
9,YHSHY,223,2,889,Incorrect,9,950
9,UPUPU,113,1,639,Correct,9,731
9,XZXZX,152,1,559,Correct,9,818
9,KGKXK,161,2,878,Correct,9,907
9,QEQPQ,162,1,665,Incorrect,9,709
9,NUNUS,225,1,893,Correct,9,737
9,BXBXB,113,1,743,Correct,9,690
9,SQHQH,221,1,739,Correct,9,758
9,ACACA,113,1,634,Correct,9,894
9,KMKBK,174,2,812,Correct,9,698
9,EGSVE,233,2,678,Correct,9,805
9,HYHYH,113,1,725,Correct,9,782
9,LULUL,152,1,660,Correct,9,780
9,AEAEA,153,1,630,Correct,9,764
9,TXTST,102,3,938,Correct,9,683
9,FDFCF,14,2,753,Correct,9,781
9,KVKVK,151,1,666,Correct,9,851
9,UBUCU,161,2,628,Correct,9,897
9,GAGMG,185,2,678,Correct,9,744
9,UXUGU,16,2,733,Correct,9,948
9,HOHOH,151,1,715,Correct,9,777
9,QUQTS,235,2,597,Correct,9,820
9,YZYZY,113,1,662,Correct,9,810
9,BSBSB,11,3,622,Correct,9,939
9,FEFEF,13,1,606,Correct,9,819
9,GMGMG,196,1,640,Correct,9,868
9,TGTXT,16,2,639,Correct,9,778
9,LSLFL,121,3,746,Correct,9,888
10,Q,5,3,1239,New Target,10,676
10,ZHZOZ,161,2,636,Correct,10,932
10,RZRZR,151,1,800,Correct,10,670
10,BFBFB,152,1,637,Correct,10,727
10,GBGBG,153,1,664,Correct,10,941
10,OGOXO,161,2,567,Correct,10,746
10,UEQOU,233,1,586,Incorrect,10,836
10,BOBRB,222,2,932,Correct,10,931
10,DYDVD,162,2,607,Correct,10,695
10,COCOC,151,1,716,Correct,10,881
10,YZYQY,72,3,567,Correct,10,844
10,FHFWF,14,2,615,Correct,10,820
10,ANANQ,225,2,567,Incorrect,10,803
10,ZAZAZ,113,1,741,Correct,10,903
10,ERESE,181,2,555,Incorrect,10,899
10,XTXOX,16,2,533,Correct,10,657
10,NXNXN,151,2,491,Incorrect,10,754
10,OVOZO,161,2,719,Correct,10,769
10,WUWOW,162,2,573,Correct,10,763
10,FWFVF,163,2,732,Correct,10,909
10,NSNKN,172,2,682,Incorrect,10,716
10,VWVNV,16,2,619,Correct,10,687
10,XZXZX,151,1,656,Correct,10,745
10,VQVQV,8,3,547,Correct,10,685
10,GYGPG,14,2,578,Correct,10,916
10,OBOSO,183,2,791,Correct,10,743
10,YUYUY,15,1,573,Correct,10,922
10,NDNQN,92,3,835,Correct,10,669
10,FCFHF,14,2,553,Correct,10,864
10,EFEFE,151,1,713,Correct,10,900
10,NSNSN,194,1,697,Correct,10,709
10,YPYFY,16,2,668,Correct,10,679
10,ZKZKZ,151,1,685,Correct,10,714
10,QZQDR,231,2,768,Correct,10,694
10,AOAHA,222,1,913,Incorrect,10,650
10,BGBGB,151,1,660,Correct,10,911
10,HQHQH,10,3,623,Correct,10,927
10,UHUBU,14,2,685,Correct,10,887
10,KRKSK,185,2,718,Correct,10,736
10,TOTOT,15,1,558,Correct,10,670
10,APAPA,152,1,694,Correct,10,687
10,VDVYV,161,2,531,Correct,10,850
10,FOFTF,162,1,644,Incorrect,10,906
10,QVXVX,221,2,867,Incorrect,10,788
10,GHGRG,222,2,656,Correct,10,694
10,LFLFL,151,1,676,Correct,10,674
10,HLHLH,152,1,734,Correct,10,942
10,KWQWK,223,1,1145,Correct,10,787
10,YQYQY,11,3,727,Correct,10,762
10,ADADA,13,1,667,Correct,10,661
10,OGOAO,161,2,883,Correct,10,899
10,EOEFE,162,2,924,Correct,10,671
10,USUSU,196,1,594,Correct,10,786
10,VFVAQ,235,2,576,Correct,10,910
10,DZDXD,222,2,627,Correct,10,804
10,HVHDH,162,2,547,Correct,10,828
10,DWDWD,151,1,673,Correct,10,917
10,GBGBG,152,1,764,Correct,10,874
10,AOADA,161,2,699,Correct,10,680
10,GQGQG,12,3,1027,Correct,10,923
11,T,5,3,1216,New Target,11,933
11,KEKEK,151,1,749,Correct,11,774
11,LBLBL,152,1,586,Correct,11,715
11,HEHVH,161,2,697,Correct,11,876
11,FRFOF,162,2,693,Correct,11,847
11,EBEBE,151,1,606,Correct,11,898
11,HTHTH,7,3,830,Correct,11,806
11,MAMDM,14,2,651,Correct,11,676
11,VOVOV,151,1,917,Correct,11,875
11,XQXQX,191,2,1034,Incorrect,11,783
11,PBPAP,16,2,682,Correct,11,833
11,MXMLM,162,2,652,Correct,11,729
11,TCNCN,221,1,728,Correct,11,861
11,OBONO,222,2,671,Correct,11,902
11,RCROR,162,2,798,Correct,11,765
11,PBPRT,235,2,1091,Correct,11,867
11,WFWVW,222,2,736,Correct,11,834
11,LTLUL,81,2,607,Incorrect,11,651
11,ZDZPZ,14,2,656,Correct,11,759
11,NCNQN,182,2,722,Correct,11,681
11,XZXNX,16,2,636,Correct,11,844
11,GOGOG,151,1,584,Correct,11,927
11,DFDFD,152,1,790,Correct,11,856
11,VWTRV,233,2,1163,Correct,11,923
11,CFCVC,222,2,547,Correct,11,850
11,PAPAP,151,1,809,Correct,11,689
11,EQEYE,173,2,739,Correct,11,781
11,DNDED,16,2,866,Correct,11,698
11,PTPTP,9,3,613,Correct,11,857
11,ZCZCZ,13,1,680,Correct,11,758
11,MZMZM,152,1,634,Correct,11,719
11,ULUVU,161,2,757,Correct,11,839
11,BRBGB,162,2,634,Correct,11,931
11,MLMLT,225,1,1005,Correct,11,756
11,GQGQG,194,1,1308,Correct,11,889
11,HGHGH,15,1,608,Correct,11,839
11,RVRBR,161,2,671,Correct,11,864
11,ZOZDZ,162,2,959,Correct,11,745
11,VYVYV,151,1,594,Correct,11,803
11,RVRVR,152,1,596,Correct,11,782
11,OTOTO,10,3,752,Correct,11,909
11,PXPXP,13,1,616,Correct,11,821
11,MCMCM,152,1,693,Correct,11,869
11,YUYUY,153,1,606,Correct,11,907
11,DYDYD,154,1,543,Correct,11,836
11,WDWDW,155,1,599,Correct,11,702
11,DYDQD,185,2,599,Correct,11,785
11,KDKNK,16,2,776,Correct,11,818
11,HOHOH,151,1,629,Correct,11,765
11,TWEZE,231,2,959,Correct,11,918
11,NANHN,222,2,878,Correct,11,945
11,VQVWV,176,2,567,Correct,11,754
11,ZRZRZ,15,2,636,Incorrect,11,742
11,VTVGV,111,3,614,Correct,11,879
11,HWHVH,14,2,693,Correct,11,878
11,EHEHE,151,2,514,Incorrect,11,778
11,VRVLV,161,2,608,Correct,11,940
11,ACACA,151,1,608,Correct,11,843
11,WBTBW,223,2,961,Incorrect,11,828
11,UTUTU,12,3,821,Correct,11,813
12,O,5,3,2692,New Target,12,849
12,UXULU,161,2,1090,Correct,12,741
12,MUMDM,162,2,852,Correct,12,723
12,VLVLV,151,1,696,Correct,12,817
12,BDBHB,161,2,629,Correct,12,820
12,KEKEK,151,1,680,Correct,12,727
12,WKWKW,152,1,1173,Correct,12,808
12,AWAWA,153,1,575,Correct,12,852
12,EVEVE,154,1,679,Correct,12,678
12,PHPOP,72,3,955,Correct,12,676
12,WXWAW,14,2,779,Correct,12,915
12,PWPHP,162,2,771,Correct,12,825
12,ZTZTZ,191,1,835,Correct,12,675
12,HVHMH,16,2,581,Correct,12,936
12,DKDKD,151,1,723,Correct,12,897
12,NPNPN,152,2,547,Incorrect,12,673
12,ZRZNZ,161,2,684,Correct,12,662
12,OGCGC,221,1,939,Correct,12,795
12,LFLFL,113,1,671,Correct,12,830
12,WXWXW,152,1,697,Correct,12,949
12,KPKPK,153,1,612,Correct,12,853
12,FRFKF,161,2,720,Correct,12,885
12,EOEOE,8,3,797,Correct,12,801
12,GEGEG,13,1,693,Correct,12,879
12,LKLBO,235,2,597,Correct,12,708
12,MLMZM,222,2,841,Correct,12,784
12,ASACA,162,2,837,Correct,12,656
12,LOLOL,9,1,1021,Incorrect,12,779
12,XLXLX,13,1,639,Correct,12,752
12,WHWHW,152,1,940,Correct,12,854
12,ETETE,192,1,1246,Correct,12,888
12,OXGZG,231,2,618,Correct,12,697
12,CZCZC,113,1,765,Correct,12,751
12,LGLGL,152,1,616,Correct,12,789
12,VLVPV,161,2,710,Correct,12,789
12,UYUYO,225,1,789,Correct,12,752
12,SMSMS,113,1,752,Correct,12,817
12,RTRTR,193,1,681,Correct,12,869
12,KVKHK,16,2,597,Correct,12,873
12,ROROR,101,3,630,Correct,12,779
12,PRPRP,13,1,696,Correct,12,760
12,LALHL,161,2,778,Correct,12,703
12,PLPLP,151,1,575,Correct,12,889
12,CTCTC,194,1,589,Correct,12,950
12,XGXAX,16,2,710,Correct,12,659
12,NMNMN,151,1,608,Correct,12,893
12,HLHZH,161,2,640,Correct,12,848
12,YOYOY,11,3,835,Correct,12,774
12,PZOZP,223,1,942,Correct,12,719
12,EAEAE,113,1,704,Correct,12,882
12,GXGVG,161,2,580,Correct,12,673
12,HMHGH,162,2,714,Correct,12,686
12,GTGTG,195,1,608,Correct,12,934
12,LMLGL,16,2,690,Correct,12,773
12,ECEDE,162,2,794,Correct,12,932
12,PSPKP,163,2,567,Correct,12,696
12,MCOBM,233,2,733,Correct,12,675
12,EMEME,113,1,715,Correct,12,690
12,CTCRC,176,2,471,Correct,12,818
12,NSNSN,15,1,688,Correct,12,728
12,MWMVM,161,1,640,Incorrect,12,705
12,CPCOC,122,3,617,Correct,12,941
13,H,5,3,1249,New Target,13,916
13,VUVUV,151,1,590,Correct,13,861
13,YVYVY,152,1,642,Correct,13,715
13,XUXUX,153,1,774,Correct,13,697
13,NRNWN,161,2,607,Correct,13,842
13,MZMKM,162,2,784,Correct,13,811
13,HLVLV,221,1,696,Correct,13,814
13,DXDGD,222,2,584,Correct,13,733
13,LHLAL,71,3,1033,Correct,13,788
13,YMYFY,14,2,904,Correct,13,865
13,AOARA,171,2,989,Correct,13,783
13,ZKZAZ,16,2,605,Correct,13,823
13,RZRZR,151,1,765,Correct,13,799
13,NFNAN,161,2,714,Correct,13,701
13,KUKEK,162,2,804,Correct,13,910
13,XAXYX,163,2,666,Correct,13,833
13,LKLUL,164,2,857,Correct,13,826
13,NLNLN,151,1,563,Correct,13,771
13,WDWOW,182,2,569,Correct,13,720
13,EWEWE,15,1,541,Correct,13,699
13,VHVHV,8,3,1158,Correct,13,657
13,PVPVP,13,1,737,Correct,13,783
13,CRCSC,161,2,652,Correct,13,832
13,NWNWN,151,1,765,Correct,13,726
13,SQSQS,152,1,1224,Correct,13,823
13,AEASA,161,2,698,Correct,13,950
13,GOGOG,193,1,1127,Correct,13,816
13,QGQGQ,15,1,1125,Correct,13,788
13,FMFMF,152,1,837,Correct,13,748
13,PFPFP,153,1,587,Correct,13,892
13,SYSHS,92,2,588,Incorrect,13,754
13,QGQKQ,14,2,905,Correct,13,907
13,ELELH,225,1,724,Correct,13,700
13,MRMRM,113,1,736,Correct,13,813
13,GUGNG,161,2,798,Correct,13,718
13,ZOZOZ,194,1,716,Correct,13,706
13,EZEZE,15,1,793,Correct,13,796
13,FHFKF,101,3,993,Correct,13,873
13,GSHLG,233,2,759,Correct,13,651
13,FKFXF,222,2,797,Correct,13,897
13,DEDYD,162,2,569,Correct,13,774
13,UXUVU,163,2,785,Correct,13,701
13,MCMOM,185,2,556,Correct,13,796
13,BXBUH,235,2,638,Correct,13,867
13,DMDMD,113,1,819,Correct,13,728
13,BXBDB,161,2,617,Correct,13,858
13,AVAVA,151,1,698,Correct,13,749
13,QUHUQ,223,1,839,Correct,13,796
13,BRBRB,113,1,716,Correct,13,870
13,ZHZHZ,11,3,628,Correct,13,906
13,VZVZV,13,1,617,Correct,13,701
13,HBUQU,231,2,534,Correct,13,938
13,EUEUE,113,1,632,Correct,13,763
13,RQRDR,161,2,667,Correct,13,730
13,COCOC,196,1,716,Correct,13,683
13,VNVSV,16,2,1382,Correct,13,930
13,WHWHW,12,3,747,Correct,13,714
14,G,5,3,1219,New Target,14,754
14,EBEBE,151,1,584,Correct,14,888
14,QPQUQ,161,2,632,Correct,14,797
14,XDXDX,151,1,567,Correct,14,809
14,YXYXY,152,1,636,Correct,14,757
14,MBMBM,153,1,554,Correct,14,786
14,QMQKQ,161,2,634,Correct,14,859
14,EYETE,162,2,748,Correct,14,728
14,UKUKU,151,1,707,Correct,14,909
14,MPGPM,223,1,557,Correct,14,899
14,ANANA,113,1,643,Correct,14,740
14,UAUAU,152,1,775,Correct,14,654
14,ADASA,161,2,719,Correct,14,832
14,LKLGL,72,3,539,Correct,14,802
14,UWUWU,13,1,545,Correct,14,705
14,MCMUM,161,2,647,Correct,14,811
14,YMYMY,151,1,650,Correct,14,680
14,RHRWR,171,2,602,Correct,14,760
14,DUDCD,16,2,763,Correct,14,804
14,ASAGA,82,3,656,Correct,14,945
14,DLDLD,13,1,705,Correct,14,746
14,ZXZDZ,161,2,639,Correct,14,813
14,ULUFU,162,2,671,Correct,14,767
14,DPDPG,225,1,1073,Correct,14,737
14,KHKTK,172,2,709,Correct,14,689
14,ZKZUZ,16,2,702,Correct,14,880
14,AKALA,162,2,616,Correct,14,849
14,CNCNC,151,1,630,Correct,14,815
14,PGPGP,9,3,630,Correct,14,771
14,UPUPU,13,1,678,Correct,14,859
14,FSGWF,233,2,563,Correct,14,803
14,CACVC,222,2,624,Correct,14,927
14,FTFTF,151,1,624,Correct,14,763
14,KFKCK,161,2,611,Correct,14,783
14,ZEZHZ,183,2,864,Correct,14,865
14,NSNSN,15,1,757,Correct,14,861
14,ENENE,152,1,678,Correct,14,683
14,LXLWG,235,2,575,Correct,14,909
14,SMSUS,222,2,910,Correct,14,853
14,ZHZHZ,194,1,833,Correct,14,837
14,PFPFP,15,1,720,Correct,14,658
14,BABAB,152,1,731,Correct,14,818
14,XPXUX,161,2,578,Correct,14,946
14,ACACA,151,1,576,Correct,14,920
14,RGRGR,10,3,623,Correct,14,861
14,URURU,13,1,702,Correct,14,857
14,PKPTP,161,2,780,Correct,14,733
14,SGSGS,11,3,712,Correct,14,758
14,GZYVY,231,2,852,Correct,14,797
14,UDUTU,222,2,894,Correct,14,754
14,VHVHV,195,1,897,Correct,14,867
14,LWLNL,16,2,844,Correct,14,691
14,GKPKP,221,1,735,Correct,14,942
14,SQSPS,222,2,572,Correct,14,799
14,WNWNW,151,2,714,Incorrect,14,860
14,MHMTM,176,2,967,Incorrect,14,779
14,RZRZR,15,1,630,Correct,14,902
14,CGCDC,121,3,758,Correct,14,829
15,A,5,3,1011,New Target,15,773
15,WQWEW,161,2,733,Correct,15,935
15,RWRKR,162,2,652,Correct,15,682
15,YRYRY,151,1,844,Correct,15,807
15,XOXOX,152,1,598,Correct,15,739
15,QPQPQ,153,1,684,Correct,15,727
15,TDTDT,154,1,619,Correct,15,780
15,WXWBW,161,2,534,Correct,15,915
15,TATAT,7,3,1262,Correct,15,705
15,MCMYM,14,2,705,Correct,15,940
15,SMSFS,162,2,735,Correct,15,810
15,ZLZMZ,163,2,1293,Correct,15,681
15,VDVBV,164,2,1010,Correct,15,833
15,XCXVX,165,2,960,Correct,15,900
15,LKLBA,235,2,679,Correct,15,666
15,NDNDN,113,1,772,Correct,15,879
15,YGYGY,191,1,716,Correct,15,906
15,VLVLV,15,1,681,Correct,15,814
15,WQWQW,152,1,676,Correct,15,899
15,MAMOM,81,3,685,Correct,15,934
15,YZABY,233,2,1256,Correct,15,889
15,CFCFC,113,1,709,Correct,15,724
15,UTULU,161,2,772,Correct,15,712
15,KPKUK,162,2,753,Correct,15,714
15,TCTQT,163,2,668,Correct,15,761
15,FGFGF,192,1,774,Correct,15,924
15,RCRYR,16,2,525,Correct,15,877
15,KRKDK,162,2,685,Correct,15,924
15,CRCRC,151,1,1474,Correct,15,655
15,WOAOW,223,1,1263,Correct,15,857
15,LPLWL,222,2,547,Correct,15,942
15,DGDUD,173,2,722,Correct,15,910
15,EMEZE,16,2,1514,Correct,15,908
15,DADAD,9,3,795,Correct,15,780
15,WDWDW,13,1,661,Correct,15,820
15,AWQWQ,221,1,755,Correct,15,858
15,TKTQT,222,2,538,Correct,15,910
15,MTMFM,162,2,892,Correct,15,886
15,KAKAK,10,3,675,Correct,15,760
15,BDBRB,14,2,804,Correct,15,747
15,QPQPQ,151,1,591,Correct,15,707
15,NDNDN,152,1,693,Correct,15,719
15,QYQGQ,184,2,864,Correct,15,861
15,VPVPV,15,1,706,Correct,15,913
15,RDRDA,225,1,928,Correct,15,831
15,KWKOK,222,2,895,Correct,15,932
15,TPTPT,151,1,712,Correct,15,721
15,DCDCD,152,1,936,Correct,15,733
15,OWOAO,112,3,696,Correct,15,909
15,ZCZNZ,14,2,806,Correct,15,805
15,MGMYM,185,2,797,Correct,15,901
15,ANLOL,231,2,648,Correct,15,777
15,DWDPD,222,2,521,Correct,15,726
15,YQYQY,151,3,1082,Incorrect,15,898
15,LGLGL,196,1,745,Correct,15,846
15,VYVLV,16,2,881,Correct,15,918
15,MVMVM,151,1,947,Correct,15,937
15,QMQMQ,152,1,742,Correct,15,796
15,SXSXS,153,1,800,Correct,15,825
15,WAWAW,12,3,1034,Correct,15,755
