Trial No,Stimulus,Trigger,Response,Response Time(ms),Correct,Block,Fixation Duration
Practice
OT Practice
1,SKSKS,15,,,False,0,672
1,DLDUD,16,2,1368,Correct,0,663
1,PDPGP,16,2,991,Correct,0,657
1,MWMWM,15,1,793,Correct,0,934
1,FTFTF,15,1,945,Correct,0,748
1,AXAMA,16,2,977,Correct,0,788
1,RYRGR,16,2,834,Correct,0,827
1,DODOD,15,1,708,Correct,0,873
1,QTQAQ,16,2,1293,Correct,0,897
1,YEYEY,15,1,762,Correct,0,874
2,GYGDG,16,2,929,Correct,0,842
2,SWSWS,15,1,846,Correct,0,930
2,HLHUH,16,2,944,Correct,0,860
2,DEDED,15,1,1165,Correct,0,879
2,ZPZOZ,16,2,887,Correct,0,767
2,ATATA,15,1,772,Correct,0,947
2,QOQOQ,15,1,889,Correct,0,833
2,FPFGF,16,2,875,Correct,0,773
2,TRTET,16,2,865,Correct,0,681
2,DQDQD,15,1,1209,Correct,0,699
4,PLPLP,15,1,867,Correct,0,870
4,ATAIA,16,2,951,Correct,0,839
4,SKSGS,16,2,763,Correct,0,721
4,ZYZYZ,15,1,884,Correct,0,726
4,QSQSQ,15,2,841,False,0,770
4,TZTDT,16,2,930,Correct,0,666
4,JYJGJ,16,2,1114,Correct,0,658
4,DYDYD,15,1,643,Correct,0,795
4,LTLCL,16,2,835,Correct,0,716
4,FQFEF,16,2,918,Correct,0,811
AT Practice
1,TKTKT,15,1,1253,Correct,0,774
1,SLSUS,16,2,744,Correct,0,808
1,VZVGV,7,3,976,Correct,0,766
1,XWXZX,7,3,885,Correct,0,664
1,ATATA,15,1,907,Correct,0,701
1,HXZMH,16,2,1007,Correct,0,744
1,TZTZT,7,3,713,Correct,0,865
1,UOUOU,15,1,1053,Correct,0,950
1,ZTWAW,16,2,970,Correct,0,781
1,RZRER,7,3,841,Correct,0,781
2,JYJDJ,16,2,982,Correct,0,759
2,DWDWD,15,1,901,Correct,0,836
2,GNGNG,7,3,851,Correct,0,852
2,NEZEZ,16,1,1397,Correct,0,867
2,RNROR,7,3,851,Correct,0,748
2,QTQNQ,7,3,960,Correct,0,943
2,HOHON,15,1,960,Correct,0,791
2,KPKGK,16,2,994,Correct,0,705
2,DRDED,16,2,1163,Correct,0,925
2,LNLNL,7,3,817,Correct,0,877
4,GLGLG,15,1,1067,Correct,0,807
4,DTDID,16,2,1256,Correct,0,799
4,SMSGS,16,2,1294,Correct,0,783
4,ZFZYZ,7,3,818,Correct,0,780
4,TSTFT,7,3,762,Correct,0,742
4,OFOFO,7,3,739,Correct,0,755
4,WYFGW,16,2,1210,Correct,0,820
4,WYWYW,15,1,911,Correct,0,784
4,MFMCM,7,3,819,Correct,0,810
4,HQHEH,16,2,919,Correct,0,822
Trials
1,D,5,3,11243,New Target,1,726
1,ZNZYZ,161,2,1145,Correct,1,884
1,FZFZF,151,1,1097,Correct,1,690
1,RKRKR,152,1,771,Correct,1,851
1,RXRNR,161,2,864,Correct,1,720
1,CNCFC,162,2,823,Correct,1,779
1,PDPDP,7,3,591,Correct,1,830
1,CPCFC,14,2,1195,Correct,1,918
1,VLVNV,162,2,884,Correct,1,880
1,KFKFK,151,1,1357,Correct,1,771
1,ZNZNZ,152,2,1127,Incorrect,1,662
1,KCKPD,235,2,963,Correct,1,776
1,ZKZFZ,222,2,967,Correct,1,797
1,NRNZN,162,2,987,Correct,1,748
1,KXKRK,163,2,810,Correct,1,867
1,YPYZY,164,2,898,Correct,1,832
1,FKDKF,223,1,869,Correct,1,893
1,RPRPR,113,,,Incorrect,1,782
1,VRVKV,161,2,1163,Correct,1,672
1,RFRPR,162,2,1004,Correct,1,661
1,KVKVK,151,1,1263,Correct,1,780
1,YKYVY,161,2,823,Correct,1,755
1,VDVDV,8,3,688,Correct,1,749
1,DVZVZ,221,2,927,Incorrect,1,804
1,YFYFY,113,2,878,Incorrect,1,915
1,ZYZYZ,152,1,918,Correct,1,757
1,VLVXV,161,2,714,Correct,1,841
1,DPXZX,231,2,899,Correct,1,881
1,RYRYR,113,1,852,Correct,1,929
1,PDPNP,91,3,827,Correct,1,811
1,KXKXK,13,1,813,Correct,1,948
1,ZYZYZ,152,1,870,Correct,1,800
1,VKVKV,153,1,794,Correct,1,836
1,YZYZY,154,1,841,Correct,1,688
1,NLNZN,161,2,787,Correct,1,766
1,ZNDYZ,233,1,1338,Incorrect,1,890
1,PCPXP,222,2,1053,Correct,1,867
1,ZVZFZ,162,2,884,Correct,1,659
1,RCRZR,163,2,792,Correct,1,913
1,LRLRL,151,1,1212,Correct,1,950
1,ZDZDZ,10,3,840,Correct,1,750
1,RNRZR,14,2,964,Correct,1,676
1,CXCYC,162,2,969,Correct,1,755
1,RCRLR,163,2,941,Correct,1,789
1,FRFRF,151,1,702,Correct,1,900
1,XFXFX,152,1,861,Correct,1,742
1,RPRLR,161,2,933,Correct,1,819
1,YXYRY,162,2,777,Correct,1,810
1,FYFYF,151,1,739,Correct,1,831
1,YZYVY,161,2,686,Correct,1,844
1,YKYKY,151,1,665,Correct,1,847
1,XRXRX,152,1,838,Correct,1,842
1,XVXZX,161,2,1576,Correct,1,932
1,PDPDP,11,3,790,Correct,1,765
1,ZFZFZ,13,1,834,Correct,1,706
1,PXPXP,152,1,809,Correct,1,833
1,LYLYL,153,1,783,Correct,1,834
1,NKNKD,225,2,830,Incorrect,1,711
1,ZNZNZ,113,1,963,Correct,1,896
1,PYPZP,161,2,805,Correct,1,842
1,XPXPX,151,1,730,Correct,1,901
1,VLVLV,152,1,1127,Correct,1,736
1,PKPXP,161,2,1314,Correct,1,907
1,FZFZF,151,1,1005,Correct,1,698
1,LDLDL,12,3,593,Correct,1,747
2,U,5,3,1789,New Target,2,808
2,ZVZFZ,161,,,Incorrect,2,796
2,FZFZF,151,1,730,Correct,2,862
2,RFRFR,152,1,856,Correct,2,729
2,NZNKN,161,2,819,Correct,2,670
2,FZFNF,162,2,853,Correct,2,933
2,RXRXR,151,1,831,Correct,2,734
2,KRKYK,161,2,791,Correct,2,897
2,NZNPN,162,2,929,Correct,2,799
2,XPXPX,151,1,739,Correct,2,829
2,CUCUC,7,3,1344,Correct,2,732
2,RFRFR,13,1,1489,Correct,2,885
2,VYVXV,161,2,805,Correct,2,714
2,VDVDV,191,1,1103,Correct,2,775
2,ZKZRZ,15,2,1016,Correct,2,916
2,XCXCX,151,,,Incorrect,2,824
2,CNCUC,82,2,1104,Incorrect,2,870
2,RCRCR,13,1,1052,Correct,2,905
2,ZPZXZ,161,2,761,Correct,2,856
2,FKFYF,162,2,785,Correct,2,903
2,ZFZYZ,163,2,712,Correct,2,858
2,PXPXP,151,1,695,Correct,2,683
2,URCKC,231,2,932,Correct,2,777
2,PCPCP,113,1,1118,Correct,2,657
2,XNXNX,152,2,973,Incorrect,2,700
2,RCRZR,161,2,815,Correct,2,787
2,XVXVX,151,1,1287,Correct,2,822
2,NRNRN,152,1,1266,Correct,2,701
2,FPFPF,225,1,807,Correct,2,876
2,XVXFX,222,2,830,Correct,2,842
2,PRPRP,151,1,853,Correct,2,817
2,FYFCF,161,2,1164,Correct,2,911
2,XUXFX,91,3,769,Correct,2,887
2,CYCVC,14,2,1122,Correct,2,652
2,VDVKV,172,2,948,Correct,2,655
2,YCYCY,15,1,1124,Correct,2,901
2,NKNLN,161,2,831,Correct,2,862
2,XPUKX,233,2,773,Correct,2,837
2,ZPZPZ,113,1,1013,Correct,2,722
2,KRKRK,152,1,726,Correct,2,819
2,XKXKX,153,1,884,Correct,2,751
2,YUYVY,101,3,605,Correct,2,747
2,XKXFU,235,2,713,Correct,2,947
2,NFNFN,113,1,1142,Correct,2,808
2,KDKDK,193,1,950,Correct,2,777
2,XYXKX,16,2,765,Correct,2,719
2,YZUZY,223,1,1010,Correct,2,950
2,KFKVK,222,3,963,Incorrect,2,846
2,LYLYL,151,1,954,Correct,2,712
2,CXCDC,184,2,732,Incorrect,2,866
2,XZXNX,16,2,839,Correct,2,810
2,PXPXP,151,1,859,Correct,2,935
2,ZRZYZ,161,2,846,Correct,2,906
2,PUPYP,111,3,825,Correct,2,742
2,RNRNR,14,1,1088,Correct,2,769
2,KDKDK,195,1,890,Correct,2,858
2,KNKNK,15,1,820,Correct,2,738
2,PRPKP,161,2,778,Correct,2,810
2,UNYNY,221,1,1137,Correct,2,851
2,NYNYN,113,1,1086,Correct,2,820
2,YXYXY,152,1,937,Incorrect,2,894
2,RDRDR,196,1,897,Correct,2,700
2,FCFCF,15,1,676,Correct,2,842
2,ZKZKZ,152,1,800,Correct,2,850
2,ZUZUZ,12,3,807,Correct,2,800
3,E,5,3,2719,New Target,3,881
3,YZYZY,151,1,1014,Correct,3,907
3,VFVNV,161,2,852,Correct,3,911
3,KYKYK,151,1,939,Correct,3,839
3,NKNKN,152,1,745,Correct,3,937
3,XVXNX,161,2,736,Correct,3,932
3,RERFR,71,3,780,Correct,3,749
3,XNXNX,13,1,829,Correct,3,658
3,NXNXN,152,1,1267,Correct,3,822
3,ZLZNZ,161,2,812,Correct,3,839
3,CUCNC,171,2,1094,Correct,3,819
3,FYFRF,16,2,956,Correct,3,949
3,ZLZLZ,151,1,826,Correct,3,909
3,YZYZY,152,1,1007,Correct,3,924
3,CYCYC,153,1,794,Correct,3,938
3,VUVUV,192,1,1092,Correct,3,780
3,PXPRP,16,2,804,Correct,3,793
3,YPYPY,151,1,1001,Correct,3,931
3,CECEC,8,3,878,Correct,3,676
3,VNENV,223,1,1282,Correct,3,873
3,KRKFK,222,2,987,Correct,3,743
3,XLXLE,225,1,1283,Correct,3,669
3,RFRUR,183,2,1111,Correct,3,879
3,XRXLX,16,2,897,Correct,3,883
3,NZNPN,162,2,882,Correct,3,889
3,XZXZX,151,1,756,Correct,3,906
3,FZFZF,152,1,816,Correct,3,775
3,PFPFP,153,1,821,Correct,3,855
3,YZYXY,161,1,653,Incorrect,3,852
3,KEKEK,9,3,879,Correct,3,754
3,CXCPC,14,2,1217,Correct,3,897
3,VXVXV,151,1,776,Correct,3,871
3,NUNZN,174,2,1251,Correct,3,757
3,RKRVR,16,2,862,Correct,3,671
3,XRXRX,151,1,1285,Correct,3,789
3,ERNFN,231,2,1126,Incorrect,3,934
3,YRYNY,222,2,999,Correct,3,720
3,PZPEP,102,2,1051,Incorrect,3,717
3,ZYZXZ,14,2,1183,Correct,3,683
3,RZRVR,162,2,1196,Correct,3,708
3,XRXRX,151,1,775,Correct,3,748
3,KUKFK,175,2,1101,Correct,3,917
3,RKRKR,15,1,1320,Correct,3,883
3,ZFZFZ,152,1,1002,Correct,3,909
3,YZYVY,161,2,796,Correct,3,836
3,XPXNX,162,2,1371,Correct,3,685
3,YRYRY,151,1,973,Correct,3,815
3,EPVPV,221,1,1061,Correct,3,682
3,CRCEC,112,3,771,Correct,3,838
3,RFRCR,14,2,1073,Correct,3,765
3,CPCVC,162,2,1585,Correct,3,773
3,RXRCR,163,2,1037,Correct,3,751
3,VNVLV,164,2,1095,Correct,3,943
3,ZXZXZ,151,1,983,Correct,3,761
3,ZCZCZ,152,1,1291,Correct,3,799
3,PYPUP,186,2,996,Correct,3,701
3,YKYPY,16,2,901,Correct,3,803
3,YREXY,233,2,1096,Correct,3,806
3,ZKZKZ,113,1,932,Correct,3,865
3,XLXNX,161,2,1098,Correct,3,793
3,KFKRE,235,2,1170,Correct,3,925
3,RXRLR,222,2,1242,Correct,3,857
3,RERXR,121,3,627,Correct,3,831
4,J,5,3,1509,New Target,4,775
4,CYCVC,161,2,1481,Correct,4,759
4,RXRCR,162,2,1063,Correct,4,828
4,FPFVF,163,2,1043,Correct,4,929
4,LZLZL,151,1,978,Correct,4,849
4,PLPLP,152,1,1119,Correct,4,930
4,NPNPN,153,1,922,Correct,4,838
4,XZXZX,161,1,899,Incorrect,4,674
4,CNCKC,162,2,789,Correct,4,902
4,PCPYJ,235,2,1443,Correct,4,745
4,VYVYV,113,1,1177,Correct,4,695
4,RLRLR,152,1,1076,Correct,4,826
4,CJCJC,7,3,864,Correct,4,868
4,ZLZLZ,13,1,1131,Correct,4,689
4,FZFZF,152,1,917,Correct,4,890
4,CFCFC,153,1,730,Correct,4,757
4,PZPZP,154,1,752,Correct,4,934
4,XEXEX,191,1,1003,Correct,4,815
4,NVNFN,16,2,970,Correct,4,902
4,KYKYK,151,1,858,Correct,4,915
4,ZNZVZ,161,2,1246,Correct,4,882
4,YVJXY,233,2,794,Correct,4,748
4,XFXFX,113,1,901,Correct,4,805
4,XNXNX,152,1,1004,Correct,4,731
4,FJFKF,81,3,731,Correct,4,835
4,CZCYC,14,2,820,Correct,4,857
4,ZXZCZ,162,2,759,Correct,4,930
4,RYRYJ,225,1,1053,Correct,4,918
4,FPFZF,222,2,876,Correct,4,804
4,XRXRX,151,,,Incorrect,4,761
4,YPYEY,182,2,1041,Correct,4,797
4,XRXRX,15,1,991,Correct,4,856
4,XZXPX,161,2,790,Correct,4,669
4,CJCJC,9,3,830,Correct,4,783
4,ZXZVZ,14,2,802,Correct,4,884
4,VKVKV,151,1,889,Correct,4,805
4,VEVNV,173,2,817,Correct,4,727
4,ZKZVZ,16,2,1334,Correct,4,919
4,XVXJX,102,3,639,Correct,4,727
4,RXRVR,14,2,1136,Correct,4,813
4,LRLRL,151,1,1182,Correct,4,775
4,YNJNY,223,1,1002,Correct,4,801
4,NPNJN,222,2,1258,Correct,4,866
4,ZEZEZ,194,1,1200,Correct,4,844
4,ZNZNZ,15,1,861,Correct,4,729
4,YZYZY,152,2,822,Incorrect,4,780
4,XYXYX,153,1,847,Correct,4,797
4,ZXZXZ,221,1,1143,Correct,4,801
4,LYLZL,222,2,823,Correct,4,695
4,CYCNC,162,2,1027,Correct,4,713
4,XEXEX,195,1,671,Correct,4,940
4,CVCXC,16,2,767,Correct,4,811
4,ZPZXZ,162,2,781,Correct,4,655
4,FZFZF,151,1,759,Correct,4,860
4,RXRJR,112,3,960,Correct,4,872
4,PRPFP,14,2,1302,Correct,4,749
4,PKPEP,186,2,748,Correct,4,757
4,XZXPX,16,2,757,Correct,4,880
4,JCZVZ,231,2,883,Correct,4,686
4,RXRLR,222,2,1048,Correct,4,879
4,VZVZV,151,1,953,Correct,4,785
4,XJXJX,12,3,872,Correct,4,910
5,I,5,3,15177,New Target,5,825
5,PCPCP,151,1,930,Correct,5,945
5,XYXYX,152,1,883,Correct,5,869
5,VXVXV,153,1,1119,Correct,5,656
5,XVXVX,154,1,793,Correct,5,883
5,ZRZXZ,161,2,816,Correct,5,865
5,FPFZF,162,2,899,Correct,5,945
5,ZYZYZ,151,1,758,Correct,5,847
5,RVRZR,161,2,759,Correct,5,691
5,CICIC,7,3,760,Correct,5,683
5,XLXLX,13,1,1139,Correct,5,836
5,YVYVY,152,1,978,Correct,5,767
5,CJCJC,191,1,1480,Correct,5,743
5,FNFCF,16,2,904,Correct,5,809
5,PVPRP,162,2,1162,Correct,5,871
5,FZFZF,151,1,1154,Correct,5,908
5,NVIVN,223,1,939,Correct,5,861
5,CVCIC,82,2,1227,Incorrect,5,900
5,ZXZXZ,13,1,937,Correct,5,695
5,FCFZF,161,2,825,Correct,5,832
5,IXRXR,221,1,895,Correct,5,896
5,ZPZNZ,222,2,810,Correct,5,684
5,VZVZV,151,1,773,Correct,5,726
5,YRYNY,161,2,879,Correct,5,815
5,VNVPV,162,2,1302,Correct,5,831
5,RVRJR,182,1,1262,Incorrect,5,754
5,VRVRV,15,1,842,Correct,5,694
5,VIVIV,9,3,719,Correct,5,851
5,CXCVC,14,2,1438,Correct,5,750
5,PZPZP,151,1,797,Correct,5,837
5,IXVKV,231,2,1140,Correct,5,915
5,YJYCY,173,,,Incorrect,5,838
5,VYVYV,15,1,863,Correct,5,667
5,YVYVY,152,1,790,Correct,5,758
5,NVNVN,153,1,944,Correct,5,778
5,XYXVX,161,2,806,Correct,5,739
5,NJNCN,174,2,1355,Correct,5,883
5,NXNYN,16,2,836,Correct,5,723
5,VXVCV,162,2,973,Correct,5,720
5,ZKZKZ,151,1,896,Correct,5,769
5,XRXYX,161,2,882,Correct,5,910
5,ZCZXZ,162,2,775,Correct,5,793
5,KVKYI,235,2,947,Correct,5,789
5,CNCNC,113,1,844,Correct,5,658
5,RIRIR,10,3,815,Correct,5,894
5,VYVXV,14,2,1257,Correct,5,767
5,FXIRF,233,1,1045,Incorrect,5,704
5,PFPFP,113,1,844,Correct,5,651
5,VPVPV,152,1,709,Correct,5,809
5,ZJZJZ,195,1,671,Correct,5,910
5,ZVZNZ,16,2,992,Correct,5,754
5,YVYXY,162,2,915,Correct,5,741
5,PRPRP,151,1,776,Correct,5,798
5,YPYPY,152,1,1028,Correct,5,809
5,ZIZPZ,111,3,1248,Correct,5,937
5,NKNXN,14,2,1423,Correct,5,664
5,RZRXR,162,2,978,Correct,5,760
5,RXRXR,151,1,904,Correct,5,726
5,ZJZJZ,196,1,882,Correct,5,650
5,CVCVI,225,1,981,Incorrect,5,854
5,NKNKN,113,1,854,Correct,5,819
5,NRNZN,161,2,986,Correct,5,924
5,CNCNC,151,1,944,Correct,5,740
5,RFRIR,122,2,982,Incorrect,5,740
6,B,5,3,9660,New Target,6,928
6,YKYZY,161,2,982,Correct,6,744
6,VCVRV,162,2,770,Correct,6,898
6,XVXVX,151,1,768,Correct,6,701
6,KZKRK,161,2,662,Correct,6,942
6,ZVZXZ,162,2,753,Correct,6,858
6,RCRNR,163,2,639,Correct,6,703
6,CXCRC,164,2,715,Correct,6,871
6,VNBCV,233,2,748,Correct,6,677
6,CXCVC,222,2,952,Correct,6,746
6,RFRFR,151,,,Incorrect,6,790
6,XPXRX,161,2,863,Correct,6,948
6,RYRBR,72,3,1259,Correct,6,702
6,ZKZKZ,13,1,915,Correct,6,846
6,FIFRF,171,,,Incorrect,6,666
6,VZVLV,16,2,1077,Correct,6,838
6,RPRVR,162,2,1314,Correct,6,880
6,YBYBY,8,3,761,Correct,6,727
6,PYPVP,14,1,1221,Incorrect,6,830
6,NININ,192,1,1260,Correct,6,857
6,RNRNR,15,1,1110,Correct,6,765
6,NXNVN,161,,,Incorrect,6,770
6,RNRNR,151,1,1355,Correct,6,934
6,FRFVF,161,2,1088,Correct,6,754
6,YVYFB,235,2,1054,Incorrect,6,797
6,ZRZXZ,222,2,1043,Correct,6,716
6,VNVIV,193,2,1284,Incorrect,6,716
6,PXPNP,16,2,1118,Correct,6,724
6,ZXZPZ,162,2,1143,Correct,6,873
6,VBVBV,9,3,778,Correct,6,693
6,CXCXC,13,1,817,Correct,6,889
6,PCPFP,161,2,875,Correct,6,789
6,KNKNK,151,1,845,Correct,6,879
6,XIXIX,194,1,1319,Correct,6,725
6,CYCYC,15,1,898,Correct,6,709
6,FVFYF,161,2,928,Correct,6,943
6,YNYRY,162,1,1041,Incorrect,6,949
6,BVPXP,231,2,931,Correct,6,724
6,NXNXN,113,1,854,Correct,6,837
6,FRFRF,152,1,809,Correct,6,888
6,YVYVY,153,1,815,Correct,6,876
6,ZKZCZ,161,1,1193,Incorrect,6,750
6,VIVXV,175,2,927,Correct,6,893
6,PRBRP,223,2,1127,Incorrect,6,701
6,YZYBY,102,3,818,Correct,6,886
6,CXCVC,14,2,842,Correct,6,832
6,FYFYF,151,1,760,Correct,6,677
6,VKVXV,161,2,841,Correct,6,688
6,ZBZBZ,11,3,871,Correct,6,691
6,FPFNF,14,2,817,Correct,6,652
6,CXCXC,151,1,739,Correct,6,939
6,YCYCY,152,1,674,Correct,6,735
6,FPFPF,153,1,737,Correct,6,790
6,CVCVB,225,1,861,Correct,6,883
6,ZCZCZ,113,1,756,Correct,6,719
6,CZCNC,161,2,810,Correct,6,907
6,KIKFK,176,2,897,Correct,6,812
6,PXPXP,15,1,1114,Correct,6,744
6,RYRYR,152,1,904,Correct,6,748
6,ZRZCZ,161,2,911,Correct,6,726
6,RVRVR,151,1,760,Correct,6,703
6,XYXNX,161,2,920,Correct,6,698
6,BVKVK,221,1,1426,Correct,6,683
6,CBCBC,12,3,755,Correct,6,798
7,W,5,3,2994,New Target,7,894
7,RKRKR,151,1,918,Correct,7,826
7,CVCRC,161,2,764,Correct,7,719
7,PKPKP,151,1,817,Correct,7,949
7,FPFPF,152,1,921,Correct,7,766
7,VRVPV,161,2,1016,Correct,7,917
7,ZKZYZ,162,2,968,Correct,7,822
7,PVPCP,233,2,733,Correct,7,752
7,KVKVK,113,1,1184,Correct,7,653
7,YXYVY,161,2,793,Correct,7,831
7,FNFNF,151,1,1033,Correct,7,662
7,YWYWY,7,3,793,Correct,7,835
7,ZYZYZ,13,1,1112,Correct,7,670
7,PYPYP,152,1,711,Correct,7,774
7,XRXRX,153,1,673,Correct,7,925
7,PXPXP,154,1,850,Correct,7,734
7,FCFBF,181,2,806,Correct,7,912
7,FVFVF,15,1,1099,Correct,7,934
7,CYCZC,161,2,871,Correct,7,805
7,XZXVX,162,2,804,Correct,7,657
7,PFPFP,151,1,731,Correct,7,897
7,RVRLR,161,2,673,Correct,7,898
7,ZBZBZ,192,1,1131,Correct,7,933
7,VCVNV,16,2,794,Correct,7,734
7,NWNWN,8,3,776,Correct,7,663
7,XNXVX,14,2,781,Correct,7,924
7,CXCNC,162,2,774,Correct,7,866
7,YVYVW,225,1,880,Correct,7,856
7,VFVFV,113,2,1082,Incorrect,7,712
7,VFWFV,223,1,916,Correct,7,874
7,CVCFC,222,2,740,Correct,7,916
7,YBYBY,193,1,1169,Correct,7,802
7,PYPYP,15,1,770,Correct,7,660
7,NKNWN,91,2,765,Incorrect,7,767
7,VNVNV,13,1,1064,Correct,7,794
7,RVRVR,152,1,849,Correct,7,869
7,FVFBF,184,2,669,Incorrect,7,684
7,VZVKV,16,2,1090,Correct,7,680
7,VPVCV,162,2,860,Correct,7,915
7,WYZCZ,231,2,1331,Correct,7,790
7,PFPFP,113,1,812,Correct,7,708
7,PRPRP,152,1,1080,Correct,7,702
7,NWNWN,10,3,772,Correct,7,892
7,VKVCV,14,2,1034,Correct,7,934
7,WPYPY,221,1,797,Correct,7,687
7,VBVBV,195,2,999,Incorrect,7,800
7,ZKZYZ,16,2,837,Correct,7,908
7,XYXYX,151,2,1038,Incorrect,7,766
7,FZFXF,161,2,1178,Correct,7,932
7,XKXKX,151,1,1401,Correct,7,685
7,XPXPX,152,1,894,Correct,7,763
7,FWFWF,11,1,1000,Incorrect,7,674
7,FNFBF,186,2,669,Correct,7,738
7,ZVZYZ,16,2,1367,Correct,7,949
7,FZFZF,151,1,749,Correct,7,735
7,NPNFW,235,2,733,Correct,7,718
7,PCPCP,113,1,758,Correct,7,785
7,NKNWN,122,2,1004,Incorrect,7,941
8,M,5,3,1649,New Target,8,801
8,VYVNV,161,2,855,Correct,8,747
8,KLKNK,162,2,777,Correct,8,937
8,NRNRN,151,1,821,Correct,8,732
8,VNVFV,161,2,874,Correct,8,875
8,XNXNM,225,1,1406,Correct,8,913
8,CXCVC,222,2,1069,Correct,8,837
8,KRKZK,162,2,1178,Correct,8,863
8,NMNFN,71,3,887,Correct,8,728
8,ZFZFZ,13,1,752,Correct,8,740
8,YPYCY,161,2,1375,Correct,8,809
8,KCKCK,151,1,910,Correct,8,880
8,VNVNV,152,1,1568,Correct,8,895
8,LXLXL,153,1,941,Correct,8,805
8,CLCLC,154,1,895,Correct,8,869
8,NYNYN,155,1,1096,Correct,8,759
8,LCMYL,233,2,737,Correct,8,882
8,NCNCN,113,1,953,Correct,8,868
8,ZVZRZ,161,2,1233,Correct,8,658
8,ZVZVZ,151,1,872,Correct,8,908
8,PZPVP,161,,,Incorrect,8,864
8,PWPNP,171,2,1546,Correct,8,736
8,KLKCM,235,2,978,Correct,8,946
8,XMXMX,8,3,887,Correct,8,751
8,PRPXP,14,2,1043,Correct,8,693
8,CVCYC,162,2,793,Correct,8,666
8,PXPMP,92,2,866,Incorrect,8,795
8,ZCZLZ,14,2,759,Correct,8,877
8,XWXWX,192,1,1414,Correct,8,679
8,ZCZLZ,16,2,826,Correct,8,727
8,MNCYC,231,2,928,Correct,8,856
8,ZXZXZ,113,1,994,Correct,8,862
8,YRYNY,161,2,999,Correct,8,700
8,ZLZPZ,162,2,908,Correct,8,750
8,VZVZV,151,1,1211,Correct,8,940
8,MXPXP,221,1,1032,Correct,8,690
8,VWVWV,193,,,Incorrect,8,913
8,PYPYP,16,1,706,Incorrect,8,769
8,XPXVX,162,2,750,Correct,8,724
8,XLXLX,151,1,826,Correct,8,759
8,YMYMY,10,3,1114,Correct,8,664
8,VYVYV,13,1,980,Correct,8,848
8,PWPZP,174,2,1191,Correct,8,727
8,PYPKP,16,2,901,Correct,8,729
8,NPNXN,162,2,1135,Correct,8,695
8,KVKVK,223,1,935,Correct,8,921
8,NVNFN,222,2,702,Correct,8,698
8,XNXNX,151,2,1159,Incorrect,8,916
8,YZYMY,112,3,884,Correct,8,781
8,PFPFP,13,1,957,Correct,8,718
8,ZWZWZ,195,2,917,Incorrect,8,692
8,PCPZP,16,2,758,Correct,8,852
8,LRLPL,162,2,883,Correct,8,737
8,CZCZC,151,1,740,Correct,8,914
8,NZNZN,152,1,748,Correct,8,832
8,CVCXC,161,2,837,Correct,8,877
8,XCXCX,151,1,905,Correct,8,874
8,YWYWY,196,1,904,Correct,8,882
8,NLNLN,15,1,800,Correct,8,703
8,VNVNV,152,1,926,Correct,8,718
8,ZMZMZ,12,3,817,Correct,8,879
9,S,5,3,2712,New Target,9,703
9,NZNZN,151,1,924,Correct,9,862
9,KVKZK,161,2,871,Correct,9,661
9,LZLZL,151,1,733,Correct,9,858
9,XLXLX,152,1,772,Correct,9,868
9,ZXZXZ,153,1,767,Correct,9,749
9,KNKZK,161,1,1112,Incorrect,9,841
9,NRNYN,162,2,851,Correct,9,878
9,CLCVC,163,2,856,Correct,9,865
9,ZCZFZ,164,2,1363,Correct,9,669
9,NSNSN,7,3,1016,Correct,9,767
9,VZVZV,13,1,839,Correct,9,850
9,NVNCN,161,2,1315,Correct,9,688
9,VMVMV,191,1,1118,Correct,9,703
9,CVCXC,16,2,871,Correct,9,876
9,ZYZRZ,162,2,761,Correct,9,922
9,XNXZX,163,2,824,Correct,9,678
9,PXPXP,151,1,725,Correct,9,737
9,VCVSV,82,3,965,Correct,9,708
9,PRPCP,14,2,748,Correct,9,675
9,ZMZMZ,192,1,868,Incorrect,9,864
9,ZFZFZ,15,1,760,Correct,9,882
9,FCFCF,152,1,807,Correct,9,659
9,YLYZY,161,2,787,Correct,9,707
9,KNKVK,162,2,763,Correct,9,822
9,SFPCP,231,2,758,Correct,9,846
9,RPRPR,113,1,670,Correct,9,906
9,XMXMX,193,1,1371,Correct,9,883
9,KFKFK,15,1,1119,Correct,9,847
9,VSVSV,9,3,839,Correct,9,860
9,YVSVY,223,,,Incorrect,9,711
9,VPVPV,113,1,768,Correct,9,714
9,XZXZX,152,1,753,Correct,9,665
9,KZKXK,161,2,704,Correct,9,662
9,RFRPR,162,2,815,Correct,9,754
9,NVNVS,225,1,1251,Correct,9,942
9,ZXZXZ,113,1,872,Correct,9,840
9,SRVRV,221,1,1581,Correct,9,855
9,YCYCY,113,1,691,Correct,9,941
9,KMKZK,174,2,1076,Correct,9,744
9,FZSVF,233,2,897,Correct,9,825
9,VYVYV,113,1,693,Correct,9,812
9,LVLVL,152,1,1076,Correct,9,739
9,YFYFY,153,1,1142,Correct,9,706
9,NXNSN,102,2,727,Incorrect,9,718
9,FNFCF,14,2,904,Correct,9,703
9,KVKVK,151,1,761,Correct,9,825
9,VZVCV,161,2,772,Correct,9,826
9,ZYZMZ,185,2,1340,Correct,9,883
9,VXVZV,16,2,909,Correct,9,888
9,VPVPV,151,1,644,Correct,9,778
9,RVRNS,235,2,1012,Correct,9,737
9,YZYZY,113,1,1126,Correct,9,740
9,ZSZSZ,11,3,978,Correct,9,884
9,FRFRF,13,1,953,Correct,9,688
9,ZMZMZ,196,1,971,Correct,9,892
9,NZNXN,16,2,716,Correct,9,840
9,LSLFL,121,3,873,Correct,9,775
10,Q,5,3,3350,New Target,10,938
10,ZVZPZ,161,2,840,Correct,10,776
10,RZRZR,151,1,788,Correct,10,694
10,ZFZFZ,152,1,879,Correct,10,773
10,RZRZR,153,1,707,Correct,10,857
10,PZPXP,161,2,1010,Correct,10,784
10,VFQPV,233,2,1126,Correct,10,762
10,ZPZRZ,222,2,777,Correct,10,684
10,CYCVC,162,2,846,Correct,10,866
10,CPCPC,151,1,691,Correct,10,932
10,YZYQY,72,2,706,Incorrect,10,756
10,FVFXF,14,2,619,Correct,10,890
10,YNYNQ,225,3,1033,Incorrect,10,833
10,ZYZYZ,113,1,1152,Correct,10,660
10,FRFSF,181,2,1062,Incorrect,10,939
10,XNXPX,16,2,1417,Correct,10,768
10,NXNXN,151,1,895,Correct,10,703
10,PVPZP,161,2,1557,Correct,10,782
10,XVXPX,162,2,1205,Correct,10,708
10,FXFVF,163,2,683,Correct,10,891
10,NSNKN,172,2,996,Incorrect,10,873
10,VXVNV,16,2,892,Correct,10,662
10,XZXZX,151,1,780,Correct,10,941
10,VQVQV,8,2,793,Incorrect,10,701
10,ZYZPZ,14,2,1117,Correct,10,926
10,PZPSP,183,2,1183,Correct,10,684
10,YVYVY,15,1,1066,Correct,10,841
10,NCNQN,92,3,1212,Correct,10,759
10,FCFVF,14,2,1082,Correct,10,669
10,ZFZFZ,151,1,962,Correct,10,917
10,NSNSN,194,3,1380,Incorrect,10,868
10,YPYFY,16,2,840,Correct,10,814
10,ZKZKZ,151,1,962,Correct,10,728
10,QZRCR,231,2,850,Correct,10,897
10,YPYVY,222,2,926,Correct,10,715
10,ZNZNZ,151,1,754,Correct,10,877
10,VQVQV,10,3,879,Correct,10,752
10,RVRZR,14,2,696,Correct,10,697
10,KRKSK,185,2,1032,Correct,10,777
10,NPNPN,15,1,743,Correct,10,880
10,YPYPY,152,1,721,Correct,10,869
10,VCVYV,161,2,943,Correct,10,726
10,FPFNF,162,2,771,Correct,10,848
10,QVXVX,221,1,1123,Correct,10,666
10,ZVZRZ,222,2,653,Correct,10,836
10,LFLFL,151,1,794,Correct,10,836
10,VLVLV,152,1,946,Correct,10,840
10,KXQXK,223,1,896,Correct,10,940
10,YQYQY,11,3,794,Correct,10,712
10,YCYCY,13,1,995,Correct,10,852
10,PZPYP,161,2,758,Correct,10,768
10,LPLFL,162,2,853,Correct,10,683
10,VSVSV,196,1,848,Correct,10,741
10,VFVYQ,235,2,737,Correct,10,916
10,CZCXC,222,2,589,Correct,10,849
10,PVPCP,162,2,766,Correct,10,807
10,CXCXC,151,1,967,Correct,10,819
10,NZNZN,152,1,700,Correct,10,719
10,YPYCY,161,2,811,Correct,10,781
10,ZQZQZ,12,3,981,Correct,10,744
11,T,5,3,1945,New Target,11,938
11,KFKFK,151,1,1317,Correct,11,930
11,LZLZL,152,1,633,Correct,11,847
11,PFPVP,161,2,900,Correct,11,925
11,FRFPF,162,2,874,Correct,11,829
11,FZFZF,151,1,800,Correct,11,855
11,VTVTV,7,1,1135,Incorrect,11,681
11,KYKCK,14,2,840,Correct,11,923
11,VPVPV,151,1,776,Correct,11,656
11,XQXQX,191,1,995,Correct,11,807
11,PZPYP,16,2,757,Correct,11,849
11,KXKLK,162,2,843,Correct,11,878
11,TCNCN,221,1,709,Correct,11,723
11,PZPNP,222,2,755,Correct,11,723
11,RCRPR,162,2,738,Correct,11,705
11,PZPRT,235,2,740,Correct,11,664
11,XFXVX,222,2,866,Correct,11,752
11,LTLVL,81,2,735,Incorrect,11,689
11,ZCZPZ,14,2,726,Correct,11,933
11,NCNQN,182,2,1426,Correct,11,784
11,XZXNX,16,2,863,Correct,11,864
11,ZPZPZ,151,1,900,Correct,11,909
11,CFCFC,152,1,896,Correct,11,670
11,VXTRV,233,2,728,Correct,11,774
11,CFCVC,222,2,912,Correct,11,909
11,PYPYP,151,1,761,Correct,11,718
11,FQFYF,173,2,1345,Correct,11,876
11,CNCFC,16,2,1161,Correct,11,757
11,PTPTP,9,3,885,Correct,11,812
11,ZCZCZ,13,,,Incorrect,11,654
11,KZKZK,152,1,774,Correct,11,941
11,RLRVR,161,2,780,Correct,11,899
11,ZRZKZ,162,2,856,Correct,11,785
11,KLKLT,225,1,943,Correct,11,820
11,ZQZQZ,194,1,736,Correct,11,853
11,VZVZV,15,1,957,Correct,11,801
11,RVRZR,161,2,859,Correct,11,944
11,ZPZCZ,162,2,822,Correct,11,715
11,VYVYV,151,1,992,Correct,11,773
11,RVRVR,152,1,1281,Correct,11,847
11,PTPTP,10,3,855,Correct,11,837
11,PXPXP,13,1,1436,Correct,11,939
11,KCKCK,152,1,1080,Correct,11,907
11,YVYVY,153,1,721,Correct,11,945
11,CYCYC,154,1,896,Correct,11,709
11,XCXCX,155,1,805,Correct,11,822
11,CYCQC,185,2,739,Correct,11,684
11,KCKNK,16,2,779,Correct,11,875
11,VPVPV,151,1,692,Correct,11,827
11,TXFZF,231,2,869,Correct,11,743
11,NYNVN,222,1,786,Incorrect,11,680
11,VQVXV,176,1,1086,Incorrect,11,701
11,ZRZRZ,15,1,1025,Correct,11,672
11,VTVZV,111,3,1235,Correct,11,795
11,PXPVP,14,2,906,Correct,11,892
11,FVFVF,151,1,1100,Correct,11,866
11,VRVLV,161,2,1286,Correct,11,946
11,YCYCY,151,1,807,Correct,11,881
11,XZTZX,223,1,945,Correct,11,711
11,VTVTV,12,3,994,Correct,11,887
12,O,5,3,3662,New Target,12,678
12,VXVLV,161,,,Incorrect,12,927
12,KVKCK,162,2,1106,Correct,12,885
12,VLVLV,151,1,777,Correct,12,934
12,ZCZVZ,161,2,634,Correct,12,673
12,KFKFK,151,1,956,Correct,12,719
12,XKXKX,152,1,772,Correct,12,729
12,YXYXY,153,1,679,Correct,12,940
12,FVFVF,154,1,785,Correct,12,852
12,PVPOP,72,3,812,Correct,12,766
12,ZXZYZ,14,2,671,Correct,12,931
12,PXPVP,162,2,681,Correct,12,884
12,ZTZTZ,191,1,1269,Correct,12,828
12,CVCKC,16,2,761,Correct,12,913
12,CKCKC,151,1,1018,Correct,12,707
12,NPNPN,152,1,797,Correct,12,767
12,ZRZNZ,161,2,705,Correct,12,886
12,OZCZC,221,1,1231,Correct,12,755
12,LFLFL,113,1,1101,Correct,12,653
12,CXCXC,152,2,761,Incorrect,12,849
12,KPKPK,153,1,1075,Correct,12,858
12,FRFKF,161,2,803,Correct,12,774
12,FOFOF,8,3,908,Correct,12,836
12,ZFZFZ,13,1,1540,Correct,12,711
12,LKLZO,235,2,962,Correct,12,780
12,KLKZK,222,2,932,Correct,12,812
12,YXYCY,162,2,1297,Correct,12,933
12,LOLOL,9,3,774,Correct,12,873
12,XLXLX,13,1,1340,Correct,12,935
12,XVXVX,152,1,869,Correct,12,668
12,FTFTF,192,1,962,Correct,12,695
12,OXNZN,231,2,853,Correct,12,822
12,CZCZC,113,1,1097,Correct,12,912
12,LZLZL,152,1,684,Correct,12,690
12,VLVPV,161,2,1190,Correct,12,873
12,VYVYO,225,1,772,Correct,12,779
12,XKXKX,113,1,1017,Correct,12,918
12,RTRTR,193,1,939,Correct,12,771
12,KVKCK,16,2,815,Correct,12,798
12,ROROR,101,3,1558,Correct,12,809
12,PRPRP,13,1,867,Correct,12,780
12,LYLVL,161,2,972,Correct,12,724
12,PLPLP,151,1,842,Correct,12,864
12,CTCTC,194,2,1011,Incorrect,12,742
12,XZXYX,16,2,890,Correct,12,701
12,NKNKN,151,1,957,Correct,12,893
12,VLVZV,161,2,864,Correct,12,873
12,YOYOY,11,3,829,Correct,12,658
12,PZOZP,223,1,1097,Correct,12,742
12,FYFYF,113,1,907,Correct,12,697
12,ZXZVZ,161,2,640,Correct,12,790
12,VKVZV,162,2,1357,Correct,12,839
12,ZTZTZ,195,1,677,Correct,12,693
12,LKLZL,16,2,677,Correct,12,727
12,KCKVK,162,2,801,Correct,12,903
12,PXPKP,163,2,684,Correct,12,804
12,KCOZK,233,2,846,Correct,12,712
12,FKFKF,113,1,657,Correct,12,899
12,CTCRC,176,2,717,Correct,12,897
12,NXNXN,15,1,1021,Correct,12,717
12,KXKVK,161,2,818,Correct,12,724
12,CPCOC,122,3,895,Correct,12,733
13,H,5,3,1468,New Target,13,907
13,VFVNV,151,2,852,Incorrect,13,687
13,YVYVY,152,1,665,Correct,13,895
13,XVXVX,153,1,795,Correct,13,671
13,NRNXN,161,2,642,Correct,13,887
13,PZPKP,162,2,644,Correct,13,779
13,HLVLV,221,1,702,Correct,13,932
13,CXCZC,222,2,825,Correct,13,879
13,LHLYL,71,3,884,Correct,13,697
13,YKYFY,14,2,846,Correct,13,670
13,YOYRY,171,2,1046,Correct,13,775
13,ZKZYZ,16,2,692,Correct,13,885
13,RZRZR,151,1,674,Correct,13,759
13,NFNYN,161,2,791,Correct,13,656
13,KVKFK,162,2,708,Correct,13,703
13,XFXYX,163,2,741,Correct,13,687
13,LKLVL,164,2,619,Correct,13,932
13,NLNLN,151,1,732,Correct,13,827
13,XCXOX,182,2,1252,Correct,13,887
13,FXFXF,15,1,1305,Correct,13,933
13,VHVHV,8,3,1104,Correct,13,818
13,PVPVP,13,1,848,Correct,13,721
13,CRCXC,161,2,986,Correct,13,736
13,NXNXN,151,1,843,Correct,13,811
13,XRXRX,152,1,924,Correct,13,933
13,YFYXY,161,2,666,Correct,13,943
13,ZOZOZ,193,1,1095,Correct,13,806
13,RZRZR,15,1,709,Correct,13,853
13,FKFKF,152,1,804,Correct,13,782
13,PFPFP,153,1,1135,Correct,13,770
13,XYXHX,92,3,940,Correct,13,778
13,RZRKR,14,2,828,Correct,13,891
13,FLFLH,225,1,714,Correct,13,679
13,KRKRK,113,1,756,Correct,13,800
13,ZVZNZ,161,2,768,Correct,13,830
13,ZOZOZ,194,1,943,Correct,13,717
13,FZFZF,15,,,Incorrect,13,697
13,FHFKF,101,,,Incorrect,13,946
13,ZXHLZ,233,2,1467,Correct,13,709
13,FKFXF,222,2,1149,Correct,13,689
13,CFCYC,162,2,1043,Correct,13,916
13,ZXZVZ,163,2,738,Correct,13,807
13,KCKOK,185,2,894,Correct,13,812
13,ZXZVH,235,2,809,Correct,13,665
13,CKCKC,113,2,742,Incorrect,13,673
13,ZXZCZ,161,2,802,Correct,13,826
13,YVYVY,151,1,767,Correct,13,718
13,RVHVR,223,1,731,Correct,13,756
13,ZRZRZ,113,1,870,Correct,13,894
13,ZHZHZ,11,2,1433,Incorrect,13,902
13,VZVZV,13,1,1002,Correct,13,897
13,HZVRV,231,2,1225,Correct,13,854
13,FVFVF,113,1,1512,Correct,13,657
13,RNRCR,161,2,934,Correct,13,802
13,COCOC,196,1,1149,Correct,13,704
13,VNVXV,16,2,940,Correct,13,719
13,XHXHX,12,3,1022,Correct,13,881
14,G,5,3,2016,New Target,14,859
14,FZFZF,151,1,756,Correct,14,787
14,RPRVR,161,2,798,Correct,14,781
14,XCXCX,151,1,1020,Correct,14,675
14,YXYXY,152,1,627,Correct,14,727
14,KZKZK,153,1,1318,Correct,14,676
14,RYRKR,161,2,1568,Correct,14,720
14,FYFNF,162,2,1598,Correct,14,726
14,VKVKV,151,1,718,Correct,14,692
14,KPGPK,223,1,1035,Correct,14,787
14,YNYNY,113,1,832,Correct,14,728
14,VYVYV,152,1,939,Correct,14,755
14,YCYXY,161,2,946,Correct,14,734
14,LKLGL,72,2,1099,Incorrect,14,719
14,VXVXV,13,,,Incorrect,14,899
14,KCKVK,161,2,1262,Correct,14,847
14,YKYKY,151,1,741,Correct,14,793
14,RHRXR,171,2,818,Correct,14,826
14,FVFCF,16,2,1008,Correct,14,698
14,YXYGY,82,3,667,Correct,14,917
14,CLCLC,13,1,665,Correct,14,866
14,ZXZCZ,161,2,901,Correct,14,876
14,VLVFV,162,2,806,Correct,14,898
14,CPCPG,225,1,1515,Correct,14,925
14,KHKNK,172,2,797,Correct,14,673
14,ZKZVZ,16,2,967,Correct,14,825
14,YKYLY,162,2,776,Correct,14,888
14,CNCNC,151,2,949,Incorrect,14,732
14,PGPGP,9,1,808,Incorrect,14,803
14,VPVPV,13,1,896,Correct,14,892
14,FXGRF,233,2,660,Correct,14,839
14,CYCVC,222,2,815,Correct,14,901
14,FNFNF,151,1,647,Correct,14,800
14,KFKCK,161,2,955,Correct,14,651
14,ZFZHZ,183,2,906,Correct,14,926
14,NXNXN,15,1,1390,Correct,14,841
14,FNFNF,152,1,685,Correct,14,897
14,LXLNG,235,2,1358,Correct,14,729
14,XKXVX,222,2,1080,Correct,14,661
14,ZHZHZ,194,1,1239,Correct,14,836
14,PFPFP,15,1,1157,Correct,14,689
14,ZYZYZ,152,1,693,Correct,14,693
14,XPXVX,161,2,704,Correct,14,840
14,YCYCY,151,1,1028,Correct,14,658
14,RGRGR,10,3,850,Correct,14,844
14,VRVRV,13,1,871,Correct,14,862
14,PKPNP,161,2,896,Correct,14,765
14,XGXGX,11,3,870,Correct,14,787
14,GZYVY,231,2,1226,Correct,14,886
14,VCVNV,222,2,778,Correct,14,650
14,VHVHV,195,1,771,Correct,14,828
14,LXLNL,16,2,668,Correct,14,826
14,GKPKP,221,2,648,Incorrect,14,911
14,XRXPX,222,2,1140,Correct,14,880
14,XNXNX,151,1,900,Correct,14,689
14,KHKNK,176,2,968,Incorrect,14,882
14,RZRZR,15,2,1004,Incorrect,14,734
14,CGCFC,121,3,1083,Correct,14,844
15,A,5,3,1462,New Target,15,869
15,XRXFX,161,2,1052,Correct,15,849
15,RXRKR,162,2,1119,Correct,15,689
15,YRYRY,151,1,654,Correct,15,745
15,XPXPX,152,1,1006,Correct,15,770
15,RPRPR,153,1,784,Correct,15,770
15,NCNCN,154,1,667,Correct,15,768
15,RXRZR,161,2,535,Correct,15,833
15,NANAN,7,3,826,Correct,15,795
15,KCKYK,14,2,808,Correct,15,676
15,XKXFX,162,2,992,Correct,15,894
15,ZLZKZ,163,2,865,Correct,15,809
15,VCVZV,164,2,995,Correct,15,892
15,XCXVX,165,2,883,Correct,15,898
15,LKLZA,235,2,646,Correct,15,911
15,NCNCN,113,2,935,Incorrect,15,783
15,YGYGY,191,1,1599,Correct,15,718
15,VLVLV,15,1,729,Correct,15,821
15,XRXRX,152,1,723,Correct,15,850
15,KAKPK,81,2,1107,Incorrect,15,679
15,YZAZY,233,1,763,Incorrect,15,883
15,CFCFC,113,1,841,Correct,15,686
15,VNVLV,161,2,1085,Correct,15,903
15,KPKVK,162,2,912,Correct,15,681
15,NCNRN,163,2,1195,Correct,15,714
15,FGFGF,192,1,1388,Correct,15,670
15,RCRYR,16,2,894,Correct,15,823
15,KRKCK,162,2,872,Correct,15,712
15,CRCRC,151,1,928,Correct,15,708
15,XPAPX,223,1,867,Correct,15,898
15,LPLXL,222,2,703,Correct,15,696
15,CGCVC,173,2,1357,Correct,15,813
15,FKFZF,16,2,836,Correct,15,714
15,CACAC,9,3,764,Correct,15,768
15,XCXCX,13,1,950,Correct,15,828
15,AXRXR,221,1,714,Correct,15,756
15,NKNRN,222,2,1107,Correct,15,905
15,KNKFK,162,2,821,Correct,15,733
15,KAKAK,10,3,989,Correct,15,831
15,ZCZRZ,14,2,687,Correct,15,853
15,RPRPR,151,1,672,Correct,15,731
15,NCNCN,152,1,684,Correct,15,894
15,RYRGR,184,2,621,Correct,15,733
15,VPVPV,15,1,675,Correct,15,696
15,RCRCA,225,1,692,Correct,15,695
15,KXKPK,222,2,621,Correct,15,867
15,NPNPN,151,1,1188,Correct,15,680
15,YCYCY,152,1,723,Correct,15,689
15,PXPAP,112,2,895,Incorrect,15,842
15,ZCZNZ,14,2,994,Correct,15,880
15,KYKGK,185,2,1113,Correct,15,706
15,ANLPL,231,2,1305,Correct,15,738
15,CXCPC,222,2,1594,Correct,15,906
15,YRYRY,151,1,1046,Correct,15,827
15,LGLGL,196,,,Incorrect,15,666
15,VYVLV,16,2,692,Correct,15,853
15,KVKVK,151,1,804,Correct,15,722
15,RKRKR,152,1,750,Correct,15,735
15,VXVXV,153,2,939,Incorrect,15,820
15,XAXAX,12,3,817,Correct,15,660
