Trial No,Stimulus,Trigger,Response,Response Time(ms),Correct,Block,Fixation Duration
Practice
OT Practice
1,SKSKS,15,1,1084,Correct,0,933
1,DLDUD,16,2,1125,Correct,0,829
1,PDPGP,16,2,810,Correct,0,943
1,MWMWM,15,1,772,Correct,0,732
1,FTFTF,15,1,831,Correct,0,658
1,AXAMA,16,2,918,Correct,0,691
1,RYRGR,16,2,777,Correct,0,764
1,DODOD,15,1,579,Correct,0,714
1,QTQAQ,16,2,654,Correct,0,867
1,YEYEY,15,1,673,Correct,0,660
AT Practice
1,TKTKT,15,1,672,Correct,0,888
1,SLSUS,16,2,637,Correct,0,717
1,VZVGV,7,3,795,Correct,0,750
1,XWXZX,7,3,823,Correct,0,661
1,ATATA,15,1,955,Correct,0,772
1,HXZMH,16,2,1072,Correct,0,680
1,TZTZT,7,3,656,Correct,0,716
1,UOUOU,15,1,556,Correct,0,846
1,ZTWAW,16,2,810,Correct,0,801
1,RZRER,7,3,650,Correct,0,919
2,JYJDJ,16,2,778,Correct,0,808
2,DWDWD,15,1,768,Correct,0,789
2,GNGNG,7,3,547,Correct,0,928
2,NEZEZ,16,1,739,Correct,0,739
2,RNROR,7,1,661,False,0,919
2,QTQNQ,7,2,1020,False,0,893
2,HOHON,15,1,779,Correct,0,813
2,KPKGK,16,,,False,0,690
2,DRDED,16,2,1150,Correct,0,710
2,LNLNL,7,3,676,Correct,0,816
4,GLGLG,15,1,815,Correct,0,869
4,DTDID,16,2,692,Correct,0,769
4,SMSGS,16,2,750,Correct,0,822
4,ZFZYZ,7,3,504,Correct,0,791
4,TSTFT,7,3,989,Correct,0,730
4,OFOFO,7,3,815,Correct,0,671
4,WYFGW,16,2,1044,Correct,0,761
4,WYWYW,15,3,944,False,0,846
4,MFMCM,7,3,802,Correct,0,771
4,HQHEH,16,2,901,Correct,0,865
Trials
1,D,5,3,3288,New Target,1,927
1,BYBYB,151,1,727,Correct,1,924
1,FBFBF,152,1,655,Correct,1,924
1,RKRKR,153,1,623,Correct,1,799
1,QSQNQ,161,2,1088,Correct,1,814
1,CTCFC,162,2,787,Correct,1,687
1,PDPDP,7,3,607,Correct,1,781
1,OPOFO,14,2,700,Correct,1,913
1,HLHNH,162,2,757,Correct,1,950
1,MFMFM,151,1,665,Correct,1,933
1,BTBTB,152,1,712,Correct,1,736
1,MCMPD,235,2,659,Correct,1,837
1,BMBFB,222,2,862,Correct,1,934
1,NTNZN,162,2,722,Correct,1,892
1,MXMRM,163,2,798,Correct,1,909
1,APABA,164,2,761,Correct,1,771
1,FMDMF,223,1,1138,Correct,1,858
1,QPQPQ,111,1,720,Correct,1,789
1,VQVMV,161,2,648,Correct,1,917
1,RERPR,162,2,754,Correct,1,921
1,KVKVK,151,1,732,Correct,1,797
1,AKAHA,161,2,709,Correct,1,843
1,VDVDV,8,3,776,Correct,1,684
1,DUGUG,221,1,834,Correct,1,853
1,AFAFA,111,1,630,Correct,1,879
1,GYGYG,152,1,728,Correct,1,772
1,VXVSV,161,2,648,Correct,1,746
1,DOWGW,231,2,840,Correct,1,719
1,QYQYQ,111,1,591,Correct,1,864
1,ODONO,91,3,620,Correct,1,941
1,MSMSM,13,1,654,Correct,1,730
1,GYGYG,152,1,654,Correct,1,803
1,UMUMU,153,1,732,Correct,1,847
1,BZBZB,154,1,765,Correct,1,682
1,NTNBN,161,2,647,Correct,1,805
1,GNDYG,233,2,1179,Correct,1,694
1,OCOSO,222,2,939,Correct,1,665
1,BHBFB,162,2,1085,Correct,1,890
1,QCQBQ,163,2,798,Correct,1,692
1,LQLQL,151,1,710,Correct,1,836
1,ZDZDZ,10,3,586,Correct,1,674
1,QNQZQ,14,2,746,Correct,1,848
1,CSCYC,162,2,642,Correct,1,916
1,RCRLR,163,2,753,Correct,1,781
1,FRFRF,151,1,730,Correct,1,811
1,WFWFW,152,1,665,Correct,1,781
1,QOQLQ,161,2,677,Correct,1,906
1,AWAQA,162,2,918,Correct,1,727
1,EAEAE,151,1,657,Correct,1,720
1,AGAUA,161,2,620,Correct,1,928
1,YMYMY,151,1,605,Correct,1,775
1,XQXQX,152,1,590,Correct,1,750
1,SHSGS,161,2,640,Correct,1,837
1,PDPDP,11,1,592,Incorrect,1,754
1,ZGZGZ,13,1,833,Correct,1,871
1,OXOXO,152,1,789,Correct,1,865
1,LYLYL,153,1,700,Correct,1,837
1,NKNKD,225,1,649,Correct,1,800
1,GNGNG,111,1,1145,Correct,1,738
1,OYOBO,161,2,675,Correct,1,859
1,SOSOS,151,1,769,Correct,1,855
1,VHVHV,152,1,608,Correct,1,721
1,OKOXO,161,2,717,Correct,1,866
1,EZEZE,151,1,1228,Correct,1,751
1,LDLDL,12,3,535,Correct,1,738
2,U,5,3,3380,New Target,2,791
2,BVBEB,161,2,762,Correct,2,720
2,FBFBF,151,1,646,Correct,2,733
2,RFRFR,152,1,664,Correct,2,776
2,NBNKN,161,2,803,Correct,2,903
2,MKMNM,162,2,823,Correct,2,881
2,QXQXQ,151,1,543,Correct,2,837
2,MQMYM,161,2,721,Correct,2,813
2,TGTPT,162,2,762,Correct,2,867
2,XOXOX,151,1,661,Correct,2,844
2,CUCUC,7,3,750,Correct,2,923
2,RFRFR,13,1,778,Correct,2,761
2,VYVSV,161,2,643,Correct,2,842
2,BEBAB,162,2,762,Correct,2,653
2,GKGQG,163,2,605,Correct,2,949
2,SCSCS,151,1,781,Correct,2,792
2,CTCUC,82,3,631,Correct,2,823
2,RCRCR,13,1,626,Correct,2,886
2,BOBXB,161,2,638,Correct,2,886
2,FMFAF,162,2,779,Correct,2,816
2,VDVDV,191,1,761,Correct,2,707
2,PWPWP,15,1,696,Correct,2,695
2,UQCKC,231,2,753,Correct,2,896
2,OCOCO,151,1,684,Correct,2,828
2,TNTNT,152,1,599,Correct,2,879
2,QCQGQ,161,2,966,Correct,2,840
2,WVWVW,151,1,748,Correct,2,719
2,TQTQT,152,1,696,Correct,2,785
2,FOFOF,225,1,658,Correct,2,901
2,WVWFW,161,2,786,Correct,2,773
2,SWSWS,151,1,616,Correct,2,926
2,FYFCF,161,2,676,Correct,2,916
2,SUSWS,91,3,668,Correct,2,944
2,CACHC,14,2,752,Correct,2,668
2,VDVKV,172,2,731,Correct,2,818
2,YCYCY,15,1,629,Correct,2,894
2,NMNTN,161,2,803,Correct,2,852
2,XOUKX,233,2,656,Correct,2,715
2,BPBPB,151,1,880,Correct,2,809
2,MRMRM,152,1,709,Correct,2,785
2,XMXMX,153,1,580,Correct,2,746
2,AUAHA,101,3,637,Correct,2,660
2,XKXEU,235,2,902,Correct,2,948
2,TFTFT,151,1,655,Correct,2,667
2,MDMDM,193,1,649,Correct,2,895
2,WYWMW,16,2,648,Correct,2,821
2,AZUZA,223,1,1021,Correct,2,663
2,KEKHK,161,2,686,Correct,2,757
2,LALAL,151,1,703,Correct,2,692
2,CWCDC,184,2,1040,Incorrect,2,706
2,SGSTS,16,2,874,Correct,2,942
2,PXPXP,151,1,643,Correct,2,697
2,GRGYG,161,2,726,Correct,2,719
2,PUPOP,111,3,643,Correct,2,829
2,RNRNR,14,1,721,Correct,2,804
2,KDKDK,195,1,1066,Correct,2,877
2,KTKTK,15,1,825,Correct,2,808
2,OROKO,161,2,937,Correct,2,663
2,UNANA,221,1,920,Correct,2,941
2,TATAT,151,1,745,Correct,2,906
2,AWAWA,152,1,777,Incorrect,2,673
2,RDRDR,196,1,708,Correct,2,871
2,FCFCF,15,1,635,Correct,2,946
2,ZMZMZ,152,1,701,Correct,2,744
2,BUBUB,12,3,704,Correct,2,699
3,E,5,3,11620,New Target,3,857
3,YZYZY,151,1,559,Correct,3,779
3,VFVNV,161,2,667,Correct,3,872
3,KAKAK,151,1,550,Correct,3,937
3,TKTKT,152,1,904,Correct,3,822
3,WHWTW,161,2,738,Correct,3,739
3,QEQFQ,71,3,1070,Correct,3,773
3,XNXNX,13,1,622,Correct,3,795
3,TXTXT,152,1,621,Correct,3,796
3,GLGNG,161,2,686,Correct,3,822
3,CUCTC,171,2,743,Correct,3,884
3,FAFQF,16,2,820,Correct,3,784
3,ZLZLZ,151,1,651,Correct,3,800
3,YZYZY,152,1,586,Correct,3,781
3,CYCYC,153,1,591,Correct,3,716
3,HUHUH,192,1,838,Correct,3,702
3,OSORO,16,2,714,Correct,3,929
3,YOYOY,151,1,585,Correct,3,761
3,CECEC,8,3,588,Correct,3,760
3,VNENV,223,1,1024,Correct,3,695
3,KQKFK,222,2,646,Correct,3,703
3,XLXLE,225,1,895,Correct,3,924
3,QUQUQ,193,1,743,Correct,3,709
3,SWSLS,16,2,660,Correct,3,743
3,NBNPN,162,2,754,Correct,3,801
3,SGSGS,151,1,623,Correct,3,717
3,FBFBF,152,1,597,Correct,3,652
3,PFPFP,153,1,600,Correct,3,777
3,AGASA,161,1,671,Incorrect,3,701
3,KEKEK,9,3,731,Correct,3,795
3,CWCOC,14,2,753,Correct,3,941
3,HXHXH,151,1,735,Correct,3,778
3,NUNZN,174,2,1192,Correct,3,913
3,QMQVQ,16,2,678,Correct,3,723
3,SQSQS,151,1,807,Correct,3,768
3,ERNFN,231,2,1086,Incorrect,3,818
3,AQANA,222,2,654,Correct,3,729
3,OBOEO,102,3,617,Correct,3,884
3,SYSXS,14,2,702,Correct,3,705
3,QBQHQ,162,2,832,Correct,3,698
3,XQXQX,151,1,644,Correct,3,875
3,KUKFK,175,2,998,Correct,3,714
3,RKRKR,15,2,708,Incorrect,3,921
3,GFGFG,152,1,672,Correct,3,825
3,YBYVY,161,2,923,Correct,3,883
3,SPSTS,162,2,659,Correct,3,759
3,AQAQA,151,1,562,Correct,3,797
3,EPVPV,221,1,970,Correct,3,675
3,CQCEC,112,3,906,Correct,3,861
3,RFRCR,14,2,859,Correct,3,885
3,CPCVC,162,2,848,Correct,3,872
3,RXRCR,163,2,713,Correct,3,704
3,TNTLT,164,2,995,Correct,3,850
3,BSBSB,151,1,682,Correct,3,672
3,ZBZBZ,152,1,587,Correct,3,726
3,OYOUO,186,2,625,Correct,3,707
3,AKAOA,16,2,671,Correct,3,867
3,YQEWY,233,2,907,Correct,3,808
3,ZMZMZ,111,1,655,Correct,3,822
3,SWSTS,161,2,607,Correct,3,767
3,MFMQE,235,2,719,Correct,3,790
3,RSRLR,222,2,670,Correct,3,748
3,QEQWQ,121,3,537,Correct,3,921
4,K,5,3,12939,New Target,4,691
4,CACHC,161,2,728,Correct,4,723
4,RWRCR,162,2,681,Correct,4,683
4,FOFVF,163,2,695,Correct,4,770
4,LGLGL,151,1,601,Correct,4,678
4,PLPLP,152,1,655,Correct,4,661
4,NPNPN,153,1,570,Correct,4,939
4,SGSZS,161,2,669,Correct,4,794
4,DNDMD,162,1,617,Incorrect,4,851
4,OCOAK,235,2,695,Correct,4,847
4,VYVYV,111,1,677,Correct,4,799
4,RLRLR,152,1,614,Correct,4,716
4,DKDKD,7,3,852,Correct,4,862
4,ZLZLZ,13,1,716,Correct,4,744
4,FZFZF,152,1,618,Correct,4,737
4,CFCFC,153,1,616,Correct,4,838
4,OZOZO,154,1,731,Correct,4,715
4,XEXEX,191,1,810,Correct,4,735
4,NVNFN,16,2,670,Correct,4,946
4,AYAYA,151,1,575,Correct,4,722
4,BNBVB,161,2,714,Correct,4,929
4,AHKXA,233,2,1238,Correct,4,816
4,WFWFW,111,1,683,Correct,4,835
4,SNSNS,152,1,858,Correct,4,809
4,FKFMF,81,3,606,Correct,4,837
4,DZDYD,14,2,771,Correct,4,732
4,GXGDG,162,2,818,Correct,4,679
4,AYAYK,225,1,908,Correct,4,765
4,FPFGF,222,2,705,Correct,4,863
4,WRWRW,151,1,658,Correct,4,662
4,YPYEY,182,2,724,Correct,4,725
4,SQSQS,15,1,977,Correct,4,780
4,WZWPW,161,2,602,Correct,4,698
4,CKCKC,9,3,799,Correct,4,705
4,BWBVB,14,2,662,Correct,4,842
4,HMHMH,151,1,611,Correct,4,882
4,VEVNV,173,2,577,Correct,4,799
4,GMGVG,16,2,709,Correct,4,740
4,XHXKX,102,3,672,Correct,4,893
4,QXQRQ,14,2,590,Correct,4,802
4,LQLQL,151,1,545,Correct,4,752
4,ALELA,223,1,724,Correct,4,824
4,TPTKT,222,3,725,Incorrect,4,690
4,GEGEG,194,1,593,Correct,4,752
4,ZNZNZ,15,1,882,Correct,4,799
4,YZYZY,152,1,830,Correct,4,650
4,SYSYS,153,1,564,Correct,4,859
4,ZSZSZ,221,1,598,Correct,4,760
4,LALGL,222,2,668,Correct,4,658
4,CYCTC,162,2,1056,Correct,4,680
4,WEWEW,195,1,612,Correct,4,663
4,CHCSC,16,2,599,Correct,4,721
4,GWGXG,162,2,696,Correct,4,781
4,FGFGF,151,1,601,Correct,4,734
4,QWQKQ,112,3,617,Correct,4,832
4,OQOFO,14,2,701,Correct,4,685
4,PMPEP,186,2,658,Correct,4,948
4,WBWPW,16,2,659,Correct,4,767
4,KCDHD,231,2,580,Correct,4,655
4,RSRWR,222,2,627,Correct,4,920
4,HGHGH,151,1,722,Correct,4,832
4,SKSKS,12,3,618,Correct,4,908
5,L,5,3,5818,New Target,5,781
5,PDPDP,151,1,544,Correct,5,834
5,WAWAW,152,1,526,Correct,5,899
5,HWHWH,153,1,595,Correct,5,787
5,SHSHS,154,1,536,Correct,5,667
5,BRBWB,161,2,601,Correct,5,817
5,FPFBF,162,2,718,Correct,5,729
5,GAGAG,151,1,520,Correct,5,838
5,QVQGQ,161,2,622,Correct,5,700
5,CLCLC,7,3,530,Correct,5,681
5,XWXWX,13,1,530,Correct,5,884
5,AUAUA,152,1,585,Correct,5,684
5,CKCKC,191,1,1024,Correct,5,658
5,FNFCF,16,2,972,Correct,5,915
5,UHUQU,162,2,637,Correct,5,849
5,FZFZF,151,1,593,Correct,5,659
5,THLHT,223,1,776,Correct,5,673
5,CUCLC,82,3,804,Correct,5,826
5,BSBSB,13,1,544,Correct,5,707
5,FDFBF,161,2,693,Correct,5,786
5,LXRXR,221,1,606,Correct,5,899
5,ZOZNZ,222,2,572,Correct,5,890
5,UZUZU,151,1,576,Correct,5,750
5,AQATA,161,2,947,Correct,5,766
5,UNUPU,162,2,690,Correct,5,907
5,RVRKR,182,2,673,Correct,5,796
5,URURU,15,1,749,Correct,5,907
5,VLVLV,9,3,676,Correct,5,871
5,DXDVD,14,2,622,Correct,5,935
5,PZPZP,151,1,554,Correct,5,875
5,LXUMU,231,2,593,Correct,5,722
5,AKADA,173,2,548,Incorrect,5,761
5,HYHYH,15,1,516,Correct,5,859
5,AVAVA,152,1,506,Correct,5,764
5,TUTUT,153,1,563,Correct,5,669
5,XYXWX,161,2,617,Correct,5,724
5,TKTDT,174,2,511,Correct,5,651
5,NXNYN,16,2,770,Correct,5,865
5,USUCU,162,2,655,Correct,5,796
5,ZMZMZ,151,1,539,Correct,5,852
5,WRWAW,161,2,611,Correct,5,680
5,GWGXG,162,2,466,Correct,5,852
5,MUMYL,235,2,589,Correct,5,680
5,CNCNC,111,2,686,Incorrect,5,798
5,RLRLR,10,3,703,Correct,5,716
5,UAUWU,14,2,568,Correct,5,909
5,FXLRF,233,2,650,Correct,5,822
5,PFPFP,111,1,617,Correct,5,770
5,HPHPH,152,1,595,Correct,5,946
5,GKGKG,195,1,616,Correct,5,678
5,ZUZTZ,16,2,603,Correct,5,785
5,AVASA,162,2,588,Correct,5,833
5,PRPRP,151,1,797,Correct,5,842
5,YPYPY,152,1,564,Correct,5,846
5,ZLZOZ,111,3,665,Correct,5,766
5,WMWSW,14,2,646,Correct,5,848
5,RZRXR,162,2,683,Correct,5,702
5,QWQWQ,151,1,595,Correct,5,928
5,ZKZKZ,196,1,675,Correct,5,844
5,CVCVL,225,1,625,Incorrect,5,783
5,NMNMN,111,1,614,Correct,5,674
5,TRTGT,161,2,677,Correct,5,863
5,CTCTC,151,1,610,Correct,5,855
5,RKRLR,122,3,691,Correct,5,806
6,B,5,3,11806,New Target,6,875
6,YMYGY,161,2,717,Correct,6,925
6,HUHRH,162,2,634,Correct,6,749
6,WHWHW,151,1,660,Correct,6,901
6,MGMRM,161,2,670,Correct,6,908
6,ZVZWZ,162,2,757,Correct,6,936
6,RCRTR,163,2,610,Correct,6,764
6,DSDRD,164,2,644,Correct,6,752
6,VTBDV,233,2,538,Correct,6,679
6,DSDHD,222,2,585,Correct,6,899
6,QEQEQ,151,1,535,Correct,6,873
6,XOXQX,161,1,672,Incorrect,6,704
6,RARBR,72,3,912,Correct,6,768
6,GMGMG,13,1,610,Correct,6,869
6,ELERE,171,2,680,Correct,6,686
6,HZHUH,16,2,579,Correct,6,871
6,RHRVR,162,2,624,Correct,6,935
6,YBYBY,8,3,846,Correct,6,829
6,PYPVP,14,2,890,Correct,6,691
6,TLTLT,192,1,754,Correct,6,716
6,QTQTQ,15,1,713,Correct,6,919
6,NXNVN,161,2,650,Correct,6,718
6,QNQNQ,151,1,671,Correct,6,676
6,FUFHF,161,2,660,Correct,6,680
6,YVYFB,235,2,752,Incorrect,6,911
6,WQWSW,222,2,564,Correct,6,936
6,HNHLH,193,2,653,Incorrect,6,674
6,OSOTO,16,2,600,Correct,6,922
6,GWGOG,162,2,604,Correct,6,731
6,UBUBU,9,3,735,Correct,6,803
6,CWCWC,13,1,656,Correct,6,684
6,OCOEO,161,2,778,Correct,6,942
6,MNMNM,151,1,920,Correct,6,669
6,XLXLX,194,1,655,Correct,6,710
6,AYAYA,15,1,559,Correct,6,817
6,FUFAF,161,2,737,Correct,6,780
6,ANAQA,162,2,687,Correct,6,750
6,BUPWP,231,2,683,Correct,6,845
6,WSWSW,111,1,597,Correct,6,945
6,FRFRF,152,1,580,Correct,6,838
6,AUAUA,153,1,581,Correct,6,831
6,GMGCG,161,2,663,Correct,6,802
6,HLHWH,175,2,679,Correct,6,778
6,PQBQP,223,1,610,Correct,6,852
6,AZABA,102,3,713,Correct,6,677
6,CWCVC,14,2,694,Correct,6,829
6,FAFAF,151,1,695,Correct,6,711
6,VMVSV,161,2,632,Correct,6,672
6,GBGBG,11,3,578,Correct,6,932
6,FOFNF,14,2,577,Correct,6,893
6,DSDSD,151,1,664,Correct,6,708
6,YDYDY,152,1,585,Correct,6,716
6,FOFOF,153,1,573,Correct,6,780
6,CHCHB,225,2,626,Incorrect,6,689
6,ZCZCZ,111,1,627,Correct,6,751
6,DZDGD,161,2,707,Correct,6,855
6,MLMEM,176,2,764,Correct,6,834
6,PXPXP,15,1,662,Correct,6,852
6,QYQYQ,152,1,568,Correct,6,724
6,GRGCG,161,2,647,Correct,6,880
6,QVQVQ,151,1,873,Correct,6,696
6,XYXNX,161,2,596,Correct,6,711
6,BHMHM,221,1,790,Correct,6,806
6,CBCBC,12,3,622,Correct,6,907
7,W,5,3,6514,New Target,7,936
7,QKQKQ,151,1,664,Correct,7,767
7,DUDQD,161,2,602,Correct,7,670
7,OKOKO,151,1,600,Correct,7,889
7,EOEOE,152,1,538,Correct,7,806
7,URUPU,161,2,656,Correct,7,714
7,GMGAG,162,2,883,Correct,7,704
7,HVWDH,233,2,1091,Correct,7,945
7,MHMHM,111,1,677,Correct,7,706
7,YXYVY,161,2,642,Correct,7,850
7,FNFNF,151,1,546,Correct,7,749
7,AWAWA,7,3,673,Correct,7,941
7,ZAZAZ,13,1,556,Correct,7,918
7,OYOYO,152,1,562,Correct,7,731
7,SQSQS,153,1,640,Correct,7,903
7,OSOSO,154,1,587,Correct,7,854
7,FCFBF,181,2,585,Correct,7,930
7,EUEUE,15,1,520,Correct,7,851
7,CYCGC,161,2,650,Correct,7,899
7,SZSUS,162,2,614,Correct,7,832
7,OFOFO,151,1,516,Correct,7,878
7,RVRUR,161,2,551,Correct,7,799
7,ZBZBZ,192,1,985,Correct,7,821
7,UCUTU,16,2,625,Correct,7,673
7,NWNWN,8,3,675,Correct,7,752
7,XNXUX,14,2,593,Correct,7,759
7,CXCNC,162,2,655,Correct,7,837
7,AUAUW,225,1,714,Correct,7,926
7,HEHEH,111,1,610,Correct,7,948
7,UFWFU,223,1,1025,Correct,7,735
7,HVHEH,222,2,1171,Correct,7,789
7,YBYBY,193,1,664,Correct,7,919
7,OYOYO,15,1,537,Correct,7,830
7,TMTWT,91,3,591,Correct,7,705
7,HTHTH,13,1,528,Correct,7,820
7,UHUHU,152,1,672,Correct,7,895
7,EVEBE,184,2,573,Incorrect,7,845
7,HZHMH,16,2,1028,Correct,7,669
7,VHVCV,162,2,886,Correct,7,811
7,WAGDG,231,2,715,Correct,7,820
7,PFPFP,111,1,537,Correct,7,727
7,OQOQO,152,1,737,Correct,7,723
7,TWTWT,10,3,707,Correct,7,676
7,VKVDV,14,2,750,Correct,7,881
7,WPAPA,221,1,669,Correct,7,715
7,HBHBH,195,1,604,Correct,7,675
7,ZMZAZ,16,2,748,Correct,7,757
7,SYSYS,151,1,548,Correct,7,879
7,FZFXF,161,2,518,Correct,7,811
7,SMSMS,151,1,586,Correct,7,791
7,XOXOX,152,1,669,Correct,7,790
7,FWFWF,11,3,554,Correct,7,781
7,ENEBE,186,2,617,Correct,7,936
7,ZVZGZ,16,2,615,Correct,7,841
7,EZEZE,151,1,541,Correct,7,659
7,TOTEW,235,2,700,Correct,7,942
7,PDPDP,111,1,622,Correct,7,663
7,TKTWT,122,3,708,Correct,7,681
8,M,5,3,10908,New Target,8,924
8,VYVNV,161,2,677,Correct,8,680
8,KLKTK,162,2,568,Correct,8,687
8,NQNQN,151,1,533,Correct,8,950
8,VHVEV,161,2,572,Correct,8,708
8,XNXNM,225,2,655,Incorrect,8,762
8,USUVU,222,2,705,Correct,8,722
8,KRKZK,162,2,654,Correct,8,750
8,TMTET,71,3,572,Correct,8,854
8,GFGFG,13,1,504,Correct,8,932
8,OPODO,161,2,642,Correct,8,664
8,KCKCK,151,1,578,Correct,8,752
8,VTVTV,152,1,547,Correct,8,837
8,LSLSL,153,1,582,Correct,8,795
8,DLDLD,154,1,531,Correct,8,868
8,NYNYN,155,1,875,Correct,8,698
8,DCMAD,233,2,582,Correct,8,710
8,TDTDT,111,1,998,Correct,8,834
8,GVGRG,161,2,647,Correct,8,814
8,ZUZUZ,151,1,612,Correct,8,881
8,OGOVO,161,2,621,Correct,8,688
8,PWPTP,171,2,1227,Correct,8,783
8,KLKDM,235,2,693,Correct,8,844
8,SMSMS,8,3,781,Correct,8,862
8,PRPSP,14,2,628,Correct,8,906
8,DVDYD,162,2,627,Correct,8,864
8,PXPMP,92,3,691,Correct,8,759
8,GDGLG,14,2,656,Correct,8,823
8,SWSWS,192,1,606,Correct,8,884
8,GDGLG,16,2,591,Correct,8,817
8,MTCYC,231,2,884,Correct,8,732
8,GSGSG,111,1,554,Correct,8,847
8,YQYTY,161,2,663,Correct,8,949
8,ZLZPZ,162,2,568,Correct,8,703
8,HZHZH,151,1,585,Correct,8,858
8,MSOSO,221,1,793,Correct,8,885
8,HWHWH,193,1,815,Correct,8,867
8,PYPAP,16,2,665,Correct,8,784
8,SPSVS,162,2,632,Correct,8,775
8,XLXLX,151,1,1053,Correct,8,715
8,YMYMY,10,3,590,Correct,8,799
8,HYHYH,13,1,562,Correct,8,692
8,OWOGO,174,2,864,Correct,8,945
8,PHPOP,16,2,603,Correct,8,663
8,NPNSN,162,2,794,Correct,8,847
8,HVMVH,223,2,676,Incorrect,8,795
8,THTFT,222,2,558,Correct,8,934
8,STSTS,151,1,543,Correct,8,801
8,AGAMA,112,3,614,Correct,8,711
8,PEPEP,13,1,539,Correct,8,718
8,ZWZWZ,195,1,556,Correct,8,749
8,ODOZO,16,2,592,Correct,8,750
8,LRLOL,162,2,978,Correct,8,810
8,GZGZG,151,1,565,Correct,8,818
8,TGTGT,152,1,534,Correct,8,827
8,CUCSC,161,2,522,Correct,8,822
8,SCSCS,151,1,545,Correct,8,732
8,AWAWA,196,1,596,Correct,8,804
8,NLNLN,15,1,563,Correct,8,848
8,VNVNV,152,1,752,Correct,8,895
8,GMGMG,12,3,576,Correct,8,740
9,S,5,3,9457,New Target,9,673
9,NBNBN,151,1,473,Correct,9,663
9,KVKZK,161,2,596,Correct,9,671
9,LBLBL,151,1,470,Correct,9,783
9,XLXLX,152,1,520,Correct,9,886
9,ZXZXZ,153,1,549,Correct,9,939
9,KNKZK,161,2,645,Correct,9,887
9,TQTAT,162,2,616,Correct,9,767
9,CLCUC,163,2,686,Correct,9,688
9,ZCZFZ,164,2,855,Correct,9,909
9,NSNSN,7,3,643,Correct,9,707
9,HGHGH,13,1,559,Correct,9,926
9,THTDT,161,2,499,Correct,9,789
9,VMVMV,191,1,491,Correct,9,688
9,CVCDC,16,2,580,Correct,9,737
9,ZAZRZ,162,2,582,Correct,9,765
9,XTXZX,163,2,468,Correct,9,901
9,OXOXO,151,1,617,Correct,9,799
9,DCDSD,82,3,671,Correct,9,661
9,PQPDP,14,2,705,Correct,9,674
9,ZMZMZ,192,1,491,Incorrect,9,860
9,BEBEB,15,1,597,Correct,9,659
9,FCFCF,152,1,559,Correct,9,922
9,YAYBY,161,2,534,Correct,9,739
9,KNKVK,162,2,548,Correct,9,947
9,SEPCP,231,2,674,Correct,9,917
9,OPOPO,111,1,543,Correct,9,830
9,XMXMX,193,1,609,Correct,9,869
9,KEKEK,15,1,543,Correct,9,802
9,USUSU,9,3,518,Correct,9,669
9,YHSHY,223,1,668,Correct,9,733
9,UPUPU,111,1,587,Correct,9,811
9,XZXZX,152,1,556,Correct,9,838
9,KGKXK,161,2,546,Correct,9,740
9,QEQPQ,162,2,643,Correct,9,846
9,NUNUS,225,1,915,Correct,9,777
9,BXBXB,111,1,572,Correct,9,718
9,SQHQH,221,1,560,Correct,9,746
9,ACACA,111,1,511,Correct,9,856
9,KMKBK,174,2,606,Correct,9,941
9,EGSVE,233,2,624,Correct,9,789
9,HYHYH,111,1,895,Correct,9,825
9,LULUL,152,1,623,Correct,9,924
9,AEAEA,153,1,737,Correct,9,801
9,TXTST,102,3,554,Correct,9,880
9,FDFCF,14,2,640,Correct,9,669
9,KVKVK,151,1,690,Correct,9,761
9,UBUCU,161,2,628,Correct,9,718
9,GAGMG,185,2,810,Correct,9,698
9,UXUGU,16,2,715,Correct,9,655
9,HOHOH,151,1,804,Correct,9,883
9,QUQTS,235,2,683,Correct,9,859
9,YZYZY,111,1,551,Correct,9,865
9,BSBSB,11,3,492,Correct,9,748
9,FEFEF,13,1,516,Correct,9,730
9,GMGMG,196,1,560,Correct,9,941
9,TGTXT,16,2,822,Correct,9,763
9,LSLFL,121,3,655,Correct,9,795
10,Q,5,3,8971,New Target,10,939
10,ZHZOZ,161,2,653,Correct,10,707
10,RZRZR,151,1,525,Correct,10,828
10,BFBFB,152,1,628,Correct,10,674
10,GBGBG,153,1,578,Correct,10,903
10,OGOXO,161,2,632,Correct,10,716
10,UEQOU,233,2,1198,Correct,10,693
10,BOBRB,222,2,669,Correct,10,721
10,DYDVD,162,2,707,Correct,10,917
10,COCOC,151,1,676,Correct,10,695
10,YZYQY,72,3,918,Correct,10,721
10,FHFWF,14,2,752,Correct,10,662
10,ANANQ,225,1,838,Correct,10,914
10,ZAZAZ,111,1,525,Correct,10,804
10,ERESE,181,2,608,Incorrect,10,816
10,XTXOX,16,3,673,Incorrect,10,789
10,NXNXN,151,1,991,Correct,10,844
10,OVOZO,161,2,1004,Correct,10,928
10,WUWOW,162,2,651,Correct,10,867
10,FWFVF,163,2,686,Correct,10,681
10,NSNKN,172,2,685,Incorrect,10,769
10,VWVNV,16,2,630,Correct,10,898
10,XZXZX,151,1,534,Correct,10,810
10,VQVQV,8,3,725,Correct,10,883
10,GYGPG,14,2,692,Correct,10,741
10,OBOSO,183,2,576,Correct,10,821
10,YUYUY,15,1,540,Correct,10,939
10,NDNQN,92,3,685,Correct,10,835
10,FCFHF,14,2,567,Correct,10,946
10,EFEFE,151,1,867,Correct,10,924
10,NSNSN,194,1,699,Correct,10,747
10,YPYFY,16,2,601,Correct,10,749
10,ZKZKZ,151,1,511,Correct,10,682
10,QZQDR,231,2,1393,Correct,10,875
10,AOAHA,222,2,627,Correct,10,804
10,BGBGB,151,1,640,Correct,10,882
10,HQHQH,10,3,572,Correct,10,899
10,UHUBU,14,2,583,Correct,10,932
10,KRKSK,185,2,655,Correct,10,658
10,TOTOT,15,1,512,Correct,10,794
10,APAPA,152,1,511,Correct,10,915
10,VDVYV,161,2,504,Correct,10,690
10,FOFTF,162,2,675,Correct,10,658
10,QVXVX,221,1,1043,Correct,10,757
10,GHGRG,222,2,600,Correct,10,656
10,LFLFL,151,1,597,Correct,10,858
10,HLHLH,152,1,597,Correct,10,814
10,KWQWK,223,1,595,Correct,10,868
10,YQYQY,11,3,437,Correct,10,771
10,ADADA,13,1,529,Correct,10,722
10,OGOAO,161,2,555,Correct,10,651
10,EOEFE,162,2,593,Correct,10,666
10,USUSU,196,1,537,Correct,10,678
10,VFVAQ,235,2,528,Correct,10,681
10,DZDXD,222,2,534,Correct,10,751
10,HVHDH,162,2,527,Correct,10,675
10,DWDWD,151,1,696,Correct,10,708
10,GBGBG,152,1,643,Correct,10,912
10,AOADA,161,2,584,Correct,10,692
10,GQGQG,12,3,683,Correct,10,756
11,T,5,3,5089,New Target,11,806
11,KEKEK,151,1,530,Correct,11,904
11,LBLBL,152,1,505,Correct,11,724
11,HEHVH,161,2,547,Correct,11,744
11,FRFOF,162,2,683,Correct,11,673
11,EBEBE,151,1,537,Correct,11,781
11,HTHTH,7,3,639,Correct,11,724
11,MAMDM,14,2,637,Correct,11,848
11,VOVOV,151,1,514,Correct,11,652
11,XQXQX,191,3,662,Incorrect,11,859
11,PBPAP,16,2,601,Correct,11,709
11,MXMLM,162,2,1170,Correct,11,652
11,TCNCN,221,1,573,Correct,11,745
11,OBONO,222,2,570,Correct,11,929
11,RCROR,162,2,590,Correct,11,758
11,PBPRT,235,2,801,Correct,11,720
11,WFWVW,222,2,813,Correct,11,700
11,LTLUL,81,3,760,Correct,11,805
11,ZDZPZ,14,2,615,Correct,11,767
11,NCNQN,182,2,564,Correct,11,831
11,XZXNX,16,2,548,Correct,11,879
11,GOGOG,151,2,732,Incorrect,11,676
11,DFDFD,152,1,669,Correct,11,677
11,VWTRV,233,2,969,Correct,11,842
11,CFCVC,222,2,573,Correct,11,716
11,PAPAP,151,1,624,Correct,11,809
11,EQEYE,173,2,546,Correct,11,826
11,DNDED,16,2,577,Correct,11,940
11,PTPTP,9,3,645,Correct,11,738
11,ZCZCZ,13,1,595,Correct,11,844
11,MZMZM,152,1,578,Correct,11,828
11,ULUVU,161,2,578,Correct,11,807
11,BRBGB,162,2,594,Correct,11,912
11,MLMLT,225,2,838,Incorrect,11,682
11,GQGQG,194,1,658,Correct,11,678
11,HGHGH,15,1,549,Correct,11,723
11,RVRBR,161,2,643,Correct,11,891
11,ZOZDZ,162,2,677,Correct,11,709
11,VYVYV,151,1,564,Correct,11,749
11,RVRVR,152,1,551,Correct,11,812
11,OTOTO,10,3,639,Correct,11,701
11,PXPXP,13,1,565,Correct,11,661
11,MCMCM,152,1,536,Correct,11,778
11,YUYUY,153,1,563,Correct,11,679
11,DYDYD,154,1,518,Correct,11,780
11,WDWDW,155,1,527,Correct,11,670
11,DYDQD,185,2,594,Correct,11,885
11,KDKNK,16,2,580,Correct,11,740
11,HOHOH,151,1,534,Correct,11,798
11,TWEZE,231,2,528,Correct,11,664
11,NANHN,222,2,544,Correct,11,896
11,VQVWV,176,2,654,Correct,11,910
11,ZRZRZ,15,1,702,Correct,11,770
11,VTVGV,111,3,832,Correct,11,672
11,HWHVH,14,2,681,Correct,11,846
11,EHEHE,151,1,693,Correct,11,805
11,VRVLV,161,2,627,Correct,11,813
11,ACACA,151,1,596,Correct,11,770
11,WBTBW,223,1,550,Correct,11,804
11,UTUTU,12,3,587,Correct,11,729
12,O,5,3,9018,New Target,12,891
12,UXULU,161,2,677,Correct,12,739
12,MUMDM,162,2,658,Correct,12,867
12,VLVLV,151,1,563,Correct,12,665
12,BDBHB,161,2,595,Correct,12,895
12,KEKEK,151,1,516,Correct,12,830
12,WKWKW,152,1,603,Correct,12,758
12,AWAWA,153,1,585,Correct,12,873
12,EVEVE,154,1,598,Correct,12,919
12,PHPOP,72,3,558,Correct,12,659
12,WXWAW,14,2,588,Correct,12,902
12,PWPHP,162,2,577,Correct,12,742
12,ZTZTZ,191,1,554,Correct,12,663
12,HVHMH,16,2,647,Correct,12,930
12,DKDKD,151,1,625,Correct,12,938
12,NPNPN,152,1,517,Correct,12,677
12,ZRZNZ,161,2,630,Correct,12,896
12,OGCGC,221,1,728,Correct,12,817
12,LFLFL,151,1,616,Correct,12,723
12,WXWXW,152,1,588,Correct,12,682
12,KPKPK,153,1,555,Correct,12,889
12,FRFKF,161,2,896,Correct,12,720
12,EOEOE,8,3,570,Correct,12,720
12,GEGEG,13,1,586,Correct,12,876
12,LKLBO,235,2,554,Correct,12,805
12,MLMZM,161,2,649,Correct,12,835
12,ASACA,162,2,591,Correct,12,659
12,LOLOL,9,3,594,Correct,12,722
12,XLXLX,13,1,626,Correct,12,852
12,WHWHW,152,1,787,Correct,12,758
12,ETETE,192,1,527,Correct,12,790
12,OXGZG,231,2,519,Correct,12,695
12,CZCZC,151,1,541,Correct,12,754
12,LGLGL,152,1,549,Correct,12,704
12,VLVPV,161,2,564,Correct,12,918
12,UYUYO,225,1,533,Correct,12,824
12,SMSMS,151,1,524,Correct,12,673
12,RTRTR,193,1,559,Correct,12,776
12,KVKHK,16,2,541,Correct,12,887
12,ROROR,101,3,596,Correct,12,739
12,PRPRP,13,1,511,Correct,12,941
12,LALHL,161,2,578,Correct,12,877
12,PLPLP,151,1,558,Correct,12,911
12,CTCTC,194,1,588,Correct,12,894
12,XGXAX,16,2,766,Correct,12,803
12,NMNMN,151,1,525,Correct,12,689
12,HLHZH,161,2,578,Correct,12,764
12,YOYOY,11,3,616,Correct,12,737
12,PZOZP,223,1,571,Correct,12,816
12,EAEAE,151,1,572,Correct,12,839
12,GXGVG,161,2,527,Correct,12,744
12,HMHGH,162,2,531,Correct,12,760
12,GTGTG,195,1,504,Correct,12,809
12,LMLGL,16,2,502,Correct,12,922
12,ECEDE,162,2,586,Correct,12,844
12,PSPKP,163,2,699,Correct,12,849
12,MCOBM,233,2,820,Correct,12,938
12,EMEME,151,1,491,Correct,12,818
12,CTCRC,176,2,523,Correct,12,923
12,NSNSN,15,2,479,Incorrect,12,814
12,MWMVM,161,2,659,Correct,12,872
12,CPCOC,122,3,534,Correct,12,690
13,H,5,3,7500,New Target,13,746
13,VUVUV,151,1,682,Correct,13,667
13,YVYVY,152,1,550,Correct,13,806
13,XUXUX,153,1,601,Correct,13,732
13,NRNWN,161,2,557,Correct,13,719
13,MZMKM,162,2,591,Correct,13,803
13,HLVLV,221,2,1007,Incorrect,13,897
13,DXDGD,222,2,603,Correct,13,909
13,LHLAL,71,3,656,Correct,13,666
13,YMYFY,14,2,677,Correct,13,673
13,AOARA,171,2,591,Correct,13,907
13,ZKZAZ,16,2,740,Correct,13,651
13,RZRZR,151,1,644,Correct,13,694
13,NFNAN,161,2,562,Correct,13,825
13,KUKEK,162,2,569,Correct,13,694
13,XAXYX,163,2,690,Correct,13,676
13,LKLUL,164,2,546,Correct,13,774
13,NLNLN,151,1,548,Correct,13,807
13,WDWOW,182,2,515,Correct,13,901
13,EWEWE,15,1,582,Correct,13,878
13,VHVHV,8,3,618,Correct,13,718
13,PVPVP,13,1,638,Correct,13,749
13,CRCSC,161,2,595,Correct,13,695
13,NWNWN,151,1,855,Correct,13,701
13,SQSQS,152,1,706,Correct,13,725
13,AEASA,161,2,531,Correct,13,704
13,GOGOG,193,1,586,Correct,13,704
13,QGQGQ,15,1,559,Correct,13,726
13,FMFMF,152,1,545,Correct,13,809
13,PFPFP,153,1,544,Correct,13,898
13,SYSHS,92,3,735,Correct,13,850
13,QGQKQ,14,2,623,Correct,13,686
13,ELELH,225,1,576,Correct,13,742
13,MRMRM,111,1,678,Correct,13,658
13,GUGNG,161,2,725,Correct,13,792
13,ZOZOZ,194,1,518,Correct,13,710
13,EZEZE,15,1,592,Correct,13,672
13,FHFKF,101,3,703,Correct,13,836
13,GSHLG,233,2,623,Correct,13,757
13,FKFXF,222,2,589,Correct,13,885
13,DEDYD,162,2,740,Correct,13,681
13,UXUVU,163,2,557,Correct,13,881
13,MCMOM,185,2,784,Correct,13,780
13,BXBUH,235,2,701,Correct,13,730
13,DMDMD,111,1,981,Correct,13,922
13,BXBDB,161,2,665,Correct,13,782
13,AVAVA,151,1,564,Correct,13,879
13,QUHUQ,223,1,850,Correct,13,937
13,BRBRB,111,1,672,Correct,13,670
13,ZHZHZ,11,3,643,Correct,13,692
13,VZVZV,13,1,535,Correct,13,686
13,HBUQU,231,2,830,Correct,13,671
13,EUEUE,111,1,643,Correct,13,875
13,RQRDR,161,2,625,Correct,13,853
13,COCOC,196,1,591,Correct,13,840
13,VNVSV,16,2,579,Correct,13,754
13,WHWHW,12,3,552,Correct,13,752
14,G,5,3,11381,New Target,14,941
14,EBEBE,151,1,577,Correct,14,887
14,QPQUQ,161,2,725,Correct,14,775
14,XDXDX,151,1,574,Correct,14,824
14,YXYXY,152,1,502,Correct,14,676
14,MBMBM,153,1,544,Correct,14,667
14,QMQKQ,161,2,625,Correct,14,873
14,EYETE,162,2,722,Correct,14,755
14,UKUKU,151,1,510,Correct,14,800
14,MPGPM,223,1,557,Correct,14,917
14,ANANA,111,1,719,Correct,14,817
14,UAUAU,152,1,539,Correct,14,792
14,ADASA,161,2,579,Correct,14,666
14,LKLGL,72,3,745,Correct,14,722
14,UWUWU,13,1,515,Correct,14,869
14,MCMUM,161,2,733,Correct,14,672
14,YMYMY,151,1,458,Correct,14,722
14,RHRWR,171,2,557,Correct,14,859
14,DUDCD,16,2,670,Correct,14,852
14,ASAGA,82,3,752,Correct,14,708
14,DLDLD,13,1,564,Correct,14,950
14,ZXZDZ,161,2,617,Correct,14,685
14,ULUFU,162,2,634,Correct,14,797
14,DPDPG,225,1,709,Correct,14,866
14,KHKTK,172,2,623,Correct,14,835
14,ZKZUZ,16,2,690,Correct,14,746
14,AKALA,162,2,634,Correct,14,882
14,CNCNC,151,1,615,Correct,14,831
14,PGPGP,9,3,683,Correct,14,667
14,UPUPU,13,1,569,Correct,14,836
14,FSGWF,233,2,590,Correct,14,751
14,CACVC,222,2,643,Correct,14,708
14,FTFTF,151,1,587,Correct,14,950
14,KFKCK,161,2,589,Correct,14,821
14,ZEZHZ,183,2,609,Correct,14,682
14,NSNSN,15,1,680,Correct,14,651
14,ENENE,152,1,581,Correct,14,853
14,LXLWG,235,2,747,Correct,14,671
14,SMSUS,222,2,730,Correct,14,760
14,ZHZHZ,194,2,697,Incorrect,14,714
14,PFPFP,15,1,539,Correct,14,656
14,BABAB,152,1,633,Correct,14,922
14,XPXUX,161,2,636,Correct,14,675
14,ACACA,151,1,683,Correct,14,753
14,RGRGR,10,3,582,Correct,14,876
14,URURU,13,1,579,Correct,14,921
14,PKPTP,161,2,628,Correct,14,830
14,SGSGS,11,3,662,Correct,14,716
14,GZYVY,231,2,567,Correct,14,726
14,UDUTU,222,2,646,Correct,14,918
14,VHVHV,195,1,597,Correct,14,831
14,LWLNL,16,2,519,Correct,14,746
14,GKPKP,221,1,668,Correct,14,757
14,SQSPS,222,2,557,Correct,14,683
14,WNWNW,151,1,525,Correct,14,860
14,MHMTM,176,2,871,Incorrect,14,654
14,RZRZR,15,1,524,Correct,14,772
14,CGCDC,121,3,710,Correct,14,710
15,A,5,3,14846,New Target,15,864
15,WQWEW,161,2,1286,Correct,15,760
15,RWRKR,162,2,937,Correct,15,928
15,YRYRY,151,1,667,Correct,15,793
15,XOXOX,152,1,569,Correct,15,823
15,QPQPQ,153,1,813,Correct,15,711
15,TDTDT,154,1,612,Correct,15,829
15,WXWBW,161,2,582,Correct,15,704
15,TATAT,7,3,635,Correct,15,681
15,MCMYM,14,2,952,Correct,15,840
15,SMSFS,162,2,608,Correct,15,716
15,ZLZMZ,163,2,693,Correct,15,692
15,VDVBV,164,2,610,Correct,15,870
15,XCXVX,165,2,639,Correct,15,917
15,LKLBA,235,2,541,Correct,15,878
15,NDNDN,111,1,596,Correct,15,764
15,YGYGY,191,1,528,Correct,15,890
15,VLVLV,15,1,559,Correct,15,944
15,WQWQW,152,1,558,Correct,15,900
15,MAMOM,81,3,829,Correct,15,878
15,YZABY,233,2,1198,Correct,15,914
15,CFCFC,111,1,571,Correct,15,704
15,UTULU,161,2,568,Correct,15,907
15,KPKUK,162,2,700,Correct,15,716
15,TCTQT,163,2,601,Correct,15,828
15,FGFGF,192,1,587,Correct,15,800
15,RCRYR,16,2,537,Correct,15,900
15,KRKDK,162,2,590,Correct,15,777
15,CRCRC,151,1,627,Correct,15,762
15,WOAOW,223,1,963,Correct,15,840
15,LPLWL,222,2,613,Correct,15,850
15,DGDUD,173,2,519,Correct,15,734
15,EMEZE,16,2,688,Correct,15,656
15,DADAD,9,3,762,Correct,15,905
15,WDWDW,13,1,616,Correct,15,700
15,AWQWQ,221,1,691,Correct,15,900
15,TKTQT,222,2,542,Correct,15,832
15,MTMFM,162,2,676,Correct,15,710
15,KAKAK,10,3,503,Correct,15,663
15,BDBRB,14,2,621,Correct,15,726
15,QPQPQ,151,1,595,Correct,15,666
15,NDNDN,152,1,688,Correct,15,942
15,QYQGQ,184,2,607,Correct,15,791
15,VPVPV,15,1,546,Correct,15,729
15,RDRDA,225,1,582,Correct,15,788
15,KWKOK,222,2,555,Correct,15,720
15,TPTPT,151,1,527,Correct,15,735
15,DCDCD,152,2,596,Incorrect,15,834
15,OWOAO,112,3,714,Correct,15,724
15,ZCZNZ,14,2,547,Correct,15,900
15,MGMYM,182,2,682,Correct,15,709
15,ANLOL,231,2,581,Correct,15,913
15,DWDPD,222,2,612,Correct,15,902
15,YQYQY,151,1,576,Correct,15,897
15,LGLGL,196,1,608,Correct,15,890
15,VYVLV,16,2,581,Correct,15,674
15,MVMVM,151,1,649,Correct,15,753
15,QMQMQ,152,1,547,Correct,15,939
15,SXSXS,153,1,737,Correct,15,941
15,WAWAW,12,3,605,Correct,15,817
