Trial No,Stimulus,Trigger,Response,Response Time(ms),Correct,Block,Fixation Duration
Practice
OT Practice
1,SKSKS,15,1,1145,Correct,0,708
1,DLDUD,16,1,844,False,0,942
1,PDPGP,16,2,1569,Correct,0,735
1,MWMWM,15,1,1054,Correct,0,654
1,FTFTF,15,2,1228,False,0,713
1,AXAMA,16,,,False,0,693
1,RYRGR,16,1,1034,False,0,903
1,DODOD,15,1,826,Correct,0,701
1,QTQAQ,16,2,835,Correct,0,723
1,YEYEY,15,1,633,Correct,0,742
2,GYGDG,16,2,888,Correct,0,701
2,SWSWS,15,1,638,Correct,0,734
2,HLHUH,16,2,789,Correct,0,950
2,DEDED,15,1,564,Correct,0,942
2,ZPZOZ,16,2,598,Correct,0,728
2,ATATA,15,1,1290,Correct,0,688
2,QOQOQ,15,1,611,Correct,0,697
2,FPFGF,16,2,675,Correct,0,693
2,TRTET,16,2,1086,Correct,0,821
2,DQDQD,15,1,1141,Correct,0,863
4,PLPLP,15,1,1255,Correct,0,672
4,ATAIA,16,2,938,Correct,0,836
4,SKSGS,16,2,815,Correct,0,656
4,ZYZYZ,15,1,792,Correct,0,718
4,QSQSQ,15,1,517,Correct,0,678
4,TZTDT,16,2,649,Correct,0,699
4,JYJGJ,16,2,614,Correct,0,763
4,DYDYD,15,1,738,Correct,0,793
4,LTLCL,16,2,605,Correct,0,742
4,FQFEF,16,1,650,False,0,778
1,SKSKS,15,2,703,False,0,828
1,DLDUD,16,2,789,Correct,0,945
1,PDPGP,16,,,False,0,894
1,MWMWM,15,1,1104,Correct,0,793
1,FTFTF,15,1,566,Correct,0,882
1,AXAMA,16,2,721,Correct,0,942
1,RYRGR,16,2,637,Correct,0,667
1,DODOD,15,1,622,Correct,0,671
1,QTQAQ,16,2,614,Correct,0,915
1,YEYEY,15,1,760,Correct,0,757
DT Practice
1,TKTKT,15,,,False,0,901
1,SLSUS,16,2,955,Correct,0,860
1,VZVGV,7,[2],[1024],False,0,862
1,XWXZX,7,,,False,0,906
1,ATATA,15,2,838,False,0,871
1,HXZMH,16,,,False,0,749
1,TZTZT,7,[1][3],[702][1134],Correct,0,824
1,UOUOU,15,2,827,False,0,658
1,ZTWAW,16,2,1322,Correct,0,943
1,RZRER,7,[1],[1075],False,0,898
2,JYJDJ,16,2,924,Correct,0,840
2,DWDWD,15,2,675,False,0,687
2,GNGNG,7,[2],[1046],False,0,928
2,NEZEZ,16,2,775,False,0,904
2,RNROR,7,[2],[1518],False,0,907
2,QTQNQ,7,[2][1],[951][1431],False,0,920
2,HOHON,15,2,751,False,0,684
2,KPKGK,16,2,1144,Correct,0,776
2,DRDED,16,2,970,Correct,0,922
2,LNLNL,7,[1][3],[1072][1199],Correct,0,697
4,GLGLG,15,,,False,0,858
4,DTDID,16,2,729,Correct,0,816
4,SMSGS,16,2,952,Correct,0,668
4,ZFZYZ,7,,,False,0,892
4,TSTFT,7,[2],[1251],False,0,894
4,OFOFO,7,[1][3],[760][968],Correct,0,778
4,WYFGW,16,2,971,Correct,0,876
4,WYWYW,15,2,992,False,0,686
4,MFMCM,7,[1],[1174],False,0,677
4,HQHEH,16,2,812,Correct,0,670
1,TKTKT,15,1,727,Correct,0,845
1,SLSUS,16,2,947,Correct,0,664
1,VZVGV,7,[2],[703],False,0,854
1,XWXZX,7,[1][2],[1083][1451],False,0,739
1,ATATA,15,2,775,False,0,849
1,HXZMH,16,2,1473,Correct,0,738
1,TZTZT,7,[1],[1524],False,0,941
1,UOUOU,15,2,757,False,0,857
1,ZTWAW,16,2,1026,Correct,0,697
1,RZRER,7,[1][3],[1053][1341],False,0,835
2,JYJDJ,16,2,760,Correct,0,848
2,DWDWD,15,1,1229,Correct,0,856
2,GNGNG,7,[1][3],[1021][1181],Correct,0,833
2,NEZEZ,16,1,979,Correct,0,760
2,RNROR,7,,,False,0,881
2,QTQNQ,7,[1][3],[1199][1343],False,0,835
2,HOHON,15,1,1401,Correct,0,787
2,KPKGK,16,2,1011,Correct,0,912
2,DRDED,16,2,1092,Correct,0,747
2,LNLNL,7,[1][3],[1208][1352],Correct,0,865
4,GLGLG,15,1,712,Correct,0,695
4,DTDID,16,2,642,Correct,0,768
4,SMSGS,16,2,860,Correct,0,812
4,ZFZYZ,7,[1][2],[756][1268],False,0,718
4,TSTFT,7,[2][3],[1108][1268],Correct,0,939
4,OFOFO,7,[1][3],[807][951],Correct,0,698
4,WYFGW,16,2,666,Correct,0,717
4,WYWYW,15,1,673,Correct,0,843
4,MFMCM,7,,,False,0,889
4,HQHEH,16,2,1144,Correct,0,835
Trials
1,D,5,3,8486,New Target,1,793
1,ZNZYZ,161,2,1152,Correct,1,852
1,FZFZF,151,1,1050,Correct,1,863
1,RKRKR,152,1,1004,Correct,1,723
1,RXRNR,161,2,894,Correct,1,784
1,CNCFC,162,2,1106,Correct,1,873
1,PDPDP,7,[1][3],[908][1051],Correct,1,739
1,CPCFC,14,2,894,Correct,1,771
1,VLVNV,162,2,824,Correct,1,755
1,KFKFK,151,1,980,Correct,1,735
1,ZNZNZ,152,1,835,Correct,1,947
1,KCKPD,235,2,917,Correct,1,917
1,ZKZFZ,222,2,999,Correct,1,847
1,NRNZN,162,2,1045,Correct,1,922
1,KXKRK,163,2,868,Correct,1,811
1,YPYZY,164,2,887,Correct,1,915
1,FKDKF,223,2,1002,Incorrect,1,894
1,RPRPR,113,1,1561,Correct,1,781
1,VRVKV,161,2,879,Correct,1,934
1,RFRPR,162,2,907,Correct,1,692
1,KVKVK,151,1,992,Correct,1,831
1,YKYVY,161,2,793,Correct,1,680
1,VDVDV,8,[1][3],[861][1037],Correct,1,894
1,DVZVZ,221,1,1370,Correct,1,791
1,YFYFY,113,1,962,Correct,1,725
1,ZYZYZ,152,1,758,Correct,1,802
1,VLVXV,161,2,910,Correct,1,928
1,DPXZX,231,2,881,Correct,1,835
1,RYRYR,113,1,1158,Correct,1,854
1,PDPNP,91,[2][3],[1323][1499],Correct,1,724
1,KXKXK,13,1,1132,Correct,1,848
1,ZYZYZ,152,1,718,Correct,1,708
1,VKVKV,153,1,1134,Correct,1,722
1,YZYZY,154,1,727,Correct,1,843
1,NLNZN,161,2,884,Correct,1,739
1,ZNDYZ,233,2,1237,Correct,1,871
1,PCPXP,222,2,960,Correct,1,704
1,ZVZFZ,162,2,874,Correct,1,681
1,RCRZR,163,2,701,Correct,1,875
1,LRLRL,151,1,825,Correct,1,805
1,ZDZDZ,10,[1][3],[1005][1149],Correct,1,935
1,RNRZR,14,2,944,Correct,1,882
1,CXCYC,162,2,777,Correct,1,666
1,RCRLR,163,2,694,Correct,1,756
1,FRFRF,151,1,801,Correct,1,853
1,XFXFX,152,1,859,Correct,1,825
1,RPRLR,161,2,821,Correct,1,706
1,YXYRY,162,2,835,Correct,1,689
1,FYFYF,151,1,1225,Correct,1,849
1,YZYVY,161,2,720,Correct,1,869
1,YKYKY,151,1,863,Correct,1,761
1,XRXRX,152,1,920,Correct,1,739
1,XVXZX,161,2,809,Correct,1,917
1,PDPDP,11,[1][3],[713][873],Correct,1,717
1,ZFZFZ,13,1,999,Correct,1,757
1,PXPXP,152,1,789,Correct,1,866
1,LYLYL,153,1,1157,Correct,1,691
1,NKNKD,225,1,898,Correct,1,767
1,ZNZNZ,113,1,905,Correct,1,698
1,PYPZP,161,2,1006,Correct,1,755
1,XPXPX,151,1,1045,Correct,1,704
1,VLVLV,152,1,698,Correct,1,655
1,PKPXP,161,2,1321,Correct,1,733
1,FZFZF,151,1,989,Correct,1,894
1,LDLDL,12,[1],[1293],Incorrect,1,860
2,U,5,3,888,New Target,2,715
2,ZVZFZ,161,2,765,Correct,2,697
2,FZFZF,151,1,707,Correct,2,877
2,RFRFR,152,1,1142,Correct,2,706
2,NZNKN,161,2,759,Correct,2,662
2,FZFNF,162,2,962,Correct,2,791
2,RXRXR,151,1,1031,Correct,2,753
2,KRKYK,161,2,837,Correct,2,877
2,NZNPN,162,2,760,Correct,2,950
2,XPXPX,151,1,969,Correct,2,673
2,CUCUC,7,[1][3],[960][1088],Correct,2,676
2,RFRFR,13,1,974,Correct,2,695
2,VYVXV,161,2,510,Correct,2,895
2,VDVDV,191,1,881,Correct,2,829
2,ZKZRZ,15,2,683,Correct,2,714
2,XCXCX,151,1,590,Correct,2,670
2,CNCUC,82,[2][3],[984][1143],Correct,2,857
2,RCRCR,13,1,629,Correct,2,778
2,ZPZXZ,161,2,572,Correct,2,660
2,FKFYF,162,2,656,Correct,2,718
2,ZFZYZ,163,2,845,Correct,2,844
2,PXPXP,151,1,827,Correct,2,678
2,URCKC,231,2,693,Correct,2,788
2,PCPCP,113,1,1349,Correct,2,769
2,XNXNX,152,1,894,Correct,2,696
2,RCRZR,161,2,1113,Correct,2,670
2,XVXVX,151,1,743,Correct,2,810
2,NRNRN,152,1,725,Correct,2,701
2,FPFPF,225,1,689,Correct,2,788
2,XVXFX,222,2,636,Correct,2,826
2,PRPRP,151,1,1005,Correct,2,771
2,FYFCF,161,2,561,Correct,2,745
2,XUXFX,91,[2][3],[1124][1268],Correct,2,722
2,CYCVC,14,2,874,Correct,2,746
2,VDVKV,172,2,1055,Correct,2,839
2,YCYCY,15,1,1010,Correct,2,692
2,NKNLN,161,2,672,Correct,2,940
2,XPUKX,233,2,1354,Correct,2,888
2,ZPZPZ,113,1,816,Correct,2,716
2,KRKRK,152,1,1070,Correct,2,704
2,XKXKX,153,1,1452,Correct,2,893
2,YUYVY,101,[2][3],[1256][1400],Correct,2,748
2,XKXFU,235,2,1084,Correct,2,738
2,NFNFN,113,1,688,Correct,2,690
2,KDKDK,193,1,953,Correct,2,909
2,XYXKX,16,2,796,Correct,2,819
2,YZUZY,223,1,1162,Correct,2,689
2,KFKVK,222,2,726,Correct,2,778
2,LYLYL,151,1,1006,Correct,2,900
2,CXCDC,184,2,933,Incorrect,2,719
2,XZXNX,16,2,906,Correct,2,816
2,PXPXP,151,1,735,Correct,2,855
2,ZRZYZ,161,2,714,Correct,2,848
2,PUPYP,111,[2][3],[1060][1236],Correct,2,837
2,RNRNR,14,1,779,Correct,2,688
2,KDKDK,195,1,1319,Correct,2,753
2,KNKNK,15,1,746,Correct,2,847
2,PRPKP,161,2,633,Correct,2,677
2,UNYNY,221,1,998,Correct,2,858
2,NYNYN,113,1,692,Correct,2,877
2,YXYXY,152,1,878,Incorrect,2,834
2,RDRDR,196,1,694,Correct,2,789
2,FCFCF,15,1,743,Correct,2,675
2,ZKZKZ,152,1,692,Correct,2,708
2,ZUZUZ,12,[1][3],[938][1050],Correct,2,839
3,E,5,3,4038,New Target,3,806
3,YZYZY,151,1,902,Correct,3,849
3,VFVNV,161,2,862,Correct,3,686
3,KYKYK,151,1,867,Correct,3,851
3,NKNKN,152,1,887,Correct,3,889
3,XVXNX,161,2,696,Correct,3,907
3,RERFR,71,[2][3],[1072][1264],Correct,3,755
3,XNXNX,13,1,778,Correct,3,722
3,NXNXN,152,1,771,Correct,3,806
3,ZLZNZ,161,2,850,Correct,3,668
3,CUCNC,171,1,877,Incorrect,3,679
3,FYFRF,16,2,1173,Correct,3,716
3,ZLZLZ,151,,,Incorrect,3,902
3,YZYZY,152,2,765,Incorrect,3,690
3,CYCYC,153,1,806,Correct,3,858
3,VUVUV,192,2,939,Incorrect,3,872
3,PXPRP,16,2,864,Correct,3,838
3,YPYPY,151,1,1317,Correct,3,863
3,CECEC,8,[1][3],[869][1013],Correct,3,763
3,VNENV,223,,,Incorrect,3,867
3,KRKFK,222,2,912,Correct,3,762
3,XLXLE,225,1,768,Correct,3,904
3,RFRUR,183,2,876,Correct,3,770
3,XRXLX,16,2,1029,Correct,3,718
3,NZNPN,162,2,790,Correct,3,826
3,XZXZX,151,1,866,Correct,3,749
3,FZFZF,152,1,693,Correct,3,816
3,PFPFP,153,1,964,Correct,3,793
3,YZYXY,161,2,922,Correct,3,697
3,KEKEK,9,[1][3],[845][1004],Correct,3,810
3,CXCPC,14,2,712,Correct,3,873
3,VXVXV,151,1,937,Correct,3,669
3,NUNZN,174,2,1501,Correct,3,809
3,RKRVR,16,2,832,Correct,3,731
3,XRXRX,151,1,883,Correct,3,902
3,ERNFN,231,2,810,Incorrect,3,802
3,YRYNY,222,2,750,Correct,3,945
3,PZPEP,102,[2][3],[1090][1234],Correct,3,666
3,ZYZXZ,14,2,990,Correct,3,866
3,RZRVR,162,2,756,Correct,3,700
3,XRXRX,151,1,815,Correct,3,826
3,KUKFK,175,2,1048,Correct,3,740
3,RKRKR,15,1,899,Correct,3,913
3,ZFZFZ,152,1,677,Correct,3,827
3,YZYVY,161,2,793,Correct,3,659
3,XPXNX,162,2,739,Correct,3,726
3,YRYRY,151,1,718,Correct,3,831
3,EPVPV,221,1,1257,Correct,3,854
3,CRCEC,112,[2][3],[783][927],Correct,3,686
3,RFRCR,14,2,912,Correct,3,853
3,CPCVC,162,2,726,Correct,3,809
3,RXRCR,163,2,578,Correct,3,802
3,VNVLV,164,2,775,Correct,3,730
3,ZXZXZ,151,1,1149,Correct,3,943
3,ZCZCZ,152,1,827,Correct,3,701
3,PYPUP,186,2,979,Correct,3,819
3,YKYPY,16,2,754,Correct,3,905
3,YREXY,233,2,1068,Correct,3,815
3,ZKZKZ,113,1,798,Correct,3,732
3,XLXNX,161,2,705,Correct,3,946
3,KFKRE,235,2,1074,Correct,3,694
3,RXRLR,222,2,754,Correct,3,765
3,RERXR,121,[2][3],[961][1121],Correct,3,837
4,J,5,3,5100,New Target,4,688
4,CYCVC,161,2,889,Correct,4,678
4,RXRCR,162,2,752,Correct,4,827
4,FPFVF,163,2,958,Correct,4,699
4,LZLZL,151,1,993,Correct,4,880
4,PLPLP,152,1,1032,Correct,4,706
4,NPNPN,153,1,935,Correct,4,773
4,XZXZX,161,1,686,Incorrect,4,726
4,CNCKC,162,2,1183,Correct,4,661
4,PCPYJ,235,2,872,Correct,4,849
4,VYVYV,113,1,751,Correct,4,822
4,RLRLR,152,1,1076,Correct,4,922
4,CJCJC,7,[1][3],[904][1032],Correct,4,905
4,ZLZLZ,13,1,728,Correct,4,801
4,FZFZF,152,1,743,Correct,4,790
4,CFCFC,153,1,721,Correct,4,869
4,PZPZP,154,1,702,Correct,4,772
4,XEXEX,191,1,1005,Correct,4,759
4,NVNFN,16,2,846,Correct,4,825
4,KYKYK,151,1,1156,Correct,4,874
4,ZNZVZ,161,2,934,Correct,4,745
4,YVJXY,233,2,1158,Correct,4,825
4,XFXFX,113,1,806,Correct,4,726
4,XNXNX,152,1,1280,Correct,4,735
4,FJFKF,81,[2][3],[1150][1294],Correct,4,932
4,CZCYC,14,2,822,Correct,4,757
4,ZXZCZ,162,2,726,Correct,4,668
4,RYRYJ,225,1,1343,Correct,4,881
4,FPFZF,222,2,804,Correct,4,748
4,XRXRX,151,1,716,Correct,4,795
4,YPYEY,182,2,737,Correct,4,937
4,XRXRX,15,1,685,Correct,4,826
4,XZXPX,161,2,668,Correct,4,755
4,CJCJC,9,[1][3],[892][1004],Correct,4,875
4,ZXZVZ,14,2,617,Correct,4,662
4,VKVKV,151,1,1253,Correct,4,881
4,VEVNV,173,2,899,Correct,4,673
4,ZKZVZ,16,2,1286,Correct,4,841
4,XVXJX,102,[2][3],[883][1059],Correct,4,725
4,RXRVR,14,2,800,Correct,4,664
4,LRLRL,151,1,636,Correct,4,679
4,YNJNY,223,1,701,Correct,4,717
4,NPNJN,222,2,893,Correct,4,732
4,ZEZEZ,194,1,761,Correct,4,701
4,ZNZNZ,15,1,627,Correct,4,794
4,YZYZY,152,1,687,Correct,4,944
4,XYXYX,153,1,610,Correct,4,670
4,ZXZXZ,221,1,797,Correct,4,937
4,LYLZL,222,2,890,Correct,4,741
4,CYCNC,162,2,789,Correct,4,683
4,XEXEX,195,1,817,Correct,4,705
4,CVCXC,16,2,693,Correct,4,939
4,ZPZXZ,162,2,680,Correct,4,684
4,FZFZF,151,1,793,Correct,4,731
4,RXRJR,112,[2][3],[1013][1253],Correct,4,715
4,PRPFP,14,2,1079,Correct,4,847
4,PKPEP,186,2,690,Correct,4,931
4,XZXPX,16,2,756,Correct,4,668
4,JCZVZ,231,2,673,Correct,4,720
4,RXRLR,222,2,546,Correct,4,737
4,VZVZV,151,1,771,Correct,4,895
4,XJXJX,12,[1][3],[1005][1117],Correct,4,822
5,I,5,3,2247,New Target,5,681
5,PCPCP,151,1,1171,Correct,5,788
5,XYXYX,152,1,782,Correct,5,749
5,VXVXV,153,1,1280,Correct,5,948
5,XVXVX,154,1,696,Correct,5,748
5,ZRZXZ,161,2,693,Correct,5,802
5,FPFZF,162,2,527,Correct,5,874
5,ZYZYZ,151,1,599,Correct,5,704
5,RVRZR,161,2,680,Correct,5,809
5,CICIC,7,[1][3],[683][794],Correct,5,658
5,XLXLX,13,1,798,Correct,5,782
5,YVYVY,152,1,667,Correct,5,694
5,CJCJC,191,2,1264,Incorrect,5,674
5,FNFCF,16,2,881,Correct,5,936
5,PVPRP,162,2,730,Correct,5,764
5,FZFZF,151,1,940,Correct,5,684
5,NVIVN,223,1,1012,Correct,5,726
5,CVCIC,82,[2][3],[988][1164],Correct,5,894
5,ZXZXZ,13,1,713,Correct,5,681
5,FCFZF,161,2,837,Correct,5,800
5,IXRXR,221,1,756,Correct,5,663
5,ZPZNZ,222,2,638,Correct,5,869
5,VZVZV,151,1,658,Correct,5,660
5,YRYNY,161,2,658,Correct,5,799
5,VNVPV,162,2,827,Correct,5,930
5,RVRJR,182,2,1540,Correct,5,829
5,VRVRV,15,1,948,Correct,5,693
5,VIVIV,9,[1][3],[721][865],Correct,5,712
5,CXCVC,14,2,753,Correct,5,727
5,PZPZP,151,1,1336,Correct,5,913
5,IXVKV,231,2,668,Correct,5,806
5,YJYCY,173,2,1238,Incorrect,5,871
5,VYVYV,15,1,836,Correct,5,676
5,YVYVY,152,1,862,Correct,5,712
5,NVNVN,153,1,1048,Correct,5,716
5,XYXVX,161,2,837,Correct,5,901
5,NJNCN,174,2,735,Correct,5,734
5,NXNYN,16,2,727,Correct,5,868
5,VXVCV,162,2,832,Correct,5,879
5,ZKZKZ,151,,,Incorrect,5,753
5,XRXYX,161,2,993,Correct,5,905
5,ZCZXZ,162,2,1193,Correct,5,653
5,KVKYI,235,2,998,Correct,5,731
5,CNCNC,113,1,785,Correct,5,936
5,RIRIR,10,[1][3],[852][996],Correct,5,735
5,VYVXV,14,2,784,Correct,5,673
5,FXIRF,233,2,857,Correct,5,848
5,PFPFP,113,1,885,Correct,5,686
5,VPVPV,152,1,1182,Correct,5,688
5,ZJZJZ,195,1,986,Correct,5,768
5,ZVZNZ,16,2,751,Correct,5,693
5,YVYXY,162,2,717,Correct,5,773
5,PRPRP,151,1,1455,Correct,5,700
5,YPYPY,152,1,763,Correct,5,894
5,ZIZPZ,111,[2][3],[1352][1512],Correct,5,650
5,NKNXN,14,2,1563,Correct,5,662
5,RZRXR,162,2,747,Correct,5,696
5,RXRXR,151,1,731,Correct,5,685
5,ZJZJZ,196,1,1144,Correct,5,772
5,CVCVI,225,1,886,Incorrect,5,738
5,NKNKN,113,1,925,Correct,5,756
5,NRNZN,161,2,733,Correct,5,926
5,CNCNC,151,1,751,Correct,5,661
5,RFRIR,122,[2],[1369],Incorrect,5,876
6,B,5,3,1520,New Target,6,719
6,YKYZY,161,2,894,Correct,6,942
6,VCVRV,162,2,767,Correct,6,939
6,XVXVX,151,1,686,Correct,6,760
6,KZKRK,161,2,668,Correct,6,725
6,ZVZXZ,162,2,779,Correct,6,739
6,RCRNR,163,2,722,Correct,6,896
6,CXCRC,164,2,867,Correct,6,747
6,VNBCV,233,2,766,Correct,6,652
6,CXCVC,222,2,728,Correct,6,844
6,RFRFR,151,1,895,Correct,6,899
6,XPXRX,161,2,1045,Correct,6,757
6,RYRBR,72,[2][3],[1392][1568],Correct,6,928
6,ZKZKZ,13,1,792,Correct,6,698
6,FIFRF,171,2,1387,Correct,6,863
6,VZVLV,16,2,843,Correct,6,764
6,RPRVR,162,2,921,Correct,6,925
6,YBYBY,8,[1][3],[960][1152],Correct,6,856
6,PYPVP,14,2,711,Correct,6,725
6,NININ,192,1,995,Correct,6,770
6,RNRNR,15,1,959,Correct,6,744
6,NXNVN,161,2,733,Correct,6,845
6,RNRNR,151,1,1058,Correct,6,923
6,FRFVF,161,2,621,Correct,6,688
6,YVYFB,235,2,776,Incorrect,6,876
6,ZRZXZ,222,2,671,Correct,6,744
6,VNVIV,193,2,1068,Incorrect,6,703
6,PXPNP,16,2,674,Correct,6,844
6,ZXZPZ,162,2,600,Correct,6,877
6,VBVBV,9,[1][3],[839][1064],Correct,6,859
6,CXCXC,13,1,711,Correct,6,846
6,PCPFP,161,2,604,Correct,6,838
6,KNKNK,151,1,743,Correct,6,808
6,XIXIX,194,1,944,Correct,6,813
6,CYCYC,15,1,593,Correct,6,703
6,FVFYF,161,2,732,Correct,6,843
6,YNYRY,162,2,917,Correct,6,797
6,BVPXP,231,2,943,Correct,6,937
6,NXNXN,113,1,783,Correct,6,838
6,FRFRF,152,1,1503,Correct,6,943
6,YVYVY,153,1,692,Correct,6,943
6,ZKZCZ,161,2,641,Correct,6,702
6,VIVXV,175,2,679,Correct,6,819
6,PRBRP,223,2,1304,Incorrect,6,703
6,YZYBY,102,[2],[1226],Incorrect,6,767
6,CXCVC,14,2,882,Correct,6,653
6,FYFYF,151,1,791,Correct,6,739
6,VKVXV,161,2,817,Correct,6,662
6,ZBZBZ,11,[1][3],[939][1050],Correct,6,946
6,FPFNF,14,2,631,Correct,6,716
6,CXCXC,151,1,755,Correct,6,789
6,YCYCY,152,1,693,Correct,6,903
6,FPFPF,153,1,938,Correct,6,939
6,CVCVB,225,1,579,Correct,6,934
6,ZCZCZ,113,1,623,Correct,6,857
6,CZCNC,161,2,1106,Correct,6,889
6,KIKFK,176,2,834,Correct,6,716
6,PXPXP,15,1,757,Correct,6,798
6,RYRYR,152,1,1036,Correct,6,775
6,ZRZCZ,161,2,842,Correct,6,768
6,RVRVR,151,1,1115,Correct,6,809
6,XYXNX,161,2,836,Correct,6,800
6,BVKVK,221,2,834,Incorrect,6,870
6,CBCBC,12,[1][3],[1155][1282],Correct,6,666
7,W,5,3,4338,New Target,7,847
7,RKRKR,151,1,764,Correct,7,762
7,CVCRC,161,2,738,Correct,7,784
7,PKPKP,151,1,1043,Correct,7,910
7,FPFPF,152,1,684,Correct,7,817
7,VRVPV,161,2,777,Correct,7,664
7,ZKZYZ,162,2,731,Correct,7,887
7,PVPCP,233,2,769,Correct,7,831
7,KVKVK,113,2,1113,Incorrect,7,691
7,YXYVY,161,2,719,Correct,7,866
7,FNFNF,151,1,794,Correct,7,700
7,YWYWY,7,[1][3],[670][768],Correct,7,859
7,ZYZYZ,13,1,816,Correct,7,697
7,PYPYP,152,1,693,Correct,7,665
7,XRXRX,153,1,701,Correct,7,943
7,PXPXP,154,1,676,Correct,7,841
7,FCFBF,181,2,1072,Correct,7,677
7,FVFVF,15,1,754,Correct,7,688
7,CYCZC,161,2,906,Correct,7,735
7,XZXVX,162,2,844,Correct,7,706
7,PFPFP,151,1,1410,Correct,7,765
7,RVRLR,161,2,661,Correct,7,735
7,ZBZBZ,192,1,1055,Correct,7,791
7,VCVNV,16,2,612,Correct,7,893
7,NWNWN,8,[1][3],[981][1093],Correct,7,727
7,XNXVX,14,2,576,Correct,7,856
7,CXCNC,162,2,587,Correct,7,848
7,YVYVW,225,2,895,Incorrect,7,656
7,VFVFV,113,1,903,Correct,7,655
7,VFWFV,223,1,1090,Correct,7,940
7,CVCFC,222,2,821,Correct,7,676
7,YBYBY,193,1,932,Correct,7,864
7,PYPYP,15,1,1165,Correct,7,926
7,NKNWN,91,[2][3],[970][1146],Correct,7,682
7,VNVNV,13,1,692,Correct,7,888
7,RVRVR,152,1,810,Correct,7,923
7,FVFBF,184,2,794,Incorrect,7,898
7,VZVKV,16,2,1200,Correct,7,769
7,VPVCV,162,2,758,Correct,7,742
7,WYZCZ,231,2,768,Correct,7,666
7,PFPFP,113,1,839,Correct,7,840
7,PRPRP,152,1,917,Correct,7,873
7,NWNWN,10,[1][3],[721][816],Correct,7,781
7,VKVCV,14,2,663,Correct,7,727
7,WPYPY,221,1,813,Correct,7,866
7,VBVBV,195,1,1217,Correct,7,765
7,ZKZYZ,16,2,734,Correct,7,657
7,XYXYX,151,1,631,Correct,7,752
7,FZFXF,161,2,721,Correct,7,762
7,XKXKX,151,1,663,Correct,7,941
7,XPXPX,152,1,673,Correct,7,700
7,FWFWF,11,[1][3],[718][847],Correct,7,662
7,FNFBF,186,2,588,Correct,7,729
7,ZVZYZ,16,2,1018,Correct,7,751
7,FZFZF,151,1,724,Correct,7,791
7,NPNFW,235,2,1518,Correct,7,743
7,PCPCP,113,1,632,Correct,7,763
7,NKNWN,122,[2][3],[539][668],Correct,7,890
8,M,5,3,1873,New Target,8,745
8,VYVNV,161,2,1001,Correct,8,701
8,KLKNK,162,2,759,Correct,8,798
8,NRNRN,151,1,683,Correct,8,910
8,VNVFV,161,2,688,Correct,8,880
8,XNXNM,225,1,1026,Correct,8,899
8,CXCVC,222,2,639,Correct,8,757
8,KRKZK,162,2,702,Correct,8,816
8,NMNFN,71,[2][3],[1158][1333],Correct,8,875
8,ZFZFZ,13,1,698,Correct,8,753
8,YPYCY,161,2,951,Correct,8,697
8,KCKCK,151,1,667,Correct,8,720
8,VNVNV,152,1,743,Correct,8,801
8,LXLXL,153,1,1165,Correct,8,724
8,CLCLC,154,1,499,Correct,8,848
8,NYNYN,155,1,1386,Correct,8,948
8,LCMYL,233,2,868,Correct,8,876
8,NCNCN,113,1,611,Correct,8,935
8,ZVZRZ,161,2,685,Correct,8,828
8,ZVZVZ,151,1,663,Correct,8,783
8,PZPVP,161,2,671,Correct,8,827
8,PWPNP,171,2,667,Correct,8,841
8,KLKCM,235,2,746,Correct,8,684
8,XMXMX,8,[1][3],[1036][1165],Correct,8,885
8,PRPXP,14,2,731,Correct,8,795
8,CVCYC,162,2,902,Correct,8,716
8,PXPMP,92,[2][3],[927][1152],Correct,8,943
8,ZCZLZ,14,2,791,Correct,8,771
8,XWXWX,192,1,1158,Correct,8,860
8,ZCZLZ,16,2,543,Correct,8,759
8,MNCYC,231,2,897,Correct,8,736
8,ZXZXZ,113,1,829,Correct,8,896
8,YRYNY,161,2,661,Correct,8,666
8,ZLZPZ,162,2,701,Correct,8,832
8,VZVZV,151,1,627,Correct,8,814
8,MXPXP,221,2,626,Incorrect,8,809
8,VWVWV,193,1,1057,Correct,8,665
8,PYPYP,16,1,902,Incorrect,8,892
8,XPXVX,162,2,791,Correct,8,815
8,XLXLX,151,1,795,Correct,8,885
8,YMYMY,10,[1][3],[1007][1166],Correct,8,686
8,VYVYV,13,1,750,Correct,8,940
8,PWPZP,174,2,647,Correct,8,775
8,PYPKP,16,2,739,Correct,8,766
8,NPNXN,162,2,1038,Correct,8,702
8,KVKVK,223,1,1187,Correct,8,894
8,NVNFN,222,2,750,Correct,8,727
8,XNXNX,151,1,812,Correct,8,657
8,YZYMY,112,[2][3],[762][923],Correct,8,733
8,PFPFP,13,1,778,Correct,8,859
8,ZWZWZ,195,1,1050,Correct,8,905
8,PCPZP,16,2,686,Correct,8,945
8,LRLPL,162,2,1109,Correct,8,851
8,CZCZC,151,1,714,Correct,8,890
8,NZNZN,152,1,863,Correct,8,919
8,CVCXC,161,2,766,Correct,8,826
8,XCXCX,151,1,641,Correct,8,919
8,YWYWY,196,1,612,Correct,8,947
8,NLNLN,15,1,927,Correct,8,865
8,VNVNV,152,2,639,Incorrect,8,767
8,ZMZMZ,12,[1][3],[1113][1271],Correct,8,858
9,S,5,3,5995,New Target,9,891
9,NZNZN,151,1,670,Correct,9,733
9,KVKZK,161,2,792,Correct,9,745
9,LZLZL,151,1,1101,Correct,9,740
9,XLXLX,152,1,535,Correct,9,814
9,ZXZXZ,153,1,531,Correct,9,864
9,KNKZK,161,2,882,Correct,9,695
9,NRNYN,162,2,666,Correct,9,671
9,CLCVC,163,2,743,Correct,9,733
9,ZCZFZ,164,2,557,Correct,9,827
9,NSNSN,7,[1][3],[641][913],Correct,9,715
9,VZVZV,13,1,774,Correct,9,764
9,NVNCN,161,2,718,Correct,9,745
9,VMVMV,191,1,1231,Correct,9,924
9,CVCXC,16,2,601,Correct,9,681
9,ZYZRZ,162,2,674,Correct,9,855
9,XNXZX,163,2,1004,Correct,9,811
9,PXPXP,151,1,711,Correct,9,840
9,VCVSV,82,[2][3],[955][1193],Correct,9,687
9,PRPCP,14,2,774,Correct,9,659
9,ZMZMZ,192,1,812,Incorrect,9,733
9,ZFZFZ,15,1,743,Correct,9,942
9,FCFCF,152,1,708,Correct,9,705
9,YLYZY,161,2,971,Correct,9,815
9,KNKVK,162,2,747,Correct,9,696
9,SFPCP,231,2,996,Correct,9,724
9,RPRPR,113,1,1082,Correct,9,913
9,XMXMX,193,2,770,Incorrect,9,868
9,KFKFK,15,1,677,Correct,9,912
9,VSVSV,9,[1][3],[654][797],Correct,9,948
9,YVSVY,223,1,820,Correct,9,801
9,VPVPV,113,1,733,Correct,9,672
9,XZXZX,152,1,638,Correct,9,948
9,KZKXK,161,2,869,Correct,9,947
9,RFRPR,162,2,754,Correct,9,877
9,NVNVS,225,1,784,Correct,9,693
9,ZXZXZ,113,1,754,Correct,9,814
9,SRVRV,221,1,1049,Correct,9,753
9,YCYCY,113,1,553,Correct,9,713
9,KMKZK,174,2,810,Correct,9,718
9,FZSVF,233,2,876,Correct,9,835
9,VYVYV,113,1,636,Correct,9,855
9,LVLVL,152,1,723,Correct,9,921
9,YFYFY,153,1,615,Correct,9,849
9,NXNSN,102,[2][3],[886][1094],Correct,9,845
9,FNFCF,14,2,653,Correct,9,949
9,KVKVK,151,1,587,Correct,9,703
9,VZVCV,161,2,825,Correct,9,813
9,ZYZMZ,185,2,713,Correct,9,873
9,VXVZV,16,2,646,Correct,9,760
9,VPVPV,151,1,913,Correct,9,744
9,RVRNS,235,2,584,Correct,9,657
9,YZYZY,113,1,613,Correct,9,773
9,ZSZSZ,11,[1][3],[685][815],Correct,9,660
9,FRFRF,13,1,900,Correct,9,743
9,ZMZMZ,196,1,1055,Correct,9,950
9,NZNXN,16,2,710,Correct,9,889
9,LSLFL,121,[1][2],[749][1149],Incorrect,9,650
10,Q,5,3,2306,New Target,10,670
10,ZVZPZ,161,2,654,Correct,10,807
10,RZRZR,151,1,710,Correct,10,877
10,ZFZFZ,152,1,667,Correct,10,897
10,RZRZR,153,1,631,Correct,10,706
10,PZPXP,161,2,720,Correct,10,859
10,VFQPV,233,2,1174,Correct,10,803
10,ZPZRZ,222,2,1248,Correct,10,700
10,CYCVC,162,2,896,Correct,10,850
10,CPCPC,151,1,736,Correct,10,843
10,YZYQY,72,[2][3],[1121][1251],Correct,10,673
10,FVFXF,14,2,631,Correct,10,935
10,YNYNQ,225,1,758,Correct,10,706
10,ZYZYZ,113,1,783,Correct,10,655
10,FRFSF,181,2,1167,Incorrect,10,942
10,XNXPX,16,2,806,Correct,10,805
10,NXNXN,151,1,730,Correct,10,730
10,PVPZP,161,2,629,Correct,10,793
10,XVXPX,162,2,802,Correct,10,798
10,FXFVF,163,2,724,Correct,10,833
10,NSNKN,172,2,731,Incorrect,10,884
10,VXVNV,16,2,907,Correct,10,931
10,XZXZX,151,1,671,Correct,10,766
10,VQVQV,8,[2][1],[792][1178],Incorrect,10,941
10,ZYZPZ,14,2,1140,Correct,10,731
10,PZPSP,183,2,865,Correct,10,658
10,YVYVY,15,1,976,Correct,10,915
10,NCNQN,92,[2][3],[812][989],Correct,10,727
10,FCFVF,14,2,852,Correct,10,931
10,ZFZFZ,151,1,954,Correct,10,768
10,NSNSN,194,1,593,Correct,10,944
10,YPYFY,16,2,671,Correct,10,770
10,ZKZKZ,151,1,907,Correct,10,746
10,QZRCR,231,2,812,Correct,10,764
10,YPYVY,222,2,590,Correct,10,918
10,ZNZNZ,151,1,795,Correct,10,786
10,VQVQV,10,[1][3],[779][875],Correct,10,719
10,RVRZR,14,2,841,Correct,10,794
10,KRKSK,185,2,744,Correct,10,930
10,NPNPN,15,1,899,Correct,10,663
10,YPYPY,152,1,786,Correct,10,851
10,VCVYV,161,2,901,Correct,10,846
10,FPFNF,162,2,756,Correct,10,851
10,QVXVX,221,1,1032,Correct,10,805
10,ZVZRZ,222,2,673,Correct,10,900
10,LFLFL,151,1,776,Correct,10,845
10,VLVLV,152,1,632,Correct,10,905
10,KXQXK,223,2,1043,Incorrect,10,892
10,YQYQY,11,[1][3],[862][1021],Correct,10,918
10,YCYCY,13,1,922,Correct,10,881
10,PZPYP,161,2,810,Correct,10,825
10,LPLFL,162,2,626,Correct,10,697
10,VSVSV,196,1,605,Correct,10,759
10,VFVYQ,235,2,1241,Correct,10,839
10,CZCXC,222,2,641,Correct,10,715
10,PVPCP,162,2,805,Correct,10,896
10,CXCXC,151,1,682,Correct,10,738
10,NZNZN,152,1,857,Correct,10,678
10,YPYCY,161,2,695,Correct,10,940
10,ZQZQZ,12,[1][3],[673][864],Correct,10,759
11,T,5,3,2432,New Target,11,685
11,KFKFK,151,1,956,Correct,11,939
11,LZLZL,152,1,1061,Correct,11,943
11,PFPVP,161,2,711,Correct,11,936
11,FRFPF,162,2,772,Correct,11,685
11,FZFZF,151,1,884,Correct,11,946
11,VTVTV,7,[1][3],[869][1028],Correct,11,727
11,KYKCK,14,2,612,Correct,11,917
11,VPVPV,151,1,593,Correct,11,849
11,XQXQX,191,1,687,Correct,11,695
11,PZPYP,16,2,697,Correct,11,768
11,KXKLK,162,2,699,Correct,11,914
11,TCNCN,221,1,625,Correct,11,872
11,PZPNP,222,2,709,Correct,11,947
11,RCRPR,162,2,879,Correct,11,772
11,PZPRT,235,2,643,Correct,11,731
11,XFXVX,222,2,894,Correct,11,841
11,LTLVL,81,[2][3],[1098][1273],Correct,11,756
11,ZCZPZ,14,2,1129,Correct,11,755
11,NCNQN,182,2,1087,Correct,11,914
11,XZXNX,16,2,774,Correct,11,844
11,ZPZPZ,151,1,666,Correct,11,851
11,CFCFC,152,1,870,Correct,11,714
11,VXTRV,233,1,1086,Incorrect,11,652
11,CFCVC,222,2,887,Correct,11,798
11,PYPYP,151,1,868,Correct,11,849
11,FQFYF,173,2,769,Correct,11,901
11,CNCFC,16,2,691,Correct,11,828
11,PTPTP,9,[1][3],[865][992],Correct,11,706
11,ZCZCZ,13,1,697,Correct,11,784
11,KZKZK,152,1,632,Correct,11,716
11,RLRVR,161,2,610,Correct,11,753
11,ZRZKZ,162,2,892,Correct,11,872
11,KLKLT,225,1,699,Correct,11,871
11,ZQZQZ,194,1,1285,Correct,11,787
11,VZVZV,15,1,645,Correct,11,758
11,RVRZR,161,2,765,Correct,11,873
11,ZPZCZ,162,2,654,Correct,11,946
11,VYVYV,151,1,838,Correct,11,885
11,RVRVR,152,1,907,Correct,11,791
11,PTPTP,10,[1],[1342],Incorrect,11,904
11,PXPXP,13,1,708,Correct,11,822
11,KCKCK,152,1,636,Correct,11,868
11,YVYVY,153,1,788,Correct,11,860
11,CYCYC,154,1,910,Correct,11,690
11,XCXCX,155,1,538,Correct,11,870
11,CYCQC,185,2,703,Correct,11,669
11,KCKNK,16,2,1136,Correct,11,893
11,VPVPV,151,1,638,Correct,11,659
11,TXFZF,231,2,639,Correct,11,709
11,NYNVN,222,2,692,Correct,11,941
11,VQVXV,176,2,558,Correct,11,760
11,ZRZRZ,15,1,977,Correct,11,665
11,VTVZV,111,[2][3],[895][1056],Correct,11,825
11,PXPVP,14,2,687,Correct,11,844
11,FVFVF,151,1,715,Correct,11,735
11,VRVLV,161,2,595,Correct,11,854
11,YCYCY,151,1,592,Correct,11,756
11,XZTZX,223,1,728,Correct,11,930
11,VTVTV,12,[1][3],[966][1191],Correct,11,911
12,O,5,3,3014,New Target,12,811
12,VXVLV,161,2,939,Correct,12,869
12,KVKCK,162,2,826,Correct,12,781
12,VLVLV,151,1,849,Correct,12,720
12,ZCZVZ,161,2,822,Correct,12,799
12,KFKFK,151,1,811,Correct,12,720
12,XKXKX,152,1,730,Correct,12,939
12,YXYXY,153,1,687,Correct,12,770
12,FVFVF,154,1,606,Correct,12,658
12,PVPOP,72,[2][3],[926][1117],Correct,12,920
12,ZXZYZ,14,2,719,Correct,12,950
12,PXPVP,162,2,559,Correct,12,923
12,ZTZTZ,191,1,861,Correct,12,861
12,CVCKC,16,2,729,Correct,12,870
12,CKCKC,151,1,1045,Correct,12,713
12,NPNPN,152,1,664,Correct,12,651
12,ZRZNZ,161,2,1038,Correct,12,842
12,OZCZC,221,1,761,Correct,12,799
12,LFLFL,113,1,663,Correct,12,925
12,CXCXC,152,1,1015,Correct,12,690
12,KPKPK,153,1,641,Correct,12,839
12,FRFKF,161,2,1034,Correct,12,825
12,FOFOF,8,[1][3],[762][972],Correct,12,915
12,ZFZFZ,13,1,1023,Correct,12,666
12,LKLZO,235,2,1181,Correct,12,711
12,KLKZK,222,2,670,Correct,12,897
12,YXYCY,162,2,564,Correct,12,930
12,LOLOL,9,[1][3],[742][935],Correct,12,887
12,XLXLX,13,1,741,Correct,12,904
12,XVXVX,152,1,698,Correct,12,736
12,FTFTF,192,1,601,Correct,12,700
12,OXNZN,231,2,623,Correct,12,933
12,CZCZC,113,1,1064,Correct,12,899
12,LZLZL,152,1,912,Correct,12,831
12,VLVPV,161,2,702,Correct,12,890
12,VYVYO,225,1,816,Correct,12,914
12,XKXKX,113,1,720,Correct,12,848
12,RTRTR,193,1,743,Correct,12,902
12,KVKCK,16,2,599,Correct,12,937
12,ROROR,101,[1][3],[586][745],Correct,12,663
12,PRPRP,13,1,809,Correct,12,837
12,LYLVL,161,2,686,Correct,12,806
12,PLPLP,151,1,570,Correct,12,716
12,CTCTC,194,1,605,Correct,12,677
12,XZXYX,16,2,724,Correct,12,797
12,NKNKN,151,1,695,Correct,12,902
12,VLVZV,161,2,672,Correct,12,819
12,YOYOY,11,[1][3],[625][802],Correct,12,866
12,PZOZP,223,2,994,Incorrect,12,833
12,FYFYF,113,1,1197,Correct,12,886
12,ZXZVZ,161,2,648,Correct,12,656
12,VKVZV,162,2,902,Correct,12,706
12,ZTZTZ,195,1,630,Correct,12,780
12,LKLZL,16,2,896,Correct,12,829
12,KCKVK,162,2,861,Correct,12,909
12,PXPKP,163,2,879,Correct,12,871
12,KCOZK,233,2,1108,Correct,12,717
12,FKFKF,113,1,977,Correct,12,674
12,CTCRC,176,2,754,Correct,12,808
12,NXNXN,15,1,810,Correct,12,791
12,KXKVK,161,2,680,Correct,12,940
12,CPCOC,122,[2][3],[1118][1374],Correct,12,915
13,H,5,3,3146,New Target,13,800
13,VFVNV,151,2,1306,Incorrect,13,935
13,YVYVY,152,1,679,Correct,13,901
13,XVXVX,153,1,754,Correct,13,829
13,NRNXN,161,2,755,Correct,13,855
13,PZPKP,162,2,1036,Correct,13,700
13,HLVLV,221,1,839,Correct,13,781
13,CXCZC,222,2,1285,Correct,13,883
13,LHLYL,71,[2][3],[1052][1258],Correct,13,839
13,YKYFY,14,2,1537,Correct,13,814
13,YOYRY,171,2,1120,Correct,13,704
13,ZKZYZ,16,2,727,Correct,13,864
13,RZRZR,151,1,704,Correct,13,663
13,NFNYN,161,2,821,Correct,13,851
13,KVKFK,162,2,1500,Correct,13,720
13,XFXYX,163,2,787,Correct,13,813
13,LKLVL,164,2,692,Correct,13,923
13,NLNLN,151,1,686,Correct,13,778
13,XCXOX,182,2,947,Correct,13,816
13,FXFXF,15,1,706,Correct,13,817
13,VHVHV,8,[1][3],[1022][1183],Correct,13,740
13,PVPVP,13,1,779,Correct,13,942
13,CRCXC,161,2,996,Correct,13,680
13,NXNXN,151,1,738,Correct,13,769
13,XRXRX,152,1,585,Correct,13,792
13,YFYXY,161,2,665,Correct,13,666
13,ZOZOZ,193,1,610,Correct,13,804
13,RZRZR,15,1,635,Correct,13,892
13,FKFKF,152,1,917,Correct,13,882
13,PFPFP,153,1,967,Correct,13,669
13,XYXHX,92,[2],[715],Incorrect,13,664
13,RZRKR,14,2,1424,Correct,13,724
13,FLFLH,225,1,764,Correct,13,794
13,KRKRK,113,1,1324,Correct,13,940
13,ZVZNZ,161,2,641,Correct,13,692
13,ZOZOZ,194,1,932,Correct,13,659
13,FZFZF,15,1,580,Correct,13,737
13,FHFKF,101,[2],[1387],Incorrect,13,808
13,ZXHLZ,233,1,1087,Incorrect,13,845
13,FKFXF,222,2,825,Correct,13,785
13,CFCYC,162,2,745,Correct,13,865
13,ZXZVZ,163,2,679,Correct,13,943
13,KCKOK,185,2,720,Correct,13,846
13,ZXZVH,235,2,727,Correct,13,809
13,CKCKC,113,1,1323,Correct,13,818
13,ZXZCZ,161,2,750,Correct,13,719
13,YVYVY,151,1,681,Correct,13,790
13,RVHVR,223,1,1282,Correct,13,710
13,ZRZRZ,113,1,615,Correct,13,724
13,ZHZHZ,11,[1][3],[1021][1213],Correct,13,752
13,VZVZV,13,1,1024,Correct,13,855
13,HZVRV,231,2,879,Correct,13,763
13,FVFVF,113,1,946,Correct,13,689
13,RNRCR,161,2,736,Correct,13,851
13,COCOC,196,1,790,Correct,13,856
13,VNVXV,16,2,695,Correct,13,909
13,XHXHX,12,[1],[1096],Incorrect,13,787
14,G,5,3,2732,New Target,14,820
14,FZFZF,151,1,740,Correct,14,797
14,RPRVR,161,2,641,Correct,14,675
14,XCXCX,151,1,520,Correct,14,869
14,YXYXY,152,1,857,Correct,14,663
14,KZKZK,153,1,523,Correct,14,825
14,RYRKR,161,2,647,Correct,14,893
14,FYFNF,162,2,590,Correct,14,870
14,VKVKV,151,1,1021,Correct,14,712
14,KPGPK,223,1,1186,Correct,14,948
14,YNYNY,113,1,921,Correct,14,790
14,VYVYV,152,1,1013,Correct,14,836
14,YCYXY,161,2,704,Correct,14,816
14,LKLGL,72,[2][3],[1134][1310],Correct,14,727
14,VXVXV,13,1,656,Correct,14,931
14,KCKVK,161,2,761,Correct,14,847
14,YKYKY,151,2,972,Incorrect,14,950
14,RHRXR,171,2,1080,Correct,14,796
14,FVFCF,16,2,725,Correct,14,685
14,YXYGY,82,[2][3],[882][1091],Correct,14,942
14,CLCLC,13,1,649,Correct,14,801
14,ZXZCZ,161,2,874,Correct,14,687
14,VLVFV,162,2,559,Correct,14,673
14,CPCPG,225,1,696,Correct,14,938
14,KHKNK,172,2,863,Correct,14,810
14,ZKZVZ,16,2,669,Correct,14,939
14,YKYLY,162,2,632,Correct,14,781
14,CNCNC,151,1,897,Correct,14,819
14,PGPGP,9,[1][3],[868][1124],Correct,14,837
14,VPVPV,13,1,1294,Correct,14,905
14,FXGRF,233,2,964,Correct,14,704
14,CYCVC,222,2,1069,Correct,14,803
14,FNFNF,151,1,825,Correct,14,844
14,KFKCK,161,2,750,Correct,14,768
14,ZFZHZ,183,2,1561,Correct,14,653
14,NXNXN,15,1,641,Correct,14,762
14,FNFNF,152,1,768,Correct,14,728
14,LXLNG,235,2,888,Correct,14,701
14,XKXVX,222,2,701,Correct,14,736
14,ZHZHZ,194,1,986,Correct,14,676
14,PFPFP,15,1,868,Correct,14,915
14,ZYZYZ,152,1,786,Correct,14,879
14,XPXVX,161,2,693,Correct,14,814
14,YCYCY,151,1,575,Correct,14,696
14,RGRGR,10,[1][3],[586][747],Correct,14,847
14,VRVRV,13,1,636,Correct,14,711
14,PKPNP,161,2,715,Correct,14,774
14,XGXGX,11,[1][3],[780][956],Correct,14,670
14,GZYVY,231,2,650,Correct,14,910
14,VCVNV,222,2,807,Correct,14,677
14,VHVHV,195,1,882,Correct,14,672
14,LXLNL,16,2,1034,Correct,14,655
14,GKPKP,221,2,911,Incorrect,14,922
14,XRXPX,222,2,1262,Correct,14,803
14,XNXNX,151,1,610,Correct,14,730
14,KHKNK,176,2,848,Incorrect,14,850
14,RZRZR,15,1,591,Correct,14,923
14,CGCFC,121,[2],[1175],Incorrect,14,749
15,A,5,3,2212,New Target,15,810
15,XRXFX,161,2,985,Correct,15,805
15,RXRKR,162,2,1036,Correct,15,699
15,YRYRY,151,1,1004,Correct,15,678
15,XPXPX,152,1,1098,Correct,15,769
15,RPRPR,153,1,809,Correct,15,684
15,NCNCN,154,1,533,Correct,15,934
15,RXRZR,161,2,759,Correct,15,746
15,NANAN,7,[1][3],[717][878],Correct,15,775
15,KCKYK,14,2,646,Correct,15,823
15,XKXFX,162,2,894,Correct,15,829
15,ZLZKZ,163,2,798,Correct,15,833
15,VCVZV,164,2,781,Correct,15,909
15,XCXVX,165,2,702,Correct,15,929
15,LKLZA,235,2,740,Correct,15,845
15,NCNCN,113,1,712,Correct,15,845
15,YGYGY,191,1,831,Correct,15,810
15,VLVLV,15,1,595,Correct,15,700
15,XRXRX,152,1,1113,Correct,15,943
15,KAKPK,81,[2][3],[990][1198],Correct,15,765
15,YZAZY,233,1,1045,Incorrect,15,735
15,CFCFC,113,1,1057,Correct,15,773
15,VNVLV,161,2,732,Correct,15,853
15,KPKVK,162,2,753,Correct,15,863
15,NCNRN,163,2,698,Correct,15,712
15,FGFGF,192,1,760,Correct,15,738
15,RCRYR,16,2,620,Correct,15,793
15,KRKCK,162,2,682,Correct,15,721
15,CRCRC,151,1,663,Correct,15,660
15,XPAPX,223,2,789,Incorrect,15,762
15,LPLXL,222,2,1117,Correct,15,716
15,CGCVC,173,2,691,Correct,15,801
15,FKFZF,16,2,713,Correct,15,888
15,CACAC,9,[1][3],[747][1052],Correct,15,871
15,XCXCX,13,1,738,Correct,15,741
15,AXRXR,221,1,984,Correct,15,756
15,NKNRN,222,2,1160,Correct,15,771
15,KNKFK,162,2,796,Correct,15,796
15,KAKAK,10,[1][3],[892][1227],Correct,15,950
15,ZCZRZ,14,2,814,Correct,15,701
15,RPRPR,151,1,865,Correct,15,826
15,NCNCN,152,1,708,Correct,15,736
15,RYRGR,184,2,780,Correct,15,892
15,VPVPV,15,1,767,Correct,15,879
15,RCRCA,225,1,801,Correct,15,938
15,KXKPK,222,2,1154,Correct,15,785
15,NPNPN,151,1,638,Correct,15,707
15,YCYCY,152,1,629,Correct,15,813
15,PXPAP,112,[2][3],[1141][1302],Correct,15,804
15,ZCZNZ,14,2,822,Correct,15,914
15,KYKGK,185,2,724,Correct,15,932
15,ANLPL,231,2,864,Correct,15,703
15,CXCPC,222,2,1063,Correct,15,693
15,YRYRY,151,1,688,Correct,15,796
15,LGLGL,196,1,853,Correct,15,934
15,VYVLV,16,2,672,Correct,15,925
15,KVKVK,151,1,1096,Correct,15,916
15,RKRKR,152,1,694,Correct,15,723
15,VXVXV,153,1,684,Correct,15,892
15,XAXAX,12,[1][3],[732][892],Correct,15,690
