Trial No,Stimulus,Trigger,Response,Response Time(ms),Correct,Block,Fixation Duration
Practice
OT Practice
1,SKSKS,15,,,False,0,908
1,DLDUD,16,2,1574,Correct,0,656
1,PDPGP,16,1,736,False,0,725
1,MWMWM,15,1,1014,Correct,0,873
1,FTFTF,15,1,837,Correct,0,802
1,AXAMA,16,2,769,Correct,0,937
1,RYRGR,16,2,870,Correct,0,854
1,DODOD,15,1,615,Correct,0,844
1,QTQAQ,16,2,801,Correct,0,867
1,YEYEY,15,1,666,Correct,0,715
2,GYGDG,16,2,904,Correct,0,771
2,SWSWS,15,1,491,Correct,0,785
2,HLHUH,16,2,686,Correct,0,756
2,DEDED,15,1,592,Correct,0,663
2,ZPZOZ,16,2,693,Correct,0,939
2,ATATA,15,1,787,Correct,0,727
2,QOQOQ,15,1,688,Correct,0,654
2,FPFGF,16,2,653,Correct,0,727
2,TRTET,16,2,612,Correct,0,912
2,DQDQD,15,1,618,Correct,0,942
4,PLPLP,15,1,845,Correct,0,719
4,ATAIA,16,2,645,Correct,0,702
4,SKSGS,16,1,447,False,0,897
4,ZYZYZ,15,2,702,False,0,874
4,QSQSQ,15,1,552,Correct,0,825
4,TZTDT,16,2,628,Correct,0,883
4,JYJGJ,16,2,784,Correct,0,849
4,DYDYD,15,1,652,Correct,0,676
4,LTLCL,16,2,600,Correct,0,828
4,FQFEF,16,2,610,Correct,0,877
AT Practice
1,TKTKT,15,1,689,Correct,0,772
1,SLSUS,16,2,648,Correct,0,886
1,VZVGV,7,3,867,Correct,0,805
1,XWXZX,7,3,598,Correct,0,777
1,ATATA,15,1,626,Correct,0,849
1,HXZMH,16,2,638,Correct,0,849
1,TZTZT,7,3,461,Correct,0,813
1,UOUOU,15,1,882,Correct,0,742
1,ZTWAW,16,2,755,Correct,0,822
1,RZRER,7,3,506,Correct,0,827
2,JYJDJ,16,2,810,Correct,0,679
2,DWDWD,15,1,568,Correct,0,949
2,GNGNG,7,3,774,Correct,0,831
2,NEZEZ,16,1,854,Correct,0,937
2,RNROR,7,2,442,False,0,895
2,QTQNQ,7,3,958,Correct,0,738
2,HOHON,15,1,464,Correct,0,712
2,KPKGK,16,2,392,Correct,0,692
2,DRDED,16,1,561,False,0,708
2,LNLNL,7,3,831,Correct,0,853
4,GLGLG,15,1,937,Correct,0,829
4,DTDID,16,2,683,Correct,0,775
4,SMSGS,16,1,657,False,0,942
4,ZFZYZ,7,3,507,Correct,0,805
4,TSTFT,7,2,671,False,0,692
4,OFOFO,7,3,660,Correct,0,945
4,WYFGW,16,1,721,False,0,719
4,WYWYW,15,3,759,False,0,910
4,MFMCM,7,2,572,False,0,855
4,HQHEH,16,2,999,Correct,0,852
1,TKTKT,15,1,630,Correct,0,726
1,SLSUS,16,2,581,Correct,0,794
1,VZVGV,7,3,451,Correct,0,771
1,XWXZX,7,2,522,False,0,662
1,ATATA,15,1,1108,Correct,0,926
1,HXZMH,16,3,735,False,0,733
1,TZTZT,7,3,1044,Correct,0,833
1,UOUOU,15,1,709,Correct,0,722
1,ZTWAW,16,2,753,Correct,0,787
1,RZRER,7,3,1145,Correct,0,829
Trials
1,D,5,3,12860,New Target,1,727
1,ZNZYZ,161,2,775,Correct,1,779
1,FZFZF,151,1,964,Correct,1,736
1,RKRKR,152,2,694,Incorrect,1,796
1,RXRNR,161,2,809,Correct,1,676
1,CNCFC,162,2,837,Correct,1,696
1,PDPDP,7,3,810,Correct,1,929
1,CPCFC,14,2,803,Correct,1,785
1,VLVNV,162,2,797,Correct,1,820
1,KFKFK,151,1,1184,Correct,1,949
1,ZNZNZ,152,1,920,Correct,1,909
1,KCKPD,235,3,1033,Incorrect,1,896
1,ZKZFZ,222,2,1116,Correct,1,797
1,NRNZN,162,2,924,Correct,1,688
1,KXKRK,163,2,747,Correct,1,916
1,YPYZY,164,2,653,Correct,1,671
1,FKDKF,223,1,920,Correct,1,902
1,RPRPR,113,,,Incorrect,1,831
1,VRVKV,161,2,1044,Correct,1,835
1,RFRPR,162,2,915,Correct,1,807
1,KVKVK,151,1,773,Correct,1,857
1,YKYVY,161,2,789,Correct,1,716
1,VDVDV,8,3,593,Correct,1,718
1,DVZVZ,221,1,1141,Correct,1,752
1,YFYFY,113,1,724,Correct,1,742
1,ZYZYZ,152,1,641,Correct,1,790
1,VLVXV,161,2,685,Correct,1,886
1,DPXZX,231,2,1118,Correct,1,707
1,RYRYR,113,1,683,Correct,1,831
1,PDPNP,91,3,502,Correct,1,930
1,KXKXK,13,1,1018,Correct,1,819
1,ZYZYZ,152,1,764,Correct,1,818
1,VKVKV,153,1,665,Correct,1,771
1,YZYZY,154,1,816,Correct,1,934
1,NLNZN,161,2,891,Correct,1,686
1,ZNDYZ,233,3,509,Incorrect,1,931
1,PCPXP,222,2,942,Correct,1,930
1,ZVZFZ,162,2,674,Correct,1,781
1,RCRZR,163,2,675,Correct,1,701
1,LRLRL,151,1,960,Correct,1,795
1,ZDZDZ,10,3,855,Correct,1,754
1,RNRZR,14,2,874,Correct,1,877
1,CXCYC,162,2,677,Correct,1,757
1,RCRLR,163,2,973,Correct,1,906
1,FRFRF,151,1,738,Correct,1,770
1,XFXFX,152,1,925,Correct,1,839
1,RPRLR,161,2,965,Correct,1,770
1,YXYRY,162,2,826,Correct,1,711
1,FYFYF,151,1,671,Correct,1,917
1,YZYVY,161,2,735,Correct,1,786
1,YKYKY,151,2,909,Incorrect,1,716
1,XRXRX,152,1,791,Correct,1,695
1,XVXZX,161,2,740,Correct,1,669
1,PDPDP,11,3,577,Correct,1,765
1,ZFZFZ,13,1,681,Correct,1,671
1,PXPXP,152,1,679,Correct,1,822
1,LYLYL,153,1,740,Correct,1,883
1,NKNKD,225,1,737,Correct,1,683
1,ZNZNZ,113,1,650,Correct,1,856
1,PYPZP,161,2,714,Correct,1,807
1,XPXPX,151,1,598,Correct,1,830
1,VLVLV,152,1,627,Correct,1,919
1,PKPXP,161,2,749,Correct,1,903
1,FZFZF,151,1,685,Correct,1,685
1,LDLDL,12,3,750,Correct,1,705
2,U,5,3,3004,New Target,2,876
2,ZVZFZ,161,2,829,Correct,2,837
2,FZFZF,151,1,583,Correct,2,761
2,RFRFR,152,1,715,Correct,2,740
2,NZNKN,161,2,850,Correct,2,949
2,FZFNF,162,2,858,Correct,2,799
2,RXRXR,151,1,863,Correct,2,853
2,KRKYK,161,2,810,Correct,2,739
2,NZNPN,162,2,678,Correct,2,684
2,XPXPX,151,1,931,Correct,2,843
2,CUCUC,7,3,739,Correct,2,883
2,RFRFR,13,1,1296,Correct,2,748
2,VYVXV,161,2,711,Correct,2,778
2,VDVDV,191,1,527,Correct,2,947
2,ZKZRZ,15,2,739,Correct,2,786
2,XCXCX,151,1,563,Correct,2,680
2,CNCUC,82,3,516,Correct,2,856
2,RCRCR,13,1,999,Correct,2,752
2,ZPZXZ,161,2,693,Correct,2,908
2,FKFYF,162,2,1160,Correct,2,710
2,ZFZYZ,163,2,656,Correct,2,879
2,PXPXP,151,1,624,Correct,2,829
2,URCKC,231,2,692,Correct,2,660
2,PCPCP,113,1,798,Correct,2,853
2,XNXNX,152,1,674,Correct,2,922
2,RCRZR,161,2,674,Correct,2,712
2,XVXVX,151,1,598,Correct,2,684
2,NRNRN,152,2,685,Incorrect,2,669
2,FPFPF,225,1,831,Correct,2,677
2,XVXFX,222,2,646,Correct,2,843
2,PRPRP,151,1,679,Correct,2,739
2,FYFCF,161,2,689,Correct,2,889
2,XUXFX,91,3,493,Correct,2,855
2,CYCVC,14,2,798,Correct,2,807
2,VDVKV,172,2,625,Correct,2,926
2,YCYCY,15,1,767,Correct,2,852
2,NKNLN,161,2,966,Correct,2,848
2,XPUKX,233,2,1252,Correct,2,914
2,ZPZPZ,113,1,727,Correct,2,914
2,KRKRK,152,1,900,Correct,2,794
2,XKXKX,153,1,663,Correct,2,803
2,YUYVY,101,3,499,Correct,2,840
2,XKXFU,235,2,849,Correct,2,899
2,NFNFN,113,1,746,Correct,2,797
2,KDKDK,193,1,842,Correct,2,664
2,XYXKX,16,2,659,Correct,2,755
2,YZUZY,223,1,868,Correct,2,782
2,KFKVK,222,2,734,Correct,2,711
2,LYLYL,151,1,1034,Correct,2,775
2,CXCDC,184,2,735,Incorrect,2,719
2,XZXNX,16,2,871,Correct,2,922
2,PXPXP,151,1,960,Correct,2,735
2,ZRZYZ,161,2,850,Correct,2,836
2,PUPYP,111,3,739,Correct,2,936
2,RNRNR,14,1,1023,Correct,2,830
2,KDKDK,195,1,800,Correct,2,840
2,KNKNK,15,1,1159,Correct,2,885
2,PRPKP,161,2,750,Correct,2,885
2,UNYNY,221,1,935,Correct,2,815
2,NYNYN,113,2,650,Incorrect,2,778
2,YXYXY,152,1,936,Incorrect,2,822
2,RDRDR,196,1,568,Correct,2,888
2,FCFCF,15,1,696,Correct,2,838
2,ZKZKZ,152,1,737,Correct,2,949
2,ZUZUZ,12,3,509,Correct,2,809
3,E,5,3,2603,New Target,3,871
3,YZYZY,151,1,740,Correct,3,833
3,VFVNV,161,2,749,Correct,3,847
3,KYKYK,151,1,836,Correct,3,881
3,NKNKN,152,1,765,Correct,3,787
3,XVXNX,161,2,870,Correct,3,843
3,RERFR,71,2,1361,Incorrect,3,734
3,XNXNX,13,1,1127,Correct,3,784
3,NXNXN,152,1,773,Correct,3,761
3,ZLZNZ,161,2,799,Correct,3,768
3,CUCNC,171,2,1389,Correct,3,661
3,FYFRF,16,2,1334,Correct,3,670
3,ZLZLZ,151,1,1309,Correct,3,719
3,YZYZY,152,1,1110,Correct,3,728
3,CYCYC,153,1,802,Correct,3,799
3,VUVUV,192,1,876,Correct,3,798
3,PXPRP,16,2,726,Correct,3,720
3,YPYPY,151,1,838,Correct,3,742
3,CECEC,8,3,587,Correct,3,849
3,VNENV,223,2,1081,Incorrect,3,873
3,KRKFK,222,2,824,Correct,3,792
3,XLXLE,225,1,706,Correct,3,767
3,RFRUR,183,2,736,Correct,3,763
3,XRXLX,16,2,732,Correct,3,868
3,NZNPN,162,2,1061,Correct,3,839
3,XZXZX,151,2,752,Incorrect,3,946
3,FZFZF,152,1,815,Correct,3,712
3,PFPFP,153,1,1017,Correct,3,722
3,YZYXY,161,2,934,Correct,3,915
3,KEKEK,9,3,768,Correct,3,677
3,CXCPC,14,2,986,Correct,3,777
3,VXVXV,151,1,617,Correct,3,912
3,NUNZN,174,2,1213,Correct,3,661
3,RKRVR,16,2,885,Correct,3,817
3,XRXRX,151,1,839,Correct,3,881
3,ERNFN,231,2,1006,Incorrect,3,878
3,YRYNY,222,2,1178,Correct,3,906
3,PZPEP,102,2,803,Incorrect,3,880
3,ZYZXZ,14,2,877,Correct,3,765
3,RZRVR,162,2,834,Correct,3,800
3,XRXRX,151,1,759,Correct,3,930
3,KUKFK,175,2,1493,Correct,3,744
3,RKRKR,15,1,1094,Correct,3,766
3,ZFZFZ,152,1,834,Correct,3,869
3,YZYVY,161,2,774,Correct,3,944
3,XPXNX,162,2,1004,Correct,3,932
3,YRYRY,151,1,846,Correct,3,825
3,EPVPV,221,1,1037,Correct,3,676
3,CRCEC,112,3,609,Correct,3,720
3,RFRCR,14,2,1116,Correct,3,906
3,CPCVC,162,2,823,Correct,3,903
3,RXRCR,163,2,688,Correct,3,757
3,VNVLV,164,2,866,Correct,3,680
3,ZXZXZ,151,1,676,Correct,3,942
3,ZCZCZ,152,1,833,Correct,3,810
3,PYPUP,186,2,646,Correct,3,872
3,YKYPY,16,2,1270,Correct,3,802
3,YREXY,233,2,1134,Correct,3,817
3,ZKZKZ,113,1,890,Correct,3,785
3,XLXNX,161,2,758,Correct,3,671
3,KFKRE,235,2,1075,Correct,3,772
3,RXRLR,222,2,1056,Correct,3,905
3,RERXR,121,3,735,Correct,3,786
4,J,5,3,2230,New Target,4,867
4,CYCVC,161,2,741,Correct,4,888
4,RXRCR,162,2,834,Correct,4,742
4,FPFVF,163,2,747,Correct,4,755
4,LZLZL,151,1,693,Correct,4,823
4,PLPLP,152,1,753,Correct,4,826
4,NPNPN,153,1,669,Correct,4,812
4,XZXZX,161,1,681,Incorrect,4,849
4,CNCKC,162,2,764,Correct,4,681
4,PCPYJ,235,2,869,Correct,4,829
4,VYVYV,113,1,718,Correct,4,760
4,RLRLR,152,1,984,Correct,4,901
4,CJCJC,7,3,876,Correct,4,810
4,ZLZLZ,13,1,755,Correct,4,781
4,FZFZF,152,1,702,Correct,4,796
4,CFCFC,153,1,816,Correct,4,695
4,PZPZP,154,1,685,Correct,4,737
4,XEXEX,191,2,1069,Incorrect,4,699
4,NVNFN,16,2,1489,Correct,4,673
4,KYKYK,151,1,1196,Correct,4,907
4,ZNZVZ,161,2,852,Correct,4,856
4,YVJXY,233,2,765,Correct,4,764
4,XFXFX,113,1,1315,Correct,4,904
4,XNXNX,152,1,1275,Correct,4,762
4,FJFKF,81,3,1055,Correct,4,930
4,CZCYC,14,2,1023,Correct,4,755
4,ZXZCZ,162,2,731,Correct,4,925
4,RYRYJ,225,1,1036,Correct,4,693
4,FPFZF,222,,,Incorrect,4,900
4,XRXRX,151,1,870,Correct,4,736
4,YPYEY,182,2,895,Correct,4,721
4,XRXRX,15,1,1203,Correct,4,883
4,XZXPX,161,2,1266,Correct,4,660
4,CJCJC,9,3,807,Correct,4,874
4,ZXZVZ,14,2,1284,Correct,4,708
4,VKVKV,151,1,521,Correct,4,786
4,VEVNV,173,2,633,Correct,4,871
4,ZKZVZ,16,2,727,Correct,4,833
4,XVXJX,102,2,720,Incorrect,4,893
4,RXRVR,14,2,969,Correct,4,877
4,LRLRL,151,1,731,Correct,4,798
4,YNJNY,223,1,1075,Correct,4,853
4,NPNJN,222,3,807,Incorrect,4,677
4,ZEZEZ,194,1,820,Correct,4,681
4,ZNZNZ,15,1,817,Correct,4,699
4,YZYZY,152,1,844,Correct,4,784
4,XYXYX,153,1,846,Correct,4,918
4,ZXZXZ,221,1,826,Correct,4,661
4,LYLZL,222,2,893,Correct,4,948
4,CYCNC,162,2,718,Correct,4,924
4,XEXEX,195,1,942,Correct,4,747
4,CVCXC,16,2,717,Correct,4,947
4,ZPZXZ,162,2,813,Correct,4,716
4,FZFZF,151,1,666,Correct,4,735
4,RXRJR,112,3,636,Correct,4,739
4,PRPFP,14,2,709,Correct,4,923
4,PKPEP,186,2,852,Correct,4,736
4,XZXPX,16,2,763,Correct,4,870
4,JCZVZ,231,2,882,Correct,4,937
4,RXRLR,222,2,869,Correct,4,855
4,VZVZV,151,1,936,Correct,4,902
4,XJXJX,12,3,840,Correct,4,909
5,I,5,3,1513,New Target,5,890
5,PCPCP,151,1,715,Correct,5,812
5,XYXYX,152,1,635,Correct,5,702
5,VXVXV,153,1,666,Correct,5,773
5,XVXVX,154,1,647,Correct,5,868
5,ZRZXZ,161,2,781,Correct,5,651
5,FPFZF,162,2,725,Correct,5,810
5,ZYZYZ,151,1,679,Correct,5,686
5,RVRZR,161,2,682,Correct,5,723
5,CICIC,7,3,856,Correct,5,797
5,XLXLX,13,1,851,Correct,5,738
5,YVYVY,152,2,587,Incorrect,5,788
5,CJCJC,191,1,1199,Correct,5,740
5,FNFCF,16,2,739,Correct,5,929
5,PVPRP,162,2,783,Correct,5,836
5,FZFZF,151,1,955,Correct,5,727
5,NVIVN,223,1,1091,Correct,5,793
5,CVCIC,82,3,670,Correct,5,830
5,ZXZXZ,13,1,831,Correct,5,707
5,FCFZF,161,,,Incorrect,5,824
5,IXRXR,221,1,988,Correct,5,923
5,ZPZNZ,222,2,694,Correct,5,661
5,VZVZV,151,1,701,Correct,5,900
5,YRYNY,161,2,710,Correct,5,901
5,VNVPV,162,2,786,Correct,5,900
5,RVRJR,182,2,682,Correct,5,857
5,VRVRV,15,1,725,Correct,5,898
5,VIVIV,9,3,783,Correct,5,822
5,CXCVC,14,2,798,Correct,5,659
5,PZPZP,151,1,1002,Correct,5,758
5,IXVKV,231,2,974,Correct,5,699
5,YJYCY,173,2,790,Incorrect,5,655
5,VYVYV,15,1,1139,Correct,5,700
5,YVYVY,152,1,798,Correct,5,802
5,NVNVN,153,3,1043,Incorrect,5,894
5,XYXVX,161,2,1112,Correct,5,680
5,NJNCN,174,2,1060,Correct,5,804
5,NXNYN,16,2,1152,Correct,5,925
5,VXVCV,162,2,682,Correct,5,839
5,ZKZKZ,151,1,778,Correct,5,768
5,XRXYX,161,2,727,Correct,5,707
5,ZCZXZ,162,2,659,Correct,5,785
5,KVKYI,235,2,765,Correct,5,930
5,CNCNC,113,1,981,Correct,5,871
5,RIRIR,10,3,601,Correct,5,771
5,VYVXV,14,2,575,Correct,5,663
5,FXIRF,233,2,843,Correct,5,941
5,PFPFP,113,1,805,Correct,5,729
5,VPVPV,152,1,669,Correct,5,830
5,ZJZJZ,195,1,824,Correct,5,871
5,ZVZNZ,16,2,848,Correct,5,857
5,YVYXY,162,2,834,Correct,5,941
5,PRPRP,151,1,972,Correct,5,770
5,YPYPY,152,1,841,Correct,5,950
5,ZIZPZ,111,3,1368,Correct,5,656
5,NKNXN,14,2,1320,Correct,5,947
5,RZRXR,162,2,830,Correct,5,764
5,RXRXR,151,1,1002,Correct,5,740
5,ZJZJZ,196,1,655,Correct,5,775
5,CVCVI,225,1,770,Incorrect,5,696
5,NKNKN,113,1,1153,Correct,5,653
5,NRNZN,161,2,895,Correct,5,700
5,CNCNC,151,1,930,Correct,5,818
5,RFRIR,122,3,1112,Correct,5,763
6,B,5,3,1511,New Target,6,908
6,YKYZY,161,2,690,Correct,6,828
6,VCVRV,162,2,611,Correct,6,683
6,XVXVX,151,1,710,Correct,6,732
6,KZKRK,161,2,711,Correct,6,687
6,ZVZXZ,162,2,559,Correct,6,934
6,RCRNR,163,2,742,Correct,6,692
6,CXCRC,164,2,709,Correct,6,729
6,VNBCV,233,2,1288,Correct,6,697
6,CXCVC,222,2,698,Correct,6,940
6,RFRFR,151,1,871,Correct,6,823
6,XPXRX,161,2,737,Correct,6,706
6,RYRBR,72,3,703,Correct,6,744
6,ZKZKZ,13,1,732,Correct,6,791
6,FIFRF,171,2,952,Correct,6,831
6,VZVLV,16,2,651,Correct,6,824
6,RPRVR,162,2,796,Correct,6,671
6,YBYBY,8,3,530,Correct,6,927
6,PYPVP,14,2,946,Correct,6,856
6,NININ,192,1,662,Correct,6,774
6,RNRNR,15,1,840,Correct,6,759
6,NXNVN,161,2,692,Correct,6,670
6,RNRNR,151,1,1071,Correct,6,909
6,FRFVF,161,2,636,Correct,6,829
6,YVYFB,235,2,1100,Incorrect,6,767
6,ZRZXZ,222,2,666,Correct,6,770
6,VNVIV,193,2,958,Incorrect,6,674
6,PXPNP,16,2,639,Correct,6,847
6,ZXZPZ,162,2,648,Correct,6,945
6,VBVBV,9,3,573,Correct,6,679
6,CXCXC,13,1,930,Correct,6,705
6,PCPFP,161,2,604,Correct,6,695
6,KNKNK,151,,,Incorrect,6,842
6,XIXIX,194,1,641,Correct,6,791
6,CYCYC,15,1,811,Correct,6,776
6,FVFYF,161,,,Incorrect,6,888
6,YNYRY,162,2,706,Correct,6,819
6,BVPXP,231,2,1230,Correct,6,656
6,NXNXN,113,1,986,Correct,6,935
6,FRFRF,152,1,964,Correct,6,925
6,YVYVY,153,1,894,Correct,6,867
6,ZKZCZ,161,2,703,Correct,6,764
6,VIVXV,175,2,773,Correct,6,913
6,PRBRP,223,1,1303,Correct,6,860
6,YZYBY,102,3,834,Correct,6,914
6,CXCVC,14,2,965,Correct,6,879
6,FYFYF,151,1,1104,Correct,6,754
6,VKVXV,161,2,829,Correct,6,784
6,ZBZBZ,11,3,637,Correct,6,845
6,FPFNF,14,2,1188,Correct,6,803
6,CXCXC,151,1,725,Correct,6,944
6,YCYCY,152,1,985,Correct,6,839
6,FPFPF,153,1,645,Correct,6,916
6,CVCVB,225,1,1050,Correct,6,857
6,ZCZCZ,113,1,684,Correct,6,677
6,CZCNC,161,2,612,Correct,6,804
6,KIKFK,176,2,1330,Correct,6,819
6,PXPXP,15,1,829,Correct,6,948
6,RYRYR,152,1,978,Correct,6,727
6,ZRZCZ,161,2,701,Correct,6,945
6,RVRVR,151,1,721,Correct,6,898
6,XYXNX,161,2,760,Correct,6,722
6,BVKVK,221,1,942,Correct,6,806
6,CBCBC,12,3,748,Correct,6,805
7,W,5,3,1905,New Target,7,913
7,RKRKR,151,1,916,Correct,7,684
7,CVCRC,161,2,658,Correct,7,825
7,PKPKP,151,1,695,Correct,7,911
7,FPFPF,152,1,807,Correct,7,652
7,VRVPV,161,2,1082,Correct,7,822
7,ZKZYZ,162,2,775,Correct,7,710
7,PVPCP,233,2,762,Correct,7,883
7,KVKVK,113,1,832,Correct,7,748
7,YXYVY,161,2,1010,Correct,7,803
7,FNFNF,151,1,741,Correct,7,658
7,YWYWY,7,3,697,Correct,7,900
7,ZYZYZ,13,1,786,Correct,7,681
7,PYPYP,152,1,750,Correct,7,662
7,XRXRX,153,1,798,Correct,7,918
7,PXPXP,154,1,599,Correct,7,714
7,FCFBF,181,2,853,Correct,7,737
7,FVFVF,15,1,692,Correct,7,892
7,CYCZC,161,2,764,Correct,7,713
7,XZXVX,162,2,1021,Correct,7,935
7,PFPFP,151,1,827,Correct,7,738
7,RVRLR,161,2,755,Correct,7,689
7,ZBZBZ,192,1,1003,Correct,7,769
7,VCVNV,16,2,795,Correct,7,709
7,NWNWN,8,3,644,Correct,7,663
7,XNXVX,14,2,1100,Correct,7,849
7,CXCNC,162,2,696,Correct,7,673
7,YVYVW,225,1,1021,Correct,7,866
7,VFVFV,113,1,795,Correct,7,748
7,VFWFV,223,1,929,Correct,7,742
7,CVCFC,222,2,865,Correct,7,775
7,YBYBY,193,1,1585,Correct,7,874
7,PYPYP,15,1,681,Correct,7,682
7,NKNWN,91,3,695,Correct,7,787
7,VNVNV,13,1,781,Correct,7,859
7,RVRVR,152,1,724,Correct,7,683
7,FVFBF,184,2,782,Incorrect,7,747
7,VZVKV,16,2,637,Correct,7,940
7,VPVCV,162,2,792,Correct,7,775
7,WYZCZ,231,2,836,Correct,7,677
7,PFPFP,113,1,770,Correct,7,901
7,PRPRP,152,1,946,Correct,7,911
7,NWNWN,10,3,805,Correct,7,756
7,VKVCV,14,2,1089,Correct,7,920
7,WPYPY,221,1,792,Correct,7,891
7,VBVBV,195,1,642,Correct,7,657
7,ZKZYZ,16,2,1048,Correct,7,935
7,XYXYX,151,1,789,Correct,7,764
7,FZFXF,161,2,782,Correct,7,679
7,XKXKX,151,1,1104,Correct,7,940
7,XPXPX,152,1,795,Correct,7,738
7,FWFWF,11,3,1326,Correct,7,825
7,FNFBF,186,2,909,Correct,7,859
7,ZVZYZ,16,2,862,Correct,7,677
7,FZFZF,151,1,734,Correct,7,896
7,NPNFW,235,2,934,Correct,7,795
7,PCPCP,113,1,649,Correct,7,663
7,NKNWN,122,3,687,Correct,7,934
8,M,5,3,3782,New Target,8,754
8,VYVNV,161,2,916,Correct,8,941
8,KLKNK,162,2,850,Correct,8,753
8,NRNRN,151,1,658,Correct,8,931
8,VNVFV,161,2,657,Correct,8,751
8,XNXNM,225,1,778,Correct,8,772
8,CXCVC,222,2,639,Correct,8,798
8,KRKZK,162,2,815,Correct,8,655
8,NMNFN,71,3,528,Correct,8,858
8,ZFZFZ,13,1,561,Correct,8,725
8,YPYCY,161,2,850,Correct,8,694
8,KCKCK,151,1,614,Correct,8,746
8,VNVNV,152,2,468,Incorrect,8,776
8,LXLXL,153,1,765,Correct,8,664
8,CLCLC,154,1,591,Correct,8,909
8,NYNYN,155,1,652,Correct,8,777
8,LCMYL,233,2,705,Correct,8,911
8,NCNCN,113,1,809,Correct,8,784
8,ZVZRZ,161,2,677,Correct,8,699
8,ZVZVZ,151,1,779,Correct,8,766
8,PZPVP,161,2,703,Correct,8,791
8,PWPNP,171,2,1275,Correct,8,848
8,KLKCM,235,2,912,Correct,8,683
8,XMXMX,8,3,803,Correct,8,770
8,PRPXP,14,2,835,Correct,8,892
8,CVCYC,162,2,853,Correct,8,792
8,PXPMP,92,2,823,Incorrect,8,887
8,ZCZLZ,14,2,821,Correct,8,892
8,XWXWX,192,3,848,Incorrect,8,658
8,ZCZLZ,16,2,942,Correct,8,942
8,MNCYC,231,2,703,Correct,8,725
8,ZXZXZ,113,1,610,Correct,8,940
8,YRYNY,161,2,1211,Correct,8,930
8,ZLZPZ,162,2,800,Correct,8,794
8,VZVZV,151,1,756,Correct,8,798
8,MXPXP,221,1,829,Correct,8,787
8,VWVWV,193,1,1057,Correct,8,783
8,PYPYP,16,1,716,Incorrect,8,881
8,XPXVX,162,2,656,Correct,8,856
8,XLXLX,151,1,641,Correct,8,651
8,YMYMY,10,3,605,Correct,8,670
8,VYVYV,13,1,629,Correct,8,913
8,PWPZP,174,2,958,Correct,8,856
8,PYPKP,16,2,760,Correct,8,910
8,NPNXN,162,2,703,Correct,8,769
8,KVKVK,223,1,857,Correct,8,793
8,NVNFN,222,2,906,Correct,8,872
8,XNXNX,151,1,1258,Correct,8,771
8,YZYMY,112,3,579,Correct,8,656
8,PFPFP,13,,,Incorrect,8,774
8,ZWZWZ,195,1,867,Correct,8,947
8,PCPZP,16,2,802,Correct,8,804
8,LRLPL,162,2,958,Correct,8,942
8,CZCZC,151,1,1053,Correct,8,813
8,NZNZN,152,1,850,Correct,8,920
8,CVCXC,161,2,805,Correct,8,757
8,XCXCX,151,1,682,Correct,8,769
8,YWYWY,196,1,1159,Correct,8,682
8,NLNLN,15,1,856,Correct,8,915
8,VNVNV,152,1,812,Correct,8,864
8,ZMZMZ,12,3,751,Correct,8,747
9,S,5,3,1700,New Target,9,901
9,NZNZN,151,1,565,Correct,9,800
9,KVKZK,161,2,616,Correct,9,659
9,LZLZL,151,1,514,Correct,9,810
9,XLXLX,152,1,771,Correct,9,755
9,ZXZXZ,153,1,756,Correct,9,903
9,KNKZK,161,2,684,Correct,9,810
9,NRNYN,162,2,833,Correct,9,903
9,CLCVC,163,2,802,Correct,9,809
9,ZCZFZ,164,2,628,Correct,9,803
9,NSNSN,7,3,756,Correct,9,679
9,VZVZV,13,1,864,Correct,9,664
9,NVNCN,161,2,492,Correct,9,887
9,VMVMV,191,,,Incorrect,9,852
9,CVCXC,16,2,735,Correct,9,832
9,ZYZRZ,162,2,758,Correct,9,824
9,XNXZX,163,2,767,Correct,9,726
9,PXPXP,151,1,630,Correct,9,784
9,VCVSV,82,3,1076,Correct,9,703
9,PRPCP,14,2,1441,Correct,9,670
9,ZMZMZ,192,1,812,Incorrect,9,877
9,ZFZFZ,15,1,694,Correct,9,651
9,FCFCF,152,1,734,Correct,9,740
9,YLYZY,161,2,966,Correct,9,796
9,KNKVK,162,2,866,Correct,9,793
9,SFPCP,231,2,1049,Correct,9,659
9,RPRPR,113,1,935,Correct,9,702
9,XMXMX,193,1,1032,Correct,9,802
9,KFKFK,15,1,758,Correct,9,714
9,VSVSV,9,3,801,Correct,9,701
9,YVSVY,223,1,975,Correct,9,888
9,VPVPV,113,1,672,Correct,9,762
9,XZXZX,152,1,601,Correct,9,779
9,KZKXK,161,2,805,Correct,9,819
9,RFRPR,162,2,775,Correct,9,806
9,NVNVS,225,1,913,Correct,9,703
9,ZXZXZ,113,1,790,Correct,9,656
9,SRVRV,221,1,760,Correct,9,836
9,YCYCY,113,1,620,Correct,9,881
9,KMKZK,174,3,924,Incorrect,9,750
9,FZSVF,233,2,1482,Correct,9,807
9,VYVYV,113,1,738,Correct,9,846
9,LVLVL,152,1,784,Correct,9,692
9,YFYFY,153,1,862,Correct,9,920
9,NXNSN,102,3,996,Correct,9,742
9,FNFCF,14,2,807,Correct,9,716
9,KVKVK,151,1,1048,Correct,9,862
9,VZVCV,161,2,901,Correct,9,715
9,ZYZMZ,185,2,949,Correct,9,749
9,VXVZV,16,2,792,Correct,9,734
9,VPVPV,151,1,1006,Correct,9,762
9,RVRNS,235,2,735,Correct,9,690
9,YZYZY,113,1,802,Correct,9,912
9,ZSZSZ,11,3,791,Correct,9,692
9,FRFRF,13,1,963,Correct,9,945
9,ZMZMZ,196,1,1244,Correct,9,906
9,NZNXN,16,2,828,Correct,9,838
9,LSLFL,121,3,987,Correct,9,936
10,Q,5,3,3332,New Target,10,792
10,ZVZPZ,161,2,1004,Correct,10,914
10,RZRZR,151,1,651,Correct,10,734
10,ZFZFZ,152,1,837,Correct,10,788
10,RZRZR,153,1,556,Correct,10,777
10,PZPXP,161,2,629,Correct,10,875
10,VFQPV,233,2,1475,Correct,10,795
10,ZPZRZ,222,2,649,Correct,10,867
10,CYCVC,162,2,738,Correct,10,789
10,CPCPC,151,1,780,Correct,10,818
10,YZYQY,72,3,964,Correct,10,790
10,FVFXF,14,2,978,Correct,10,781
10,YNYNQ,225,1,875,Correct,10,939
10,ZYZYZ,113,1,832,Correct,10,780
10,FRFSF,181,2,929,Incorrect,10,799
10,XNXPX,16,2,770,Correct,10,809
10,NXNXN,151,1,603,Correct,10,743
10,PVPZP,161,2,735,Correct,10,905
10,XVXPX,162,2,700,Correct,10,665
10,FXFVF,163,2,607,Correct,10,928
10,NSNKN,172,2,664,Incorrect,10,870
10,VXVNV,16,2,684,Correct,10,901
10,XZXZX,151,1,850,Correct,10,791
10,VQVQV,8,3,572,Correct,10,747
10,ZYZPZ,14,2,694,Correct,10,781
10,PZPSP,183,2,640,Correct,10,774
10,YVYVY,15,1,623,Correct,10,700
10,NCNQN,92,2,700,Incorrect,10,777
10,FCFVF,14,2,757,Correct,10,789
10,ZFZFZ,151,1,797,Correct,10,771
10,NSNSN,194,1,1299,Correct,10,888
10,YPYFY,16,2,615,Correct,10,703
10,ZKZKZ,151,1,673,Correct,10,832
10,QZRCR,231,2,1135,Correct,10,655
10,YPYVY,222,2,902,Correct,10,896
10,ZNZNZ,151,1,707,Correct,10,803
10,VQVQV,10,3,618,Correct,10,837
10,RVRZR,14,2,1282,Correct,10,901
10,KRKSK,185,2,905,Correct,10,668
10,NPNPN,15,1,887,Correct,10,896
10,YPYPY,152,1,732,Correct,10,681
10,VCVYV,161,2,645,Correct,10,746
10,FPFNF,162,2,950,Correct,10,694
10,QVXVX,221,1,971,Correct,10,658
10,ZVZRZ,222,2,1269,Correct,10,806
10,LFLFL,151,1,731,Correct,10,829
10,VLVLV,152,1,976,Correct,10,816
10,KXQXK,223,1,1039,Correct,10,788
10,YQYQY,11,3,773,Correct,10,883
10,YCYCY,13,1,856,Correct,10,855
10,PZPYP,161,2,746,Correct,10,772
10,LPLFL,162,2,820,Correct,10,737
10,VSVSV,196,1,739,Correct,10,919
10,VFVYQ,235,2,1052,Correct,10,728
10,CZCXC,222,2,811,Correct,10,824
10,PVPCP,162,2,746,Correct,10,862
10,CXCXC,151,1,946,Correct,10,744
10,NZNZN,152,1,1214,Correct,10,945
10,YPYCY,161,2,690,Correct,10,830
10,ZQZQZ,12,3,856,Correct,10,851
11,T,5,3,2072,New Target,11,877
11,KFKFK,151,1,1207,Correct,11,823
11,LZLZL,152,1,682,Correct,11,818
11,PFPVP,161,2,689,Correct,11,886
11,FRFPF,162,2,621,Correct,11,759
11,FZFZF,151,1,700,Correct,11,683
11,VTVTV,7,3,703,Correct,11,945
11,KYKCK,14,2,931,Correct,11,931
11,VPVPV,151,1,720,Correct,11,799
11,XQXQX,191,1,1141,Correct,11,858
11,PZPYP,16,2,929,Correct,11,660
11,KXKLK,162,2,733,Correct,11,821
11,TCNCN,221,1,720,Correct,11,907
11,PZPNP,222,2,1213,Correct,11,715
11,RCRPR,162,2,837,Correct,11,691
11,PZPRT,235,2,867,Correct,11,923
11,XFXVX,222,2,1209,Correct,11,744
11,LTLVL,81,2,663,Incorrect,11,928
11,ZCZPZ,14,2,671,Correct,11,809
11,NCNQN,182,2,726,Correct,11,871
11,XZXNX,16,2,621,Correct,11,731
11,ZPZPZ,151,1,1005,Correct,11,705
11,CFCFC,152,1,889,Correct,11,745
11,VXTRV,233,2,1451,Correct,11,786
11,CFCVC,222,2,977,Correct,11,896
11,PYPYP,151,1,817,Correct,11,768
11,FQFYF,173,2,1030,Correct,11,721
11,CNCFC,16,,,Incorrect,11,666
11,PTPTP,9,3,1006,Correct,11,770
11,ZCZCZ,13,1,751,Correct,11,658
11,KZKZK,152,1,762,Correct,11,737
11,RLRVR,161,2,642,Correct,11,769
11,ZRZKZ,162,2,791,Correct,11,887
11,KLKLT,225,1,684,Correct,11,852
11,ZQZQZ,194,1,1092,Correct,11,798
11,VZVZV,15,2,665,Incorrect,11,921
11,RVRZR,161,2,820,Correct,11,762
11,ZPZCZ,162,2,632,Correct,11,790
11,VYVYV,151,1,718,Correct,11,900
11,RVRVR,152,1,894,Correct,11,928
11,PTPTP,10,1,789,Incorrect,11,687
11,PXPXP,13,2,732,Incorrect,11,744
11,KCKCK,152,1,646,Correct,11,708
11,YVYVY,153,1,607,Correct,11,818
11,CYCYC,154,1,523,Correct,11,828
11,XCXCX,155,1,810,Correct,11,787
11,CYCQC,185,2,683,Correct,11,920
11,KCKNK,16,2,791,Correct,11,801
11,VPVPV,151,1,659,Correct,11,651
11,TXFZF,231,2,634,Correct,11,789
11,NYNVN,222,2,627,Correct,11,841
11,VQVXV,176,2,731,Correct,11,929
11,ZRZRZ,15,1,994,Correct,11,816
11,VTVZV,111,3,1019,Correct,11,828
11,PXPVP,14,2,789,Correct,11,880
11,FVFVF,151,1,716,Correct,11,769
11,VRVLV,161,2,741,Correct,11,774
11,YCYCY,151,1,684,Correct,11,800
11,XZTZX,223,1,1371,Correct,11,944
11,VTVTV,12,3,774,Correct,11,924
12,O,5,3,1362,New Target,12,842
12,VXVLV,161,2,843,Correct,12,656
12,KVKCK,162,2,610,Correct,12,735
12,VLVLV,151,1,886,Correct,12,939
12,ZCZVZ,161,2,540,Correct,12,723
12,KFKFK,151,1,600,Correct,12,872
12,XKXKX,152,1,794,Correct,12,663
12,YXYXY,153,1,741,Correct,12,661
12,FVFVF,154,1,752,Correct,12,685
12,PVPOP,72,3,915,Correct,12,869
12,ZXZYZ,14,2,1105,Correct,12,848
12,PXPVP,162,2,692,Correct,12,927
12,ZTZTZ,191,1,1217,Correct,12,684
12,CVCKC,16,2,721,Correct,12,829
12,CKCKC,151,1,696,Correct,12,816
12,NPNPN,152,1,744,Correct,12,653
12,ZRZNZ,161,2,1172,Correct,12,659
12,OZCZC,221,1,1012,Correct,12,895
12,LFLFL,113,1,757,Correct,12,720
12,CXCXC,152,1,621,Correct,12,707
12,KPKPK,153,1,532,Correct,12,889
12,FRFKF,161,2,927,Correct,12,949
12,FOFOF,8,3,843,Correct,12,888
12,ZFZFZ,13,1,851,Correct,12,699
12,LKLZO,235,2,911,Correct,12,950
12,KLKZK,222,2,770,Correct,12,653
12,YXYCY,162,2,635,Correct,12,716
12,LOLOL,9,3,711,Correct,12,778
12,XLXLX,13,1,1502,Correct,12,801
12,XVXVX,152,1,1018,Correct,12,760
12,FTFTF,192,1,1114,Correct,12,702
12,OXNZN,231,2,1236,Correct,12,714
12,CZCZC,113,1,650,Correct,12,726
12,LZLZL,152,1,642,Correct,12,895
12,VLVPV,161,2,872,Correct,12,949
12,VYVYO,225,1,1418,Correct,12,765
12,XKXKX,113,1,1044,Correct,12,788
12,RTRTR,193,1,681,Correct,12,934
12,KVKCK,16,2,807,Correct,12,782
12,ROROR,101,3,580,Correct,12,844
12,PRPRP,13,1,1294,Correct,12,893
12,LYLVL,161,2,907,Correct,12,851
12,PLPLP,151,1,1458,Correct,12,683
12,CTCTC,194,2,815,Incorrect,12,715
12,XZXYX,16,2,1066,Correct,12,651
12,NKNKN,151,1,755,Correct,12,859
12,VLVZV,161,2,747,Correct,12,666
12,YOYOY,11,3,975,Correct,12,890
12,PZOZP,223,,,Incorrect,12,843
12,FYFYF,113,1,588,Correct,12,941
12,ZXZVZ,161,2,630,Correct,12,850
12,VKVZV,162,2,826,Correct,12,876
12,ZTZTZ,195,1,972,Correct,12,867
12,LKLZL,16,2,1384,Correct,12,759
12,KCKVK,162,2,1062,Correct,12,814
12,PXPKP,163,2,1142,Correct,12,651
12,KCOZK,233,2,1452,Correct,12,856
12,FKFKF,113,3,1236,Incorrect,12,926
12,CTCRC,176,2,712,Correct,12,835
12,NXNXN,15,1,618,Correct,12,947
12,KXKVK,161,2,648,Correct,12,709
12,CPCOC,122,3,676,Correct,12,723
13,H,5,3,2718,New Target,13,759
13,VFVNV,151,2,1220,Incorrect,13,845
13,YVYVY,152,1,652,Correct,13,653
13,XVXVX,153,1,630,Correct,13,824
13,NRNXN,161,2,1003,Correct,13,926
13,PZPKP,162,,,Incorrect,13,654
13,HLVLV,221,1,1219,Correct,13,797
13,CXCZC,222,2,544,Correct,13,910
13,LHLYL,71,3,495,Correct,13,870
13,YKYFY,14,2,1085,Correct,13,905
13,YOYRY,171,2,722,Correct,13,865
13,ZKZYZ,16,2,844,Correct,13,773
13,RZRZR,151,1,915,Correct,13,693
13,NFNYN,161,2,663,Correct,13,681
13,KVKFK,162,2,739,Correct,13,713
13,XFXYX,163,2,648,Correct,13,913
13,LKLVL,164,2,646,Correct,13,758
13,NLNLN,151,1,559,Correct,13,786
13,XCXOX,182,2,814,Correct,13,745
13,FXFXF,15,2,675,Incorrect,13,777
13,VHVHV,8,3,892,Correct,13,882
13,PVPVP,13,1,537,Correct,13,846
13,CRCXC,161,2,598,Correct,13,761
13,NXNXN,151,1,581,Correct,13,813
13,XRXRX,152,1,940,Correct,13,912
13,YFYXY,161,2,731,Correct,13,779
13,ZOZOZ,193,2,1028,Incorrect,13,705
13,RZRZR,15,1,1199,Correct,13,801
13,FKFKF,152,1,1474,Correct,13,859
13,PFPFP,153,1,752,Correct,13,676
13,XYXHX,92,3,583,Correct,13,836
13,RZRKR,14,2,1017,Correct,13,717
13,FLFLH,225,1,688,Correct,13,861
13,KRKRK,113,1,1135,Correct,13,667
13,ZVZNZ,161,2,701,Correct,13,944
13,ZOZOZ,194,1,1004,Correct,13,706
13,FZFZF,15,1,708,Correct,13,940
13,FHFKF,101,3,780,Correct,13,727
13,ZXHLZ,233,2,1312,Correct,13,875
13,FKFXF,222,2,916,Correct,13,810
13,CFCYC,162,2,724,Correct,13,803
13,ZXZVZ,163,2,801,Correct,13,654
13,KCKOK,185,2,772,Correct,13,769
13,ZXZVH,235,2,940,Correct,13,697
13,CKCKC,113,1,1239,Correct,13,841
13,ZXZCZ,161,2,794,Correct,13,811
13,YVYVY,151,2,940,Incorrect,13,796
13,RVHVR,223,1,779,Correct,13,885
13,ZRZRZ,113,1,640,Correct,13,796
13,ZHZHZ,11,3,558,Correct,13,708
13,VZVZV,13,1,552,Correct,13,878
13,HZVRV,231,2,678,Correct,13,855
13,FVFVF,113,1,642,Correct,13,719
13,RNRCR,161,2,800,Correct,13,677
13,COCOC,196,1,937,Correct,13,684
13,VNVXV,16,2,883,Correct,13,826
13,XHXHX,12,3,897,Correct,13,899
14,G,5,3,1893,New Target,14,877
14,FZFZF,151,1,691,Correct,14,797
14,RPRVR,161,2,742,Correct,14,871
14,XCXCX,151,1,575,Correct,14,716
14,YXYXY,152,1,738,Correct,14,652
14,KZKZK,153,1,613,Correct,14,919
14,RYRKR,161,2,549,Correct,14,691
14,FYFNF,162,2,641,Correct,14,911
14,VKVKV,151,1,581,Correct,14,917
14,KPGPK,223,1,1239,Correct,14,744
14,YNYNY,113,1,886,Correct,14,941
14,VYVYV,152,1,697,Correct,14,711
14,YCYXY,161,2,948,Correct,14,750
14,LKLGL,72,2,876,Incorrect,14,929
14,VXVXV,13,1,619,Correct,14,877
14,KCKVK,161,2,760,Correct,14,684
14,YKYKY,151,1,556,Correct,14,862
14,RHRXR,171,2,808,Correct,14,890
14,FVFCF,16,2,1051,Correct,14,847
14,YXYGY,82,3,729,Correct,14,714
14,CLCLC,13,1,851,Correct,14,763
14,ZXZCZ,161,2,650,Correct,14,670
14,VLVFV,162,1,648,Incorrect,14,668
14,CPCPG,225,1,528,Correct,14,934
14,KHKNK,172,2,688,Correct,14,780
14,ZKZVZ,16,2,744,Correct,14,807
14,YKYLY,162,2,656,Correct,14,704
14,CNCNC,151,1,860,Correct,14,756
14,PGPGP,9,3,763,Correct,14,895
