Trial No,Stimulus,Trigger,Response,Response Time(ms),Correct,Block,Fixation Duration
Practice
OT Practice
1,SKSKS,15,1,782,Correct,0,655
1,DLDUD,16,2,646,Correct,0,741
1,PDPGP,16,2,689,Correct,0,796
1,MWMWM,15,1,666,Correct,0,840
1,FTFTF,15,1,915,Correct,0,888
1,AXAMA,16,2,642,Correct,0,911
1,RYRGR,16,2,657,Correct,0,764
1,DODOD,15,1,567,Correct,0,917
1,QTQAQ,16,2,682,Correct,0,700
1,YEYEY,15,1,647,Correct,0,746
2,GYGDG,16,2,755,Correct,0,678
2,SWSWS,15,1,768,Correct,0,660
2,HLHUH,16,2,860,Correct,0,662
2,DEDED,15,1,689,Correct,0,811
2,ZPZOZ,16,2,696,Correct,0,875
2,ATATA,15,1,785,Correct,0,787
2,QOQOQ,15,1,986,Correct,0,707
2,FPFGF,16,2,631,Correct,0,802
2,TRTET,16,2,625,Correct,0,869
2,DQDQD,15,2,742,False,0,652
4,PLPLP,15,1,729,Correct,0,910
4,ATAIA,16,2,638,Correct,0,899
4,SKSGS,16,2,640,Correct,0,681
4,ZYZYZ,15,1,783,Correct,0,723
4,QSQSQ,15,1,605,Correct,0,659
4,TZTDT,16,2,605,Correct,0,722
4,JYJGJ,16,2,829,Correct,0,692
4,DYDYD,15,1,948,Correct,0,698
4,LTLCL,16,2,597,Correct,0,752
4,FQFEF,16,2,627,Correct,0,832
DT Practice
1,TKTKT,15,2,911,False,0,945
1,SLSUS,16,2,823,Correct,0,658
1,VZVGV,7,[1][3],[1062][1206],False,0,848
1,XWXZX,7,[2][3],[1436][1596],Correct,0,750
1,ATATA,15,1,955,Correct,0,921
1,HXZMH,16,2,1051,Correct,0,824
1,TZTZT,7,[1][3],[899][1075],Correct,0,809
1,UOUOU,15,1,958,Correct,0,764
1,ZTWAW,16,2,824,Correct,0,920
1,RZRER,7,[1][3],[941][1389],False,0,764
2,JYJDJ,16,2,1085,Correct,0,659
2,DWDWD,15,1,1123,Correct,0,930
2,GNGNG,7,[1][3],[946][1266],Correct,0,854
2,NEZEZ,16,1,977,Correct,0,941
2,RNROR,7,[2][3],[1233][1424],Correct,0,927
2,QTQNQ,7,[2][3],[958][1182],Correct,0,754
2,HOHON,15,1,852,Correct,0,896
2,KPKGK,16,2,923,Correct,0,730
2,DRDED,16,2,897,Correct,0,662
2,LNLNL,7,[1][3],[777][953],Correct,0,780
4,GLGLG,15,1,1037,Correct,0,933
4,DTDID,16,2,640,Correct,0,671
4,SMSGS,16,2,697,Correct,0,877
4,ZFZYZ,7,[2][3],[1034][1258],Correct,0,674
4,TSTFT,7,[2][3],[1204][1380],Correct,0,897
4,OFOFO,7,[1][3],[629][789],Correct,0,775
4,WYFGW,16,2,668,Correct,0,866
4,WYWYW,15,1,1011,Correct,0,907
4,MFMCM,7,[2][3],[997][1141],Correct,0,742
4,HQHEH,16,2,804,Correct,0,873
Trials
1,D,5,3,11458,New Target,1,675
1,ZNZYZ,161,2,1069,Correct,1,704
1,FZFZF,151,1,895,Correct,1,687
1,RKRKR,152,1,888,Correct,1,684
1,RXRNR,161,2,755,Correct,1,691
1,CNCFC,162,2,754,Correct,1,704
1,PDPDP,7,[1][3],[659][835],Correct,1,654
1,CPCFC,14,2,955,Correct,1,757
1,VLVNV,162,2,727,Correct,1,914
1,KFKFK,151,1,917,Correct,1,770
1,ZNZNZ,152,1,871,Correct,1,874
1,KCKPD,235,2,883,Correct,1,712
1,ZKZFZ,222,2,775,Correct,1,803
1,NRNZN,162,2,724,Correct,1,705
1,KXKRK,163,2,751,Correct,1,826
1,YPYZY,164,2,669,Correct,1,743
1,FKDKF,223,2,1270,Incorrect,1,908
1,RPRPR,113,1,1135,Correct,1,731
1,VRVKV,161,2,974,Correct,1,769
1,RFRPR,162,2,963,Correct,1,763
1,KVKVK,151,1,744,Correct,1,708
1,YKYVY,161,2,774,Correct,1,715
1,VDVDV,8,[1][3],[763][939],Correct,1,839
1,DVZVZ,221,1,1036,Correct,1,835
1,YFYFY,113,1,749,Correct,1,737
1,ZYZYZ,152,1,873,Correct,1,817
1,VLVXV,161,2,736,Correct,1,845
1,DPXZX,231,2,751,Correct,1,720
1,RYRYR,113,1,1057,Correct,1,679
1,PDPNP,91,[2][3],[979][1171],Correct,1,746
1,KXKXK,13,1,996,Correct,1,851
1,ZYZYZ,152,1,623,Correct,1,924
1,VKVKV,153,1,896,Correct,1,815
1,YZYZY,154,1,946,Correct,1,898
1,NLNZN,161,2,819,Correct,1,833
1,ZNDYZ,233,2,1080,Correct,1,876
1,PCPXP,222,2,662,Correct,1,781
1,ZVZFZ,162,2,610,Correct,1,827
1,RCRZR,163,2,723,Correct,1,808
1,LRLRL,151,1,704,Correct,1,733
1,ZDZDZ,10,[1][3],[835][995],Correct,1,770
1,RNRZR,14,2,653,Correct,1,777
1,CXCYC,162,2,869,Correct,1,938
1,RCRLR,163,2,719,Correct,1,663
1,FRFRF,151,1,825,Correct,1,864
1,XFXFX,152,1,835,Correct,1,735
1,RPRLR,161,2,795,Correct,1,778
1,YXYRY,162,2,949,Correct,1,824
1,FYFYF,151,1,660,Correct,1,867
1,YZYVY,161,2,641,Correct,1,856
1,YKYKY,151,1,789,Correct,1,683
1,XRXRX,152,1,977,Correct,1,725
1,XVXZX,161,2,835,Correct,1,860
1,PDPDP,11,[1][3],[693][885],Correct,1,919
1,ZFZFZ,13,1,982,Correct,1,830
1,PXPXP,152,1,715,Correct,1,723
1,LYLYL,153,1,670,Correct,1,660
1,NKNKD,225,1,899,Correct,1,659
1,ZNZNZ,113,2,1304,Incorrect,1,820
1,PYPZP,161,2,802,Correct,1,699
1,XPXPX,151,1,876,Correct,1,791
1,VLVLV,152,1,630,Correct,1,704
1,PKPXP,161,2,792,Correct,1,723
1,FZFZF,151,1,802,Correct,1,762
1,LDLDL,12,[1][3],[694][854],Correct,1,681
2,U,5,3,2246,New Target,2,652
2,ZVZFZ,161,2,756,Correct,2,774
2,FZFZF,151,1,672,Correct,2,773
2,RFRFR,152,1,931,Correct,2,707
2,NZNKN,161,2,715,Correct,2,693
2,FZFNF,162,2,739,Correct,2,883
2,RXRXR,151,1,700,Correct,2,920
2,KRKYK,161,2,755,Correct,2,926
2,NZNPN,162,2,865,Correct,2,718
2,XPXPX,151,1,907,Correct,2,650
2,CUCUC,7,[1][3],[975][1151],Correct,2,808
2,RFRFR,13,1,770,Correct,2,900
2,VYVXV,161,2,761,Correct,2,876
2,VDVDV,191,1,758,Correct,2,732
2,ZKZRZ,15,2,752,Correct,2,791
2,XCXCX,151,1,817,Correct,2,688
2,CNCUC,82,[2][3],[817][993],Correct,2,915
2,RCRCR,13,1,548,Correct,2,697
2,ZPZXZ,161,2,614,Correct,2,823
2,FKFYF,162,2,617,Correct,2,774
2,ZFZYZ,163,2,823,Correct,2,860
2,PXPXP,151,1,844,Correct,2,848
2,URCKC,231,2,712,Correct,2,731
2,PCPCP,113,1,629,Correct,2,788
2,XNXNX,152,1,871,Correct,2,786
2,RCRZR,161,2,659,Correct,2,713
2,XVXVX,151,1,790,Correct,2,701
2,NRNRN,152,1,774,Correct,2,654
2,FPFPF,225,1,724,Correct,2,705
2,XVXFX,222,2,624,Correct,2,844
2,PRPRP,151,1,1021,Correct,2,880
2,FYFCF,161,2,691,Correct,2,722
2,XUXFX,91,[1][3],[740][1252],Incorrect,2,896
2,CYCVC,14,2,843,Correct,2,913
2,VDVKV,172,2,745,Correct,2,660
2,YCYCY,15,1,674,Correct,2,928
2,NKNLN,161,2,628,Correct,2,708
2,XPUKX,233,2,838,Correct,2,726
2,ZPZPZ,113,1,706,Correct,2,717
2,KRKRK,152,1,896,Correct,2,758
2,XKXKX,153,1,862,Correct,2,656
2,YUYVY,101,[2][3],[877][1069],Correct,2,716
2,XKXFU,235,2,873,Correct,2,938
2,NFNFN,113,1,704,Correct,2,794
2,KDKDK,193,1,811,Correct,2,882
2,XYXKX,16,2,953,Correct,2,652
2,YZUZY,223,2,961,Incorrect,2,655
2,KFKVK,222,2,965,Correct,2,737
2,LYLYL,151,1,792,Correct,2,769
2,CXCDC,184,2,866,Incorrect,2,802
2,XZXNX,16,2,717,Correct,2,711
2,PXPXP,151,1,810,Correct,2,778
2,ZRZYZ,161,2,693,Correct,2,725
2,PUPYP,111,[2][3],[896][1056],Correct,2,704
2,RNRNR,14,1,881,Correct,2,717
2,KDKDK,195,1,838,Correct,2,853
2,KNKNK,15,1,698,Correct,2,946
2,PRPKP,161,2,712,Correct,2,804
2,UNYNY,221,1,883,Correct,2,814
2,NYNYN,113,1,797,Correct,2,676
2,YXYXY,152,1,744,Incorrect,2,763
2,RDRDR,196,1,690,Correct,2,909
2,FCFCF,15,1,624,Correct,2,715
2,ZKZKZ,152,1,627,Correct,2,712
2,ZUZUZ,12,[1][3],[821][996],Correct,2,841
3,E,5,3,2280,New Target,3,779
3,YZYZY,151,1,759,Correct,3,699
3,VFVNV,161,2,738,Correct,3,829
3,KYKYK,151,1,717,Correct,3,724
3,NKNKN,152,1,824,Correct,3,782
3,XVXNX,161,2,719,Correct,3,902
3,RERFR,71,[2][3],[996][1156],Correct,3,947
3,XNXNX,13,1,704,Correct,3,762
3,NXNXN,152,1,903,Correct,3,893
3,ZLZNZ,161,2,690,Correct,3,681
3,CUCNC,171,2,878,Correct,3,835
3,FYFRF,16,2,723,Correct,3,889
3,ZLZLZ,151,1,719,Correct,3,726
3,YZYZY,152,1,940,Correct,3,796
3,CYCYC,153,1,707,Correct,3,703
3,VUVUV,192,2,1078,Incorrect,3,683
3,PXPRP,16,2,825,Correct,3,715
3,YPYPY,151,1,965,Correct,3,678
3,CECEC,8,[1][3],[1032][1176],Correct,3,897
3,VNENV,223,1,1068,Correct,3,784
3,KRKFK,222,2,785,Correct,3,661
3,XLXLE,225,1,876,Correct,3,801
3,RFRUR,183,2,902,Correct,3,709
3,XRXLX,16,2,807,Correct,3,860
3,NZNPN,162,2,822,Correct,3,657
3,XZXZX,151,1,717,Correct,3,786
3,FZFZF,152,1,844,Correct,3,779
3,PFPFP,153,1,872,Correct,3,687
3,YZYXY,161,2,766,Correct,3,812
3,KEKEK,9,[1][3],[792][984],Correct,3,900
3,CXCPC,14,2,686,Correct,3,908
3,VXVXV,151,1,1102,Correct,3,689
3,NUNZN,174,2,1001,Correct,3,854
3,RKRVR,16,2,853,Correct,3,937
3,XRXRX,151,1,832,Correct,3,678
3,ERNFN,231,2,919,Incorrect,3,766
3,YRYNY,222,2,783,Correct,3,746
3,PZPEP,102,[2][3],[1175][1367],Correct,3,762
3,ZYZXZ,14,2,768,Correct,3,901
3,RZRVR,162,2,752,Correct,3,724
3,XRXRX,151,1,732,Correct,3,750
3,KUKFK,175,2,650,Correct,3,735
3,RKRKR,15,1,749,Correct,3,666
3,ZFZFZ,152,1,1012,Correct,3,833
3,YZYVY,161,2,709,Correct,3,824
3,XPXNX,162,2,869,Correct,3,786
3,YRYRY,151,1,879,Correct,3,679
3,EPVPV,221,1,816,Correct,3,892
3,CRCEC,112,[2][3],[1252][1460],Correct,3,717
3,RFRCR,14,2,804,Correct,3,810
3,CPCVC,162,2,912,Correct,3,673
3,RXRCR,163,2,753,Correct,3,919
3,VNVLV,164,2,812,Correct,3,797
3,ZXZXZ,151,1,877,Correct,3,653
3,ZCZCZ,152,1,725,Correct,3,784
3,PYPUP,186,2,786,Correct,3,756
3,YKYPY,16,2,888,Correct,3,916
3,YREXY,233,2,971,Correct,3,859
3,ZKZKZ,113,1,939,Correct,3,857
3,XLXNX,161,2,693,Correct,3,675
3,KFKRE,235,2,835,Correct,3,845
3,RXRLR,222,2,664,Correct,3,887
3,RERXR,121,[2][3],[1104][1296],Correct,3,733
4,J,5,3,4515,New Target,4,668
4,CYCVC,161,2,877,Correct,4,710
4,RXRCR,162,2,628,Correct,4,771
4,FPFVF,163,2,720,Correct,4,886
4,LZLZL,151,1,783,Correct,4,707
4,PLPLP,152,1,806,Correct,4,872
4,NPNPN,153,1,1104,Correct,4,794
4,XZXZX,161,1,713,Incorrect,4,942
4,CNCKC,162,2,741,Correct,4,927
4,PCPYJ,235,2,947,Correct,4,725
4,VYVYV,113,1,819,Correct,4,885
4,RLRLR,152,1,876,Correct,4,799
4,CJCJC,7,[1][3],[835][1010],Correct,4,830
4,ZLZLZ,13,1,974,Correct,4,758
4,FZFZF,152,1,1249,Correct,4,800
4,CFCFC,153,1,700,Correct,4,763
4,PZPZP,154,1,574,Correct,4,687
4,XEXEX,191,1,779,Correct,4,937
4,NVNFN,16,2,722,Correct,4,887
4,KYKYK,151,1,828,Correct,4,871
4,ZNZVZ,161,2,756,Correct,4,842
4,YVJXY,233,2,1106,Correct,4,764
4,XFXFX,113,1,684,Correct,4,906
4,XNXNX,152,1,637,Correct,4,693
4,FJFKF,81,[2][3],[789][949],Correct,4,810
4,CZCYC,14,2,779,Correct,4,754
4,ZXZCZ,162,2,714,Correct,4,682
4,RYRYJ,225,1,1139,Correct,4,910
4,FPFZF,222,2,736,Correct,4,750
4,XRXRX,151,1,639,Correct,4,689
4,YPYEY,182,2,780,Correct,4,875
4,XRXRX,15,1,795,Correct,4,654
4,XZXPX,161,2,723,Correct,4,883
4,CJCJC,9,[1][3],[636][828],Correct,4,696
4,ZXZVZ,14,2,690,Correct,4,876
4,VKVKV,151,1,754,Correct,4,760
4,VEVNV,173,2,844,Correct,4,858
4,ZKZVZ,16,2,676,Correct,4,797
4,XVXJX,102,[2][3],[1018][1178],Correct,4,932
4,RXRVR,14,2,674,Correct,4,813
4,LRLRL,151,1,689,Correct,4,809
4,YNJNY,223,1,796,Correct,4,928
4,NPNJN,222,2,1025,Correct,4,935
4,ZEZEZ,194,1,675,Correct,4,788
4,ZNZNZ,15,1,657,Correct,4,762
4,YZYZY,152,1,534,Correct,4,670
4,XYXYX,153,2,762,Incorrect,4,813
4,ZXZXZ,221,1,694,Correct,4,770
4,LYLZL,222,2,742,Correct,4,769
4,CYCNC,162,2,802,Correct,4,772
4,XEXEX,195,1,832,Correct,4,673
4,CVCXC,16,2,633,Correct,4,738
4,ZPZXZ,162,2,1047,Correct,4,835
4,FZFZF,151,1,657,Correct,4,946
4,RXRJR,112,[2][3],[857][1049],Correct,4,812
4,PRPFP,14,2,845,Correct,4,664
4,PKPEP,186,2,802,Correct,4,912
4,XZXPX,16,2,657,Correct,4,680
4,JCZVZ,231,2,588,Correct,4,849
4,RXRLR,222,2,777,Correct,4,923
4,VZVZV,151,1,698,Correct,4,679
4,XJXJX,12,[1][3],[968][1128],Correct,4,879
5,I,5,3,5163,New Target,5,927
5,PCPCP,151,1,638,Correct,5,671
5,XYXYX,152,1,728,Correct,5,944
5,VXVXV,153,1,694,Correct,5,787
5,XVXVX,154,1,755,Correct,5,844
5,ZRZXZ,161,2,733,Correct,5,837
5,FPFZF,162,2,668,Correct,5,667
5,ZYZYZ,151,1,697,Correct,5,877
5,RVRZR,161,2,661,Correct,5,802
5,CICIC,7,[1][3],[721][913],Correct,5,866
5,XLXLX,13,1,848,Correct,5,773
5,YVYVY,152,1,748,Correct,5,690
5,CJCJC,191,2,981,Incorrect,5,834
5,FNFCF,16,2,746,Correct,5,751
5,PVPRP,162,2,938,Correct,5,718
5,FZFZF,151,1,913,Correct,5,751
5,NVIVN,223,1,695,Correct,5,775
5,CVCIC,82,[2][3],[1166][1310],Correct,5,653
5,ZXZXZ,13,1,653,Correct,5,686
5,FCFZF,161,2,738,Correct,5,658
5,IXRXR,221,2,899,Incorrect,5,720
5,ZPZNZ,222,2,825,Correct,5,751
5,VZVZV,151,1,788,Correct,5,740
5,YRYNY,161,2,721,Correct,5,665
5,VNVPV,162,2,731,Correct,5,848
5,RVRJR,182,2,782,Correct,5,655
5,VRVRV,15,1,667,Correct,5,695
5,VIVIV,9,[1][3],[828][956],Correct,5,652
5,CXCVC,14,2,655,Correct,5,704
5,PZPZP,151,1,761,Correct,5,938
5,IXVKV,231,2,1332,Correct,5,731
5,YJYCY,173,2,836,Incorrect,5,916
5,VYVYV,15,1,716,Correct,5,788
5,YVYVY,152,1,664,Correct,5,770
5,NVNVN,153,1,1196,Correct,5,690
5,XYXVX,161,2,935,Correct,5,826
5,NJNCN,174,2,803,Correct,5,663
5,NXNYN,16,2,700,Correct,5,800
5,VXVCV,162,2,630,Correct,5,883
5,ZKZKZ,151,1,635,Correct,5,659
5,XRXYX,161,2,632,Correct,5,887
5,ZCZXZ,162,2,618,Correct,5,729
5,KVKYI,235,2,631,Correct,5,868
5,CNCNC,113,1,737,Correct,5,933
5,RIRIR,10,[1][3],[784][912],Correct,5,891
5,VYVXV,14,2,623,Correct,5,656
5,FXIRF,233,2,759,Correct,5,943
5,PFPFP,113,1,721,Correct,5,810
5,VPVPV,152,1,716,Correct,5,875
5,ZJZJZ,195,1,1003,Correct,5,697
5,ZVZNZ,16,2,658,Correct,5,724
5,YVYXY,162,2,698,Correct,5,931
5,PRPRP,151,1,989,Correct,5,692
5,YPYPY,152,1,703,Correct,5,794
5,ZIZPZ,111,[2][3],[890][1034],Correct,5,774
5,NKNXN,14,2,835,Correct,5,921
5,RZRXR,162,2,621,Correct,5,806
5,RXRXR,151,1,747,Correct,5,888
5,ZJZJZ,196,1,1043,Correct,5,914
5,CVCVI,225,1,1026,Incorrect,5,818
5,NKNKN,113,1,682,Correct,5,651
5,NRNZN,161,2,774,Correct,5,880
5,CNCNC,151,1,621,Correct,5,944
5,RFRIR,122,[2][3],[1084][1244],Correct,5,687
6,B,5,3,9813,New Target,6,851
6,YKYZY,161,2,784,Correct,6,793
6,VCVRV,162,2,873,Correct,6,863
6,XVXVX,151,1,719,Correct,6,913
6,KZKRK,161,2,632,Correct,6,830
6,ZVZXZ,162,2,700,Correct,6,690
6,RCRNR,163,2,677,Correct,6,915
6,CXCRC,164,2,582,Correct,6,684
6,VNBCV,233,2,728,Correct,6,807
6,CXCVC,222,2,691,Correct,6,844
6,RFRFR,151,1,781,Correct,6,913
6,XPXRX,161,2,1063,Correct,6,806
6,RYRBR,72,[2][3],[953][1097],Correct,6,945
6,ZKZKZ,13,1,678,Correct,6,812
6,FIFRF,171,2,613,Correct,6,792
6,VZVLV,16,2,676,Correct,6,899
6,RPRVR,162,2,933,Correct,6,736
6,YBYBY,8,[1][3],[649][1113],Correct,6,900
6,PYPVP,14,2,764,Correct,6,860
6,NININ,192,1,1129,Correct,6,745
6,RNRNR,15,1,998,Correct,6,769
6,NXNVN,161,2,661,Correct,6,845
6,RNRNR,151,1,674,Correct,6,798
6,FRFVF,161,2,596,Correct,6,779
6,YVYFB,235,2,774,Incorrect,6,781
6,ZRZXZ,222,2,604,Correct,6,929
6,VNVIV,193,2,731,Incorrect,6,856
6,PXPNP,16,2,614,Correct,6,845
6,ZXZPZ,162,2,598,Correct,6,737
6,VBVBV,9,[1][3],[681][921],Correct,6,803
6,CXCXC,13,1,690,Correct,6,904
6,PCPFP,161,2,682,Correct,6,905
6,KNKNK,151,1,980,Correct,6,841
6,XIXIX,194,1,723,Correct,6,887
6,CYCYC,15,1,944,Correct,6,788
6,FVFYF,161,2,690,Correct,6,826
6,YNYRY,162,2,698,Correct,6,920
6,BVPXP,231,2,571,Correct,6,715
6,NXNXN,113,1,969,Correct,6,912
6,FRFRF,152,1,620,Correct,6,823
6,YVYVY,153,1,548,Correct,6,659
6,ZKZCZ,161,2,501,Correct,6,807
6,VIVXV,175,2,599,Correct,6,833
6,PRBRP,223,2,712,Incorrect,6,764
6,YZYBY,102,[2][3],[919][1046],Correct,6,854
6,CXCVC,14,2,697,Correct,6,884
6,FYFYF,151,1,810,Correct,6,687
6,VKVXV,161,2,630,Correct,6,677
6,ZBZBZ,11,[1][3],[671][799],Correct,6,714
6,FPFNF,14,2,674,Correct,6,703
6,CXCXC,151,1,752,Correct,6,777
6,YCYCY,152,1,569,Correct,6,802
6,FPFPF,153,1,639,Correct,6,704
6,CVCVB,225,2,928,Incorrect,6,794
6,ZCZCZ,113,1,823,Correct,6,782
6,CZCNC,161,2,717,Correct,6,902
6,KIKFK,176,2,781,Correct,6,747
6,PXPXP,15,1,651,Correct,6,736
6,RYRYR,152,1,1015,Correct,6,835
6,ZRZCZ,161,2,709,Correct,6,917
6,RVRVR,151,1,846,Correct,6,931
6,XYXNX,161,2,673,Correct,6,919
6,BVKVK,221,1,783,Correct,6,863
6,CBCBC,12,[1][3],[800][960],Correct,6,701
7,W,5,3,7312,New Target,7,670
7,RKRKR,151,1,991,Correct,7,758
7,CVCRC,161,2,679,Correct,7,653
7,PKPKP,151,1,614,Correct,7,818
7,FPFPF,152,1,713,Correct,7,703
7,VRVPV,161,2,774,Correct,7,759
7,ZKZYZ,162,2,737,Correct,7,778
7,PVPCP,233,2,538,Correct,7,847
7,KVKVK,113,1,812,Correct,7,858
7,YXYVY,161,2,660,Correct,7,905
7,FNFNF,151,1,577,Correct,7,777
7,YWYWY,7,[1][3],[701][845],Correct,7,683
7,ZYZYZ,13,1,585,Correct,7,784
7,PYPYP,152,1,664,Correct,7,898
7,XRXRX,153,1,617,Correct,7,737
7,PXPXP,154,1,534,Correct,7,868
7,FCFBF,181,2,647,Correct,7,876
7,FVFVF,15,1,599,Correct,7,813
7,CYCZC,161,2,635,Correct,7,722
7,XZXVX,162,2,652,Correct,7,722
7,PFPFP,151,1,583,Correct,7,926
7,RVRLR,161,2,556,Correct,7,714
7,ZBZBZ,192,2,917,Incorrect,7,665
7,VCVNV,16,2,760,Correct,7,869
7,NWNWN,8,[1][3],[694][838],Correct,7,753
7,XNXVX,14,2,682,Correct,7,742
7,CXCNC,162,2,646,Correct,7,803
7,YVYVW,225,1,666,Correct,7,692
7,VFVFV,113,1,696,Correct,7,816
7,VFWFV,223,2,888,Incorrect,7,751
7,CVCFC,222,2,701,Correct,7,787
7,YBYBY,193,1,696,Correct,7,883
7,PYPYP,15,1,714,Correct,7,716
7,NKNWN,91,[2][3],[838][966],Correct,7,873
7,VNVNV,13,1,723,Correct,7,727
7,RVRVR,152,2,751,Incorrect,7,791
7,FVFBF,184,2,685,Incorrect,7,732
7,VZVKV,16,2,699,Correct,7,827
7,VPVCV,162,2,651,Correct,7,742
7,WYZCZ,231,2,630,Correct,7,944
7,PFPFP,113,1,635,Correct,7,725
7,PRPRP,152,1,979,Correct,7,936
7,NWNWN,10,[1][3],[723][883],Correct,7,774
7,VKVCV,14,2,680,Correct,7,828
7,WPYPY,221,1,602,Correct,7,679
7,VBVBV,195,1,893,Correct,7,794
7,ZKZYZ,16,2,647,Correct,7,678
7,XYXYX,151,1,567,Correct,7,827
7,FZFXF,161,2,645,Correct,7,930
7,XKXKX,151,1,678,Correct,7,753
7,XPXPX,152,1,561,Correct,7,916
7,FWFWF,11,[1][3],[777][905],Correct,7,656
7,FNFBF,186,2,646,Correct,7,844
7,ZVZYZ,16,2,776,Correct,7,786
7,FZFZF,151,1,608,Correct,7,848
7,NPNFW,235,2,673,Correct,7,834
7,PCPCP,113,1,608,Correct,7,829
7,NKNWN,122,[2][3],[682][835],Correct,7,728
8,M,5,3,7121,New Target,8,786
8,VYVNV,161,2,745,Correct,8,770
8,KLKNK,162,2,607,Correct,8,793
8,NRNRN,151,1,667,Correct,8,815
8,VNVFV,161,2,661,Correct,8,696
8,XNXNM,225,1,804,Correct,8,780
8,CXCVC,222,2,685,Correct,8,698
8,KRKZK,162,2,847,Correct,8,943
8,NMNFN,71,[2][3],[768][944],Correct,8,716
8,ZFZFZ,13,1,701,Correct,8,880
8,YPYCY,161,2,572,Correct,8,656
8,KCKCK,151,1,600,Correct,8,807
8,VNVNV,152,1,769,Correct,8,880
8,LXLXL,153,1,723,Correct,8,820
8,CLCLC,154,1,575,Correct,8,701
8,NYNYN,155,1,735,Correct,8,702
8,LCMYL,233,2,675,Correct,8,874
8,NCNCN,113,1,540,Correct,8,864
8,ZVZRZ,161,2,783,Correct,8,705
8,ZVZVZ,151,1,614,Correct,8,732
8,PZPVP,161,2,773,Correct,8,745
8,PWPNP,171,2,680,Correct,8,907
8,KLKCM,235,2,574,Correct,8,887
8,XMXMX,8,[1][3],[728][919],Correct,8,917
8,PRPXP,14,2,709,Correct,8,716
8,CVCYC,162,2,670,Correct,8,787
8,PXPMP,92,[2][3],[854][965],Correct,8,667
8,ZCZLZ,14,2,642,Correct,8,877
8,XWXWX,192,1,970,Correct,8,839
8,ZCZLZ,16,2,475,Correct,8,656
8,MNCYC,231,2,622,Correct,8,797
8,ZXZXZ,113,1,651,Correct,8,724
8,YRYNY,161,2,584,Correct,8,781
8,ZLZPZ,162,2,742,Correct,8,667
8,VZVZV,151,1,593,Correct,8,655
8,MXPXP,221,2,645,Incorrect,8,674
8,VWVWV,193,1,913,Correct,8,714
8,PYPYP,16,1,554,Incorrect,8,928
8,XPXVX,162,2,725,Correct,8,800
8,XLXLX,151,1,750,Correct,8,792
8,YMYMY,10,[1][3],[978][1121],Correct,8,740
8,VYVYV,13,1,587,Correct,8,729
8,PWPZP,174,2,564,Correct,8,899
8,PYPKP,16,2,675,Correct,8,743
8,NPNXN,162,2,632,Correct,8,888
8,KVKVK,223,1,757,Correct,8,756
8,NVNFN,222,2,564,Correct,8,910
8,XNXNX,151,1,681,Correct,8,945
8,YZYMY,112,[2][3],[784][929],Correct,8,788
8,PFPFP,13,1,587,Correct,8,872
8,ZWZWZ,195,1,743,Correct,8,782
8,PCPZP,16,2,595,Correct,8,658
8,LRLPL,162,2,890,Correct,8,898
8,CZCZC,151,1,746,Correct,8,885
8,NZNZN,152,1,702,Correct,8,885
8,CVCXC,161,2,627,Correct,8,886
8,XCXCX,151,1,637,Correct,8,863
8,YWYWY,196,1,762,Correct,8,754
8,NLNLN,15,1,597,Correct,8,750
8,VNVNV,152,1,575,Correct,8,792
8,ZMZMZ,12,[1][3],[738][913],Correct,8,660
9,S,5,3,10280,New Target,9,677
9,NZNZN,151,1,601,Correct,9,826
9,KVKZK,161,2,629,Correct,9,687
9,LZLZL,151,1,622,Correct,9,895
9,XLXLX,152,1,591,Correct,9,708
9,ZXZXZ,153,1,649,Correct,9,888
9,KNKZK,161,2,657,Correct,9,925
9,NRNYN,162,2,687,Correct,9,691
9,CLCVC,163,2,635,Correct,9,780
9,ZCZFZ,164,2,590,Correct,9,945
9,NSNSN,7,[1][3],[680][858],Correct,9,811
9,VZVZV,13,1,868,Correct,9,903
9,NVNCN,161,2,643,Correct,9,829
9,VMVMV,191,2,894,Incorrect,9,698
9,CVCXC,16,2,550,Correct,9,653
9,ZYZRZ,162,2,624,Correct,9,904
9,XNXZX,163,2,701,Correct,9,738
9,PXPXP,151,1,679,Correct,9,654
9,VCVSV,82,[2][3],[781][924],Correct,9,854
9,PRPCP,14,2,699,Correct,9,798
9,ZMZMZ,192,1,678,Incorrect,9,677
9,ZFZFZ,15,1,637,Correct,9,820
9,FCFCF,152,1,586,Correct,9,708
9,YLYZY,161,2,738,Correct,9,896
9,KNKVK,162,2,741,Correct,9,880
9,SFPCP,231,2,922,Correct,9,827
9,RPRPR,113,1,922,Correct,9,816
9,XMXMX,193,1,665,Correct,9,799
9,KFKFK,15,1,603,Correct,9,678
9,VSVSV,9,[1][3],[767][911],Correct,9,770
9,YVSVY,223,2,721,Incorrect,9,813
9,VPVPV,113,1,652,Correct,9,679
9,XZXZX,152,1,659,Correct,9,881
9,KZKXK,161,2,655,Correct,9,717
9,RFRPR,162,2,702,Correct,9,684
9,NVNVS,225,1,866,Correct,9,918
9,ZXZXZ,113,1,550,Correct,9,671
9,SRVRV,221,1,770,Correct,9,841
9,YCYCY,113,1,574,Correct,9,674
9,KMKZK,174,2,847,Correct,9,795
9,FZSVF,233,2,939,Correct,9,880
9,VYVYV,113,1,828,Correct,9,777
9,LVLVL,152,1,725,Correct,9,710
9,YFYFY,153,1,586,Correct,9,895
9,NXNSN,102,[2][3],[827][971],Correct,9,848
9,FNFCF,14,2,971,Correct,9,816
9,KVKVK,151,1,654,Correct,9,683
9,VZVCV,161,2,612,Correct,9,869
9,ZYZMZ,185,2,640,Correct,9,732
9,VXVZV,16,2,605,Correct,9,694
9,VPVPV,151,1,636,Correct,9,668
9,RVRNS,235,2,694,Correct,9,887
9,YZYZY,113,1,558,Correct,9,782
9,ZSZSZ,11,[1][3],[613][772],Correct,9,922
9,FRFRF,13,1,681,Correct,9,762
9,ZMZMZ,196,1,531,Correct,9,705
9,NZNXN,16,2,607,Correct,9,911
9,LSLFL,121,[2][3],[700][878],Correct,9,669
10,Q,5,3,8487,New Target,10,909
10,ZVZPZ,161,2,712,Correct,10,849
10,RZRZR,151,1,734,Correct,10,856
10,ZFZFZ,152,1,619,Correct,10,751
10,RZRZR,153,1,612,Correct,10,843
10,PZPXP,161,2,676,Correct,10,715
10,VFQPV,233,2,813,Correct,10,780
10,ZPZRZ,222,2,696,Correct,10,658
10,CYCVC,162,2,732,Correct,10,894
10,CPCPC,151,1,596,Correct,10,841
10,YZYQY,72,[2][3],[764][924],Correct,10,945
10,FVFXF,14,2,679,Correct,10,721
10,YNYNQ,225,1,660,Correct,10,713
10,ZYZYZ,113,1,603,Correct,10,868
10,FRFSF,181,2,710,Incorrect,10,801
10,XNXPX,16,2,722,Correct,10,687
10,NXNXN,151,1,647,Correct,10,903
10,PVPZP,161,2,692,Correct,10,726
10,XVXPX,162,2,681,Correct,10,794
10,FXFVF,163,2,569,Correct,10,664
10,NSNKN,172,2,568,Incorrect,10,788
10,VXVNV,16,2,536,Correct,10,734
10,XZXZX,151,1,852,Correct,10,887
10,VQVQV,8,[1][3],[578][754],Correct,10,845
10,ZYZPZ,14,2,562,Correct,10,834
10,PZPSP,183,2,667,Correct,10,865
10,YVYVY,15,1,575,Correct,10,890
10,NCNQN,92,[2][3],[828][954],Correct,10,837
10,FCFVF,14,2,618,Correct,10,699
10,ZFZFZ,151,1,614,Correct,10,750
10,NSNSN,194,1,626,Correct,10,796
10,YPYFY,16,2,702,Correct,10,823
10,ZKZKZ,151,1,594,Correct,10,827
10,QZRCR,231,2,634,Correct,10,917
10,YPYVY,222,2,741,Correct,10,781
10,ZNZNZ,151,1,543,Correct,10,709
10,VQVQV,10,[1][3],[617][775],Correct,10,705
10,RVRZR,14,2,492,Correct,10,872
10,KRKSK,185,2,746,Correct,10,881
10,NPNPN,15,1,563,Correct,10,744
10,YPYPY,152,1,544,Correct,10,774
10,VCVYV,161,2,703,Correct,10,774
10,FPFNF,162,2,698,Correct,10,680
10,QVXVX,221,2,666,Incorrect,10,692
10,ZVZRZ,222,2,546,Correct,10,745
10,LFLFL,151,1,579,Correct,10,837
10,VLVLV,152,1,580,Correct,10,706
10,KXQXK,223,2,846,Incorrect,10,905
10,YQYQY,11,[1][3],[747][907],Correct,10,887
10,YCYCY,13,1,715,Correct,10,673
10,PZPYP,161,2,692,Correct,10,788
10,LPLFL,162,2,798,Correct,10,753
10,VSVSV,196,1,563,Correct,10,825
10,VFVYQ,235,2,564,Correct,10,808
10,CZCXC,222,2,533,Correct,10,657
10,PVPCP,162,2,513,Correct,10,913
10,CXCXC,151,1,578,Correct,10,709
10,NZNZN,152,1,621,Correct,10,829
10,YPYCY,161,2,727,Correct,10,859
10,ZQZQZ,12,[1][3],[682][842],Correct,10,893
11,T,5,3,12126,New Target,11,683
11,KFKFK,151,1,642,Correct,11,661
11,LZLZL,152,1,682,Correct,11,814
11,PFPVP,161,2,511,Correct,11,916
11,FRFPF,162,2,656,Correct,11,749
11,FZFZF,151,1,709,Correct,11,927
11,VTVTV,7,[1][3],[752][912],Correct,11,658
11,KYKCK,14,2,498,Correct,11,697
11,VPVPV,151,1,566,Correct,11,652
11,XQXQX,191,1,1046,Correct,11,768
11,PZPYP,16,2,606,Correct,11,844
11,KXKLK,162,2,622,Correct,11,681
11,TCNCN,221,1,596,Correct,11,846
11,PZPNP,222,2,662,Correct,11,731
11,RCRPR,162,2,602,Correct,11,901
11,PZPRT,235,2,553,Correct,11,772
11,XFXVX,222,2,546,Correct,11,868
11,LTLVL,81,[2],[680],Incorrect,11,944
11,ZCZPZ,14,2,648,Correct,11,829
11,NCNQN,182,2,597,Correct,11,769
11,XZXNX,16,2,576,Correct,11,764
11,ZPZPZ,151,1,617,Correct,11,945
11,CFCFC,152,1,709,Correct,11,819
11,VXTRV,233,2,674,Correct,11,700
11,CFCVC,222,2,633,Correct,11,856
11,PYPYP,151,1,632,Correct,11,700
11,FQFYF,173,2,612,Correct,11,757
11,CNCFC,16,2,634,Correct,11,940
11,PTPTP,9,[1][3],[649][791],Correct,11,651
11,ZCZCZ,13,1,695,Correct,11,815
11,KZKZK,152,1,733,Correct,11,818
11,RLRVR,161,2,493,Correct,11,895
11,ZRZKZ,162,2,626,Correct,11,656
11,KLKLT,225,2,622,Incorrect,11,874
11,ZQZQZ,194,1,888,Correct,11,861
11,VZVZV,15,1,639,Correct,11,696
11,RVRZR,161,2,653,Correct,11,734
11,ZPZCZ,162,2,723,Correct,11,858
11,VYVYV,151,1,568,Correct,11,908
11,RVRVR,152,1,563,Correct,11,853
11,PTPTP,10,[1][3],[624][784],Correct,11,661
11,PXPXP,13,1,632,Correct,11,656
11,KCKCK,152,1,604,Correct,11,657
11,YVYVY,153,1,530,Correct,11,946
11,CYCYC,154,1,510,Correct,11,801
11,XCXCX,155,1,480,Correct,11,753
11,CYCQC,185,2,621,Correct,11,788
11,KCKNK,16,2,629,Correct,11,938
11,VPVPV,151,1,565,Correct,11,712
11,TXFZF,231,2,566,Correct,11,654
11,NYNVN,222,2,627,Correct,11,796
11,VQVXV,176,2,590,Correct,11,894
11,ZRZRZ,15,1,585,Correct,11,743
11,VTVZV,111,[2][3],[736][962],Correct,11,675
11,PXPVP,14,2,599,Correct,11,658
11,FVFVF,151,1,651,Correct,11,654
11,VRVLV,161,2,594,Correct,11,882
11,YCYCY,151,1,598,Correct,11,884
11,XZTZX,223,1,594,Correct,11,946
11,VTVTV,12,[1][3],[642][802],Correct,11,905
12,O,5,3,4642,New Target,12,662
12,VXVLV,161,2,828,Correct,12,736
12,KVKCK,162,2,531,Correct,12,701
12,VLVLV,151,1,629,Correct,12,726
12,ZCZVZ,161,2,629,Correct,12,712
12,KFKFK,151,1,649,Correct,12,944
12,XKXKX,152,1,889,Correct,12,733
12,YXYXY,153,1,602,Correct,12,768
12,FVFVF,154,1,698,Correct,12,680
12,PVPOP,72,[2][3],[661][804],Correct,12,911
12,ZXZYZ,14,2,720,Correct,12,698
12,PXPVP,162,2,635,Correct,12,770
12,ZTZTZ,191,1,626,Correct,12,846
12,CVCKC,16,2,635,Correct,12,765
12,CKCKC,151,1,680,Correct,12,775
12,NPNPN,152,1,624,Correct,12,863
12,ZRZNZ,161,2,604,Correct,12,778
12,OZCZC,221,2,726,Incorrect,12,847
12,LFLFL,113,1,653,Correct,12,780
12,CXCXC,152,1,587,Correct,12,689
12,KPKPK,153,1,504,Correct,12,717
12,FRFKF,161,2,613,Correct,12,850
12,FOFOF,8,[1][3],[547][707],Correct,12,664
12,ZFZFZ,13,1,555,Correct,12,791
12,LKLZO,235,2,622,Correct,12,659
12,KLKZK,222,2,679,Correct,12,858
12,YXYCY,162,2,527,Correct,12,803
12,LOLOL,9,[1][3],[484][612],Correct,12,882
12,XLXLX,13,1,659,Correct,12,830
12,XVXVX,152,1,622,Correct,12,739
12,FTFTF,192,1,525,Correct,12,676
12,OXNZN,231,2,610,Correct,12,650
12,CZCZC,113,1,748,Correct,12,861
12,LZLZL,152,1,606,Correct,12,945
12,VLVPV,161,2,666,Correct,12,866
12,VYVYO,225,1,943,Correct,12,858
12,XKXKX,113,1,627,Correct,12,717
12,RTRTR,193,1,574,Correct,12,864
12,KVKCK,16,2,642,Correct,12,655
12,ROROR,101,[1][3],[557][733],Correct,12,855
12,PRPRP,13,1,874,Correct,12,728
12,LYLVL,161,2,617,Correct,12,911
12,PLPLP,151,1,535,Correct,12,755
12,CTCTC,194,1,517,Correct,12,756
12,XZXYX,16,2,641,Correct,12,901
12,NKNKN,151,1,665,Correct,12,822
12,VLVZV,161,2,677,Correct,12,788
12,YOYOY,11,[1][3],[589][749],Correct,12,772
12,PZOZP,223,2,660,Incorrect,12,654
12,FYFYF,113,1,717,Correct,12,872
12,ZXZVZ,161,2,702,Correct,12,926
12,VKVZV,162,2,702,Correct,12,653
12,ZTZTZ,195,1,505,Correct,12,681
12,LKLZL,16,2,504,Correct,12,765
12,KCKVK,162,2,615,Correct,12,790
12,PXPKP,163,2,484,Correct,12,751
12,KCOZK,233,2,563,Correct,12,792
12,FKFKF,113,1,639,Correct,12,769
12,CTCRC,176,2,555,Correct,12,803
12,NXNXN,15,1,597,Correct,12,857
12,KXKVK,161,2,596,Correct,12,697
12,CPCOC,122,[2][3],[712][857],Correct,12,928
13,H,5,3,11342,New Target,13,903
13,VFVNV,151,2,740,Incorrect,13,892
13,YVYVY,152,1,684,Correct,13,711
13,XVXVX,153,1,582,Correct,13,819
13,NRNXN,161,2,547,Correct,13,761
13,PZPKP,162,2,557,Correct,13,896
13,HLVLV,221,2,720,Incorrect,13,752
13,CXCZC,222,2,568,Correct,13,751
13,LHLYL,71,[2][3],[644][788],Correct,13,807
13,YKYFY,14,2,677,Correct,13,722
13,YOYRY,171,2,638,Correct,13,824
13,ZKZYZ,16,2,599,Correct,13,811
13,RZRZR,151,1,594,Correct,13,914
13,NFNYN,161,2,577,Correct,13,659
13,KVKFK,162,2,553,Correct,13,924
13,XFXYX,163,2,633,Correct,13,712
13,LKLVL,164,2,550,Correct,13,737
13,NLNLN,151,1,616,Correct,13,673
13,XCXOX,182,2,701,Correct,13,872
13,FXFXF,15,1,657,Correct,13,912
13,VHVHV,8,[1][3],[731][857],Correct,13,933
13,PVPVP,13,1,728,Correct,13,668
13,CRCXC,161,2,523,Correct,13,879
13,NXNXN,151,1,621,Correct,13,789
13,XRXRX,152,1,728,Correct,13,822
13,YFYXY,161,2,672,Correct,13,718
13,ZOZOZ,193,1,694,Correct,13,919
13,RZRZR,15,1,595,Correct,13,674
13,FKFKF,152,1,603,Correct,13,929
13,PFPFP,153,1,567,Correct,13,806
13,XYXHX,92,[2][3],[654][798],Correct,13,838
13,RZRKR,14,2,694,Correct,13,691
13,FLFLH,225,1,874,Correct,13,918
13,KRKRK,113,1,592,Correct,13,723
13,ZVZNZ,161,2,683,Correct,13,859
13,ZOZOZ,194,2,676,Incorrect,13,793
13,FZFZF,15,1,651,Correct,13,881
13,FHFKF,101,[2][3],[780][942],Correct,13,744
13,ZXHLZ,233,2,961,Correct,13,805
13,FKFXF,222,2,686,Correct,13,790
13,CFCYC,162,2,578,Correct,13,919
13,ZXZVZ,163,2,573,Correct,13,925
13,KCKOK,185,2,758,Correct,13,818
13,ZXZVH,235,2,621,Correct,13,825
13,CKCKC,113,1,599,Correct,13,840
13,ZXZCZ,161,2,662,Correct,13,701
13,YVYVY,151,1,545,Correct,13,907
13,RVHVR,223,1,873,Correct,13,834
13,ZRZRZ,113,1,632,Correct,13,912
13,ZHZHZ,11,[1][3],[806][966],Correct,13,710
13,VZVZV,13,1,624,Correct,13,800
13,HZVRV,231,2,764,Correct,13,768
13,FVFVF,113,1,570,Correct,13,909
13,RNRCR,161,2,741,Correct,13,917
13,COCOC,196,1,556,Correct,13,838
13,VNVXV,16,2,841,Correct,13,773
13,XHXHX,12,[1][3],[643][802],Correct,13,945
14,G,5,3,10618,New Target,14,908
14,FZFZF,151,1,676,Correct,14,914
14,RPRVR,161,2,606,Correct,14,808
14,XCXCX,151,1,473,Correct,14,823
14,YXYXY,152,1,612,Correct,14,934
14,KZKZK,153,2,511,Incorrect,14,800
14,RYRKR,161,2,575,Correct,14,799
14,FYFNF,162,2,648,Correct,14,912
14,VKVKV,151,1,643,Correct,14,748
14,KPGPK,223,2,587,Incorrect,14,862
14,YNYNY,113,1,506,Correct,14,680
14,VYVYV,152,1,583,Correct,14,853
14,YCYXY,161,2,594,Correct,14,897
14,LKLGL,72,[1][3],[939][1129],Incorrect,14,835
14,VXVXV,13,1,624,Correct,14,789
14,KCKVK,161,2,695,Correct,14,896
14,YKYKY,151,1,587,Correct,14,892
14,RHRXR,171,2,635,Correct,14,762
14,FVFCF,16,2,626,Correct,14,884
14,YXYGY,82,[2][3],[705][847],Correct,14,762
14,CLCLC,13,1,640,Correct,14,659
14,ZXZCZ,161,2,582,Correct,14,847
14,VLVFV,162,2,640,Correct,14,912
14,CPCPG,225,1,622,Correct,14,656
14,KHKNK,172,2,577,Correct,14,650
14,ZKZVZ,16,2,676,Correct,14,693
14,YKYLY,162,2,577,Correct,14,651
14,CNCNC,151,2,523,Incorrect,14,826
14,PGPGP,9,[1][3],[811][936],Correct,14,902
14,VPVPV,13,1,609,Correct,14,792
14,FXGRF,233,2,552,Correct,14,883
14,CYCVC,222,1,759,Incorrect,14,828
14,FNFNF,151,1,655,Correct,14,716
14,KFKCK,161,2,667,Correct,14,805
14,ZFZHZ,183,2,612,Correct,14,767
14,NXNXN,15,1,833,Correct,14,796
14,FNFNF,152,1,531,Correct,14,814
14,LXLNG,235,2,725,Correct,14,657
14,XKXVX,222,2,655,Correct,14,778
14,ZHZHZ,194,1,599,Correct,14,837
14,PFPFP,15,1,649,Correct,14,661
14,ZYZYZ,152,1,519,Correct,14,661
14,XPXVX,161,2,571,Correct,14,665
14,YCYCY,151,1,565,Correct,14,883
14,RGRGR,10,[1][3],[672][814],Correct,14,675
14,VRVRV,13,1,645,Correct,14,814
14,PKPNP,161,2,563,Correct,14,701
14,XGXGX,11,[1][3],[673][848],Correct,14,695
14,GZYVY,231,2,666,Correct,14,896
14,VCVNV,222,2,658,Correct,14,848
14,VHVHV,195,1,664,Correct,14,880
14,LXLNL,16,2,585,Correct,14,946
14,GKPKP,221,2,627,Incorrect,14,791
14,XRXPX,222,1,821,Incorrect,14,684
14,XNXNX,151,1,514,Correct,14,922
14,KHKNK,176,2,595,Incorrect,14,771
14,RZRZR,15,1,569,Correct,14,946
14,CGCFC,121,[2][3],[647][1207],Correct,14,818
15,A,5,3,20749,New Target,15,661
15,XRXFX,161,2,826,Correct,15,747
15,RXRKR,162,2,713,Correct,15,904
15,YRYRY,151,1,497,Correct,15,826
15,XPXPX,152,1,561,Correct,15,803
15,RPRPR,153,2,665,Incorrect,15,929
15,NCNCN,154,1,551,Correct,15,839
15,RXRZR,161,2,504,Correct,15,722
15,NANAN,7,[1][3],[642][882],Correct,15,877
15,KCKYK,14,2,685,Correct,15,842
15,XKXFX,162,2,645,Correct,15,814
15,ZLZKZ,163,2,511,Correct,15,801
15,VCVZV,164,2,512,Correct,15,787
15,XCXVX,165,2,428,Correct,15,813
15,LKLZA,235,2,587,Correct,15,894
15,NCNCN,113,1,523,Correct,15,762
15,YGYGY,191,1,631,Correct,15,896
15,VLVLV,15,1,512,Correct,15,866
15,XRXRX,152,1,461,Correct,15,900
15,KAKPK,81,[2][3],[680][808],Correct,15,867
15,YZAZY,233,2,726,Correct,15,850
15,CFCFC,113,1,641,Correct,15,701
15,VNVLV,161,2,616,Correct,15,871
15,KPKVK,162,2,623,Correct,15,918
15,NCNRN,163,2,649,Correct,15,781
15,FGFGF,192,1,646,Correct,15,792
15,RCRYR,16,2,591,Correct,15,812
15,KRKCK,162,2,656,Correct,15,658
15,CRCRC,151,1,720,Correct,15,656
15,XPAPX,223,2,723,Incorrect,15,892
15,LPLXL,222,2,591,Correct,15,716
15,CGCVC,173,2,699,Correct,15,835
15,FKFZF,16,2,512,Correct,15,912
15,CACAC,9,[1][3],[605][778],Correct,15,873
15,XCXCX,13,1,599,Correct,15,908
15,AXRXR,221,1,693,Correct,15,771
15,NKNRN,222,2,581,Correct,15,657
15,KNKFK,162,2,609,Correct,15,811
15,KAKAK,10,[1][3],[614][756],Correct,15,657
15,ZCZRZ,14,2,642,Correct,15,782
15,RPRPR,151,1,702,Correct,15,796
15,NCNCN,152,1,570,Correct,15,733
15,RYRGR,184,2,579,Correct,15,851
15,VPVPV,15,1,595,Correct,15,728
15,RCRCA,225,1,590,Correct,15,828
15,KXKPK,222,2,567,Correct,15,844
15,NPNPN,151,1,545,Correct,15,924
15,YCYCY,152,1,523,Correct,15,931
15,PXPAP,112,[2][3],[633][792],Correct,15,862
15,ZCZNZ,14,2,690,Correct,15,836
15,KYKGK,185,2,541,Correct,15,729
15,ANLPL,231,2,593,Correct,15,663
15,CXCPC,222,2,551,Correct,15,936
15,YRYRY,151,1,630,Correct,15,762
15,LGLGL,196,1,572,Correct,15,881
15,VYVLV,16,2,586,Correct,15,804
15,KVKVK,151,1,855,Correct,15,760
15,RKRKR,152,1,548,Correct,15,948
15,VXVXV,153,1,526,Correct,15,826
15,XAXAX,12,[1][3],[732][877],Correct,15,755
