Trial No,Stimulus,Trigger,Response,Response Time(ms),Correct,Block,Fixation Duration
Practice
OT Practice
1,SKSKS,15,1,1093,Correct,0,698
1,DLDUD,16,2,676,Correct,0,709
1,PDPGP,16,2,612,Correct,0,663
1,MWMWM,15,1,646,Correct,0,660
1,FTFTF,15,1,613,Correct,0,675
1,AXAMA,16,2,763,Correct,0,950
1,RYRGR,16,2,575,Correct,0,892
1,DODOD,15,1,619,Correct,0,837
1,QTQAQ,16,2,604,Correct,0,676
1,YEYEY,15,1,656,Correct,0,677
2,GYGDG,16,2,620,Correct,0,840
2,SWSWS,15,1,469,Correct,0,911
2,HLHUH,16,2,553,Correct,0,794
2,DEDED,15,1,610,Correct,0,920
2,ZPZOZ,16,2,560,Correct,0,734
2,ATATA,15,1,801,Correct,0,753
2,QOQOQ,15,1,587,Correct,0,726
2,FPFGF,16,2,772,Correct,0,910
2,TRTET,16,2,649,Correct,0,817
2,DQDQD,15,2,541,False,0,949
AT Practice
1,TKTKT,15,3,1319,False,0,945
1,SLSUS,16,2,1245,Correct,0,650
1,VZVGV,7,,,False,0,822
1,XWXZX,7,3,878,Correct,0,662
1,ATATA,15,2,1524,False,0,738
1,HXZMH,16,2,1428,Correct,0,668
1,TZTZT,7,3,569,Correct,0,676
1,UOUOU,15,2,997,False,0,823
1,ZTWAW,16,2,976,Correct,0,896
1,RZRER,7,3,657,Correct,0,801
2,JYJDJ,16,2,985,Correct,0,751
2,DWDWD,15,2,762,False,0,729
2,GNGNG,7,3,647,Correct,0,670
2,NEZEZ,16,1,530,Correct,0,858
2,RNROR,7,3,706,Correct,0,733
2,QTQNQ,7,3,649,Correct,0,912
2,HOHON,15,3,868,False,0,836
2,KPKGK,16,2,758,Correct,0,874
2,DRDED,16,3,898,False,0,653
2,LNLNL,7,3,776,Correct,0,703
4,GLGLG,15,1,825,Correct,0,775
4,DTDID,16,2,866,Correct,0,695
4,SMSGS,16,2,767,Correct,0,925
4,ZFZYZ,7,1,738,False,0,909
4,TSTFT,7,3,763,Correct,0,807
4,OFOFO,7,3,614,Correct,0,772
4,WYFGW,16,2,669,Correct,0,945
4,WYWYW,15,1,761,Correct,0,707
4,MFMCM,7,3,897,Correct,0,808
4,HQHEH,16,2,895,Correct,0,911
Trials
1,D,5,3,6962,New Target,1,911
1,BNBYB,161,2,1066,Correct,1,821
1,FBFBF,151,1,1176,Correct,1,850
1,RKRKR,152,2,1153,Incorrect,1,844
1,QSQNQ,161,2,897,Correct,1,727
1,CTCFC,162,2,995,Correct,1,865
1,PDPDP,7,3,703,Correct,1,945
1,OPOFO,14,2,969,Correct,1,819
1,HLHNH,162,2,825,Correct,1,891
1,MFMFM,151,1,859,Correct,1,936
1,BTBTB,152,1,847,Correct,1,925
1,MCMPD,235,2,645,Correct,1,908
1,BMBFB,222,2,665,Correct,1,686
1,NTNZN,162,2,592,Correct,1,941
1,MXMRM,163,2,650,Correct,1,937
1,APABA,164,2,614,Correct,1,863
1,FMDMF,223,1,932,Correct,1,823
1,QPQPQ,113,1,633,Correct,1,753
1,VQVMV,161,2,614,Correct,1,898
1,RERPR,162,2,629,Correct,1,845
1,KVKVK,151,1,760,Correct,1,721
1,AKAHA,161,2,727,Correct,1,747
1,VDVDV,8,1,436,Incorrect,1,792
1,DUGUG,221,1,636,Correct,1,785
1,AFAFA,113,1,682,Correct,1,824
1,GYGYG,152,1,713,Correct,1,795
1,VXVSV,161,2,855,Correct,1,847
1,DOWGW,231,2,716,Correct,1,868
1,QYQYQ,113,1,588,Correct,1,743
1,ODONO,91,3,1043,Correct,1,662
1,MSMSM,13,1,661,Correct,1,719
1,GYGYG,152,1,580,Correct,1,785
1,UMUMU,153,1,682,Correct,1,730
1,BZBZB,154,1,583,Correct,1,838
1,NTNBN,161,2,666,Correct,1,810
1,GNDYG,233,2,795,Correct,1,760
1,OCOSO,222,2,728,Correct,1,726
1,BHBFB,162,2,752,Correct,1,889
1,QCQBQ,163,2,656,Correct,1,690
1,LQLQL,151,1,665,Correct,1,928
1,ZDZDZ,10,3,658,Correct,1,875
1,QNQZQ,14,2,690,Correct,1,723
1,CSCYC,162,2,660,Correct,1,650
1,RCRLR,163,2,566,Correct,1,714
1,FRFRF,151,1,644,Correct,1,864
1,WFWFW,152,1,782,Correct,1,942
1,QOQLQ,161,2,748,Correct,1,700
1,AWAQA,162,2,662,Correct,1,862
1,EAEAE,151,1,673,Correct,1,877
1,AGAUA,161,2,676,Correct,1,697
1,YMYMY,151,1,630,Correct,1,690
1,XQXQX,152,2,563,Incorrect,1,899
1,SHSGS,161,2,683,Correct,1,675
1,PDPDP,11,3,677,Correct,1,872
1,ZGZGZ,13,1,657,Correct,1,829
1,OXOXO,152,1,750,Correct,1,847
1,LYLYL,153,1,677,Correct,1,893
1,NKNKD,225,1,608,Correct,1,833
1,GNGNG,113,1,568,Correct,1,650
1,OYOBO,161,2,777,Correct,1,785
1,SOSOS,151,1,1011,Correct,1,819
1,VHVHV,152,1,608,Correct,1,912
1,OKOXO,161,2,687,Correct,1,873
1,EZEZE,151,1,751,Correct,1,747
1,LDLDL,12,3,730,Correct,1,772
2,U,5,3,934,New Target,2,774
2,BVBEB,161,2,847,Correct,2,780
2,FBFBF,151,1,770,Correct,2,935
2,RFRFR,152,1,782,Correct,2,805
2,NBNKN,161,2,789,Correct,2,859
2,MKMNM,162,2,844,Correct,2,867
2,QXQXQ,151,1,1043,Correct,2,814
2,MQMYM,161,2,787,Correct,2,767
2,TGTPT,162,2,624,Correct,2,723
2,XOXOX,151,1,748,Correct,2,872
2,CUCUC,7,1,788,Incorrect,2,912
2,RFRFR,13,1,783,Correct,2,791
2,VYVSV,161,2,716,Correct,2,703
2,VDVDV,191,1,935,Correct,2,812
2,GKGQG,15,2,575,Correct,2,743
2,SCSCS,151,1,724,Correct,2,690
2,CTCUC,82,3,657,Correct,2,773
2,RCRCR,13,1,703,Correct,2,874
2,BOBXB,161,2,722,Correct,2,700
2,FMFAF,162,2,667,Correct,2,820
2,BEBAB,163,2,661,Correct,2,908
2,PWPWP,151,1,789,Correct,2,740
2,UQCKC,231,2,707,Correct,2,676
2,OCOCO,113,1,768,Correct,2,808
2,TNTNT,152,1,743,Correct,2,896
2,QCQGQ,161,2,504,Correct,2,687
2,WVWVW,151,1,721,Correct,2,687
2,TQTQT,152,1,1046,Correct,2,949
2,FOFOF,225,1,822,Correct,2,767
2,WVWFW,222,2,752,Correct,2,790
2,SWSWS,151,1,589,Correct,2,739
2,FYFCF,161,2,538,Correct,2,884
2,SUSWS,91,1,601,Incorrect,2,940
2,CACHC,14,2,845,Correct,2,691
2,VDVKV,172,2,647,Correct,2,726
2,YCYCY,15,1,723,Correct,2,854
2,NMNTN,161,2,511,Correct,2,874
2,XOUKX,233,2,742,Correct,2,700
2,BPBPB,113,1,960,Correct,2,821
2,MRMRM,152,1,869,Correct,2,792
2,XMXMX,153,1,538,Correct,2,767
2,AUAHA,101,2,686,Incorrect,2,796
2,XKXEU,235,1,662,Incorrect,2,913
2,TFTFT,113,1,633,Correct,2,661
2,MDMDM,193,1,905,Correct,2,812
2,WYWMW,16,2,721,Correct,2,682
2,AZUZA,223,1,827,Correct,2,897
2,KEKHK,222,2,582,Correct,2,765
2,LALAL,151,1,696,Correct,2,756
2,CWCDC,184,2,882,Incorrect,2,900
2,SGSTS,16,2,585,Correct,2,754
2,PXPXP,151,1,749,Correct,2,777
2,GRGYG,161,2,685,Correct,2,680
2,PUPOP,111,3,510,Correct,2,758
2,RNRNR,14,2,652,Incorrect,2,920
2,KDKDK,195,1,639,Correct,2,671
2,KTKTK,15,1,610,Correct,2,690
2,OROKO,161,2,930,Correct,2,793
2,UNANA,221,2,757,Incorrect,2,805
2,TATAT,113,1,796,Correct,2,881
2,AWAWA,152,1,601,Incorrect,2,668
2,RDRDR,196,1,653,Correct,2,813
2,FCFCF,15,1,602,Correct,2,790
2,ZMZMZ,152,1,647,Correct,2,921
2,BUBUB,12,3,1160,Correct,2,761
3,E,5,3,2794,New Target,3,730
3,YZYZY,151,1,931,Correct,3,795
3,VFVNV,161,2,676,Correct,3,946
3,KAKAK,151,1,617,Correct,3,656
3,TKTKT,152,1,526,Correct,3,691
3,WHWTW,161,2,662,Correct,3,670
3,QEQFQ,71,3,809,Correct,3,661
3,XNXNX,13,1,680,Correct,3,690
3,TXTXT,152,1,570,Correct,3,689
3,GLGNG,161,2,558,Correct,3,711
3,CUCTC,171,2,735,Correct,3,854
3,FAFQF,16,2,567,Correct,3,915
3,ZLZLZ,151,1,831,Correct,3,706
3,YZYZY,152,1,585,Correct,3,715
3,CYCYC,153,1,653,Correct,3,714
3,HUHUH,192,1,955,Correct,3,799
3,OSORO,16,2,562,Correct,3,743
3,YOYOY,151,1,768,Correct,3,834
3,CECEC,8,3,848,Correct,3,657
3,VNENV,223,2,761,Incorrect,3,738
3,KQKFK,222,2,726,Correct,3,793
3,XLXLE,225,1,724,Correct,3,725
3,QFQUQ,183,2,652,Correct,3,898
3,SWSLS,16,2,573,Correct,3,789
3,NBNPN,162,2,612,Correct,3,650
3,SGSGS,151,1,504,Correct,3,726
3,FBFBF,152,1,544,Correct,3,722
3,PFPFP,153,1,573,Correct,3,918
3,AGASA,161,2,644,Correct,3,665
3,KEKEK,9,3,743,Correct,3,736
3,CWCOC,14,2,552,Correct,3,669
3,HXHXH,151,1,861,Correct,3,733
3,NUNZN,174,2,775,Correct,3,711
3,QMQVQ,16,2,749,Correct,3,868
3,SQSQS,151,1,806,Correct,3,932
3,ERNFN,231,2,733,Incorrect,3,788
3,AQANA,222,2,656,Correct,3,655
3,OBOEO,102,2,569,Incorrect,3,899
3,SYSXS,14,2,794,Correct,3,823
3,QBQHQ,162,2,665,Correct,3,714
3,XQXQX,151,1,681,Correct,3,821
3,KUKFK,175,2,789,Correct,3,852
3,RKRKR,15,1,618,Correct,3,886
3,GFGFG,152,1,557,Correct,3,710
3,YBYVY,161,2,591,Correct,3,792
3,SPSTS,162,2,736,Correct,3,834
3,AQAQA,151,1,511,Correct,3,680
3,EPVPV,221,1,863,Correct,3,936
3,CQCEC,112,2,560,Incorrect,3,878
3,RFRCR,14,2,648,Correct,3,695
3,CPCVC,162,2,608,Correct,3,949
3,RXRCR,163,2,625,Correct,3,789
3,TNTLT,164,2,652,Correct,3,882
3,BSBSB,151,1,876,Correct,3,741
3,ZBZBZ,152,1,673,Correct,3,894
3,OYOUO,186,2,1169,Correct,3,807
3,AKAOA,16,2,734,Correct,3,716
3,YQEWY,233,2,717,Correct,3,715
3,ZMZMZ,113,1,588,Correct,3,723
3,SWSTS,161,2,651,Correct,3,861
3,MFMQE,235,2,600,Correct,3,843
3,RSRLR,222,2,537,Correct,3,763
3,QEQWQ,121,3,877,Correct,3,784
4,K,5,3,1417,New Target,4,823
4,CACHC,161,2,1297,Correct,4,768
4,RWRCR,162,2,1542,Correct,4,790
4,FOFVF,163,2,551,Correct,4,766
4,LGLGL,151,1,647,Correct,4,850
4,PLPLP,152,1,581,Correct,4,839
4,NPNPN,153,1,901,Correct,4,879
4,SGSZS,161,2,694,Correct,4,940
4,DNDMD,162,2,686,Correct,4,941
4,OCOAK,235,2,590,Correct,4,722
4,VYVYV,113,1,595,Correct,4,694
4,RLRLR,152,1,564,Correct,4,782
4,DKDKD,7,3,491,Correct,4,677
4,ZLZLZ,13,1,624,Correct,4,794
4,FZFZF,152,1,644,Correct,4,671
4,CFCFC,153,1,581,Correct,4,719
4,OZOZO,154,1,1254,Correct,4,784
4,XEXEX,191,1,493,Correct,4,833
4,NVNFN,16,2,719,Correct,4,867
4,AYAYA,151,1,602,Correct,4,865
4,BNBVB,161,2,858,Correct,4,834
4,AHKXA,233,2,706,Correct,4,828
4,WFWFW,113,1,562,Correct,4,684
4,SNSNS,152,1,708,Correct,4,803
4,FKFMF,81,3,868,Correct,4,760
4,DZDYD,14,2,771,Correct,4,948
4,GXGDG,162,2,674,Correct,4,709
4,AYAYK,225,1,658,Correct,4,763
4,FPFGF,222,2,555,Correct,4,920
4,WRWRW,151,1,920,Correct,4,924
4,YPYEY,182,2,728,Correct,4,899
4,SQSQS,15,1,661,Correct,4,823
4,WZWPW,161,2,701,Correct,4,946
4,CKCKC,9,3,1061,Correct,4,938
4,BWBVB,14,2,818,Correct,4,910
4,HMHMH,151,1,1080,Correct,4,854
4,VEVNV,173,2,551,Correct,4,774
4,GMGVG,16,2,638,Correct,4,709
4,XHXKX,102,3,739,Correct,4,682
4,QXQRQ,14,2,624,Correct,4,731
4,LQLQL,151,1,1134,Correct,4,895
4,ALELA,223,1,696,Correct,4,888
4,TPTKT,222,1,784,Incorrect,4,928
4,GEGEG,194,1,582,Correct,4,898
4,ZNZNZ,15,1,709,Correct,4,818
4,YZYZY,152,1,605,Correct,4,899
4,SYSYS,153,1,602,Correct,4,882
4,ZSZSZ,221,1,907,Correct,4,817
4,LALGL,222,2,739,Correct,4,683
4,CYCTC,162,2,669,Correct,4,884
4,WEWEW,195,1,603,Correct,4,816
4,CHCSC,16,2,702,Correct,4,804
4,GWGXG,162,2,661,Correct,4,930
4,FGFGF,151,1,552,Correct,4,672
4,QWQKQ,112,3,713,Correct,4,809
4,OQOFO,14,2,693,Correct,4,823
4,PMPEP,186,2,755,Correct,4,806
4,WBWPW,16,2,753,Correct,4,758
4,KCDHD,231,2,774,Correct,4,913
4,RSRWR,222,2,541,Correct,4,933
4,HGHGH,151,3,701,Incorrect,4,901
4,SKSKS,12,1,637,Incorrect,4,667
5,L,5,3,1818,New Target,5,666
5,PDPDP,151,1,896,Correct,5,756
5,WAWAW,152,1,628,Correct,5,769
5,HWHWH,153,1,657,Correct,5,904
5,SHSHS,154,1,562,Correct,5,782
5,BRBWB,161,2,698,Correct,5,707
5,FPFBF,162,2,904,Correct,5,735
5,GAGAG,151,1,589,Correct,5,843
5,QVQGQ,161,2,634,Correct,5,877
5,CLCLC,7,3,748,Correct,5,714
5,XWXWX,13,1,795,Correct,5,740
5,AUAUA,152,1,646,Correct,5,808
5,CKCKC,191,1,648,Correct,5,726
5,FNFCF,16,2,605,Correct,5,705
5,UHUQU,162,2,779,Correct,5,804
5,FZFZF,151,1,867,Correct,5,892
5,THLHT,223,1,628,Correct,5,931
5,CUCLC,82,2,791,Incorrect,5,753
5,BSBSB,13,1,561,Correct,5,835
5,FDFBF,161,2,670,Correct,5,919
5,LXRXR,221,2,493,Incorrect,5,775
5,ZOZNZ,222,2,713,Correct,5,651
5,UZUZU,151,1,673,Correct,5,878
5,AQATA,161,2,707,Correct,5,758
5,UNUPU,162,2,798,Correct,5,891
5,RVRKR,182,2,727,Correct,5,851
5,URURU,15,1,840,Correct,5,664
5,VLVLV,9,3,427,Correct,5,946
5,DXDVD,14,2,706,Correct,5,826
5,PZPZP,151,1,578,Correct,5,736
5,LXUMU,231,2,874,Correct,5,676
5,AKADA,173,2,501,Incorrect,5,653
5,HYHYH,15,1,891,Correct,5,847
5,AVAVA,152,1,651,Correct,5,896
5,TUTUT,153,1,826,Correct,5,822
5,XYXWX,161,2,908,Correct,5,916
5,TKTDT,174,2,1399,Correct,5,728
5,NXNYN,16,2,501,Correct,5,912
5,USUCU,162,2,630,Correct,5,913
5,ZMZMZ,151,1,660,Correct,5,829
5,WRWAW,161,2,590,Correct,5,930
5,GWGXG,162,2,562,Correct,5,757
5,MUMYL,235,2,1100,Correct,5,650
5,CNCNC,113,1,702,Correct,5,694
5,RLRLR,10,3,822,Correct,5,894
5,UAUWU,14,2,897,Correct,5,773
5,FXLRF,233,2,1062,Correct,5,844
5,PFPFP,113,1,615,Correct,5,786
5,HPHPH,152,2,724,Incorrect,5,915
5,GKGKG,195,3,1332,Incorrect,5,655
5,ZUZTZ,16,2,970,Correct,5,787
5,AVASA,162,2,568,Correct,5,899
5,PRPRP,151,2,504,Incorrect,5,853
5,YPYPY,152,1,760,Correct,5,938
5,ZLZOZ,111,2,687,Incorrect,5,861
5,WMWSW,14,2,866,Correct,5,695
5,RZRXR,162,2,719,Correct,5,658
5,QWQWQ,151,1,728,Correct,5,920
5,ZKZKZ,196,1,675,Correct,5,880
5,CVCVL,225,1,702,Incorrect,5,840
5,NMNMN,113,1,1311,Correct,5,760
5,TRTGT,161,2,739,Correct,5,824
5,CTCTC,151,1,557,Correct,5,864
5,RKRLR,122,2,711,Incorrect,5,652
6,B,5,3,2756,New Target,6,718
6,YMYGY,161,2,803,Correct,6,740
6,HUHRH,162,2,623,Correct,6,795
6,WHWHW,151,1,682,Correct,6,880
6,MGMRM,161,2,601,Correct,6,702
6,ZVZWZ,162,2,825,Correct,6,839
6,RCRTR,163,2,613,Correct,6,742
6,DSDRD,164,2,596,Correct,6,845
6,VTBDV,233,2,537,Correct,6,682
6,DSDHD,222,2,611,Correct,6,668
6,QEQEQ,151,1,626,Correct,6,825
6,XOXQX,161,2,798,Correct,6,911
6,RARBR,72,3,1009,Correct,6,914
6,GMGMG,13,1,600,Correct,6,664
6,ELERE,171,2,985,Correct,6,719
6,HZHUH,16,2,665,Correct,6,880
6,RHRVR,162,2,499,Correct,6,877
6,YBYBY,8,3,538,Correct,6,775
6,PYPVP,14,2,643,Correct,6,651
6,TLTLT,192,1,1428,Correct,6,793
6,QTQTQ,15,1,583,Correct,6,764
6,NXNVN,161,2,602,Correct,6,818
6,QNQNQ,151,1,933,Correct,6,874
6,FUFHF,161,2,668,Correct,6,716
6,YVYFB,235,2,504,Incorrect,6,820
6,WQWSW,222,2,489,Correct,6,885
6,HNHLH,193,2,656,Incorrect,6,787
6,OSOTO,16,2,513,Correct,6,713
6,GWGOG,162,2,453,Correct,6,843
6,UBUBU,9,3,776,Correct,6,842
6,CWCWC,13,2,493,Incorrect,6,943
6,OCOEO,161,2,542,Correct,6,936
6,MNMNM,151,,,Incorrect,6,909
6,XLXLX,194,3,906,Incorrect,6,788
6,AYAYA,15,1,1180,Correct,6,896
6,FUFAF,161,2,736,Correct,6,931
6,ANAQA,162,2,665,Correct,6,865
6,BUPWP,231,2,889,Correct,6,693
6,WSWSW,113,1,608,Correct,6,793
6,FRFRF,152,1,721,Correct,6,769
6,AUAUA,153,1,921,Correct,6,904
6,GMGCG,161,2,624,Correct,6,784
6,HLHWH,175,2,996,Correct,6,678
6,PQBQP,223,2,534,Incorrect,6,830
6,AZABA,102,2,624,Incorrect,6,661
6,CWCVC,14,2,1315,Correct,6,676
6,FAFAF,151,1,1350,Correct,6,838
6,VMVSV,161,2,791,Correct,6,927
6,GBGBG,11,3,655,Correct,6,844
6,FOFNF,14,2,639,Correct,6,773
6,DSDSD,151,1,670,Correct,6,780
6,YDYDY,152,1,735,Correct,6,685
6,FOFOF,153,1,989,Correct,6,731
6,CHCHB,225,1,635,Correct,6,892
6,ZCZCZ,113,1,521,Correct,6,866
6,DZDGD,161,2,991,Correct,6,759
6,MLMEM,176,2,641,Correct,6,816
6,PXPXP,15,1,683,Correct,6,934
6,QYQYQ,152,1,510,Correct,6,661
6,GRGCG,161,2,658,Correct,6,855
6,QVQVQ,151,1,579,Correct,6,757
6,XYXNX,161,2,584,Correct,6,727
6,BHMHM,221,1,773,Correct,6,874
6,CBCBC,12,1,673,Incorrect,6,789
