Trial No,Stimulus,Trigger,Response,Response Time(ms),Correct,Block,Fixation Duration
Practice
OT Practice
1,SKSKS,15,2,1024,False,0,899
1,DLDUD,16,2,1052,Correct,0,857
1,PDPGP,16,,,False,0,696
1,MWMWM,15,1,976,Correct,0,909
1,FTFTF,15,1,797,Correct,0,915
1,AXAMA,16,2,685,Correct,0,941
1,RYRGR,16,2,805,Correct,0,858
1,DODOD,15,1,719,Correct,0,690
1,QTQAQ,16,2,683,Correct,0,719
1,YEYEY,15,1,616,Correct,0,732
2,GYGDG,16,2,1371,Correct,0,686
2,SWSWS,15,1,650,Correct,0,819
2,HLHUH,16,2,708,Correct,0,834
2,DEDED,15,1,667,Correct,0,905
2,ZPZOZ,16,2,550,Correct,0,798
2,ATATA,15,1,691,Correct,0,810
2,QOQOQ,15,1,658,Correct,0,657
2,FPFGF,16,2,720,Correct,0,709
2,TRTET,16,2,614,Correct,0,876
2,DQDQD,15,1,903,Correct,0,744
4,PLPLP,15,1,883,Correct,0,660
4,ATAIA,16,2,740,Correct,0,811
4,SKSGS,16,2,871,Correct,0,941
4,ZYZYZ,15,1,735,Correct,0,706
4,QSQSQ,15,1,642,Correct,0,932
4,TZTDT,16,2,634,Correct,0,916
4,JYJGJ,16,1,628,False,0,895
4,DYDYD,15,1,580,Correct,0,730
4,LTLCL,16,2,837,Correct,0,734
4,FQFEF,16,2,904,Correct,0,876
1,SKSKS,15,1,841,Correct,0,754
1,DLDUD,16,2,622,Correct,0,811
1,PDPGP,16,2,663,Correct,0,902
1,MWMWM,15,1,692,Correct,0,766
1,FTFTF,15,1,653,Correct,0,825
1,AXAMA,16,2,554,Correct,0,783
1,RYRGR,16,2,660,Correct,0,933
1,DODOD,15,1,754,Correct,0,690
1,QTQAQ,16,2,549,Correct,0,917
1,YEYEY,15,1,619,Correct,0,709
DT Practice
1,TKTKT,15,,,False,0,833
1,SLSUS,16,2,1438,Correct,0,695
1,VZVGV,7,,,False,0,863
1,XWXZX,7,,,False,0,913
1,ATATA,15,1,936,Correct,0,704
1,HXZMH,16,,,False,0,680
1,TZTZT,7,,,False,0,702
1,UOUOU,15,,,False,0,763
1,ZTWAW,16,1,1534,False,0,862
1,RZRER,7,,,False,0,864
2,JYJDJ,16,2,1275,Correct,0,874
2,DWDWD,15,2,1184,False,0,804
2,GNGNG,7,,,False,0,660
2,NEZEZ,16,2,1055,False,0,763
2,RNROR,7,[1][3],[1396][1460],False,0,739
2,QTQNQ,7,[1][3],[784][896],False,0,737
2,HOHON,15,,,False,0,863
2,KPKGK,16,,,False,0,765
2,DRDED,16,2,607,Correct,0,733
2,LNLNL,7,[1][3],[1445][1541],Correct,0,787
4,GLGLG,15,,,False,0,703
4,DTDID,16,2,761,Correct,0,941
4,SMSGS,16,2,830,Correct,0,866
4,ZFZYZ,7,[1][3],[909][1053],False,0,722
4,TSTFT,7,[2][3],[823][935],Correct,0,905
4,OFOFO,7,[1][3],[1239][1367],Correct,0,808
4,WYFGW,16,2,1329,Correct,0,689
4,WYWYW,15,1,1423,Correct,0,902
4,MFMCM,7,[2][3],[999][1191],Correct,0,688
4,HQHEH,16,2,1247,Correct,0,849
1,TKTKT,15,1,1462,Correct,0,681
1,SLSUS,16,2,871,Correct,0,664
1,VZVGV,7,[2][3],[1096][1368],Correct,0,705
1,XWXZX,7,[2][3],[767][1135],Correct,0,700
1,ATATA,15,1,1065,Correct,0,810
1,HXZMH,16,2,1241,Correct,0,695
1,TZTZT,7,[1][3],[1038][1342],Correct,0,946
1,UOUOU,15,1,1091,Correct,0,743
1,ZTWAW,16,2,808,Correct,0,940
1,RZRER,7,[2][3],[999][1207],Correct,0,907
2,JYJDJ,16,2,833,Correct,0,894
2,DWDWD,15,1,946,Correct,0,869
2,GNGNG,7,[2][3],[1090][1298],False,0,660
2,NEZEZ,16,1,1538,Correct,0,870
2,RNROR,7,[2][3],[951][1207],Correct,0,894
2,QTQNQ,7,[2][3],[812][1084],Correct,0,857
2,HOHON,15,1,969,Correct,0,825
2,KPKGK,16,2,1270,Correct,0,893
2,DRDED,16,2,774,Correct,0,932
2,LNLNL,7,[1][3],[951][1175],Correct,0,698
Trials
1,D,5,3,2630,New Target,1,903
1,ZNZYZ,161,1,1076,Incorrect,1,937
1,FZFZF,151,20,1368,Incorrect,1,706
1,RKRKR,152,20,872,Incorrect,1,917
1,RXRNR,161,1,1074,Incorrect,1,671
1,CNCFC,162,1,847,Incorrect,1,846
1,PDPDP,7,[20][3],[840][1080],Incorrect,1,944
1,CPCFC,14,1,1321,Incorrect,1,896
1,VLVNV,162,1,679,Incorrect,1,939
1,KFKFK,151,20,769,Incorrect,1,923
1,ZNZNZ,152,1,805,Correct,1,943
1,KCKPD,235,1,1008,Incorrect,1,701
1,ZKZFZ,222,1,876,Incorrect,1,919
1,NRNZN,162,1,1182,Incorrect,1,928
1,KXKRK,163,1,743,Incorrect,1,838
1,YPYZY,164,1,752,Incorrect,1,890
1,FKDKF,223,20,1073,Incorrect,1,665
1,RPRPR,113,20,1086,Incorrect,1,869
1,VRVKV,161,1,880,Incorrect,1,710
1,RFRPR,162,1,1176,Incorrect,1,732
1,KVKVK,151,20,818,Incorrect,1,833
1,YKYVY,161,1,1435,Incorrect,1,765
1,VDVDV,8,[20][3],[846][1022],Incorrect,1,756
1,DVZVZ,221,20,1115,Incorrect,1,797
1,YFYFY,113,20,707,Incorrect,1,861
1,ZYZYZ,152,20,867,Incorrect,1,716
1,VLVXV,161,1,766,Incorrect,1,758
1,DPXZX,231,1,1157,Incorrect,1,895
1,RYRYR,113,20,952,Incorrect,1,662
1,PDPNP,91,[1][3],[904][1127],Incorrect,1,747
1,KXKXK,13,20,1171,Incorrect,1,747
1,ZYZYZ,152,20,813,Incorrect,1,888
1,VKVKV,153,20,769,Incorrect,1,950
1,YZYZY,154,20,971,Incorrect,1,780
1,NLNZN,161,1,1265,Incorrect,1,683
1,ZNDYZ,233,1,1132,Incorrect,1,704
1,PCPXP,222,1,1242,Incorrect,1,753
1,ZVZFZ,162,1,802,Incorrect,1,816
1,RCRZR,163,1,748,Incorrect,1,779
1,LRLRL,151,20,810,Incorrect,1,701
1,ZDZDZ,10,[20][3],[948][1156],Incorrect,1,828
1,RNRZR,14,1,1035,Incorrect,1,683
1,CXCYC,162,1,1180,Incorrect,1,726
1,RCRLR,163,1,938,Incorrect,1,723
1,FRFRF,151,1,650,Correct,1,852
1,XFXFX,152,20,678,Incorrect,1,868
1,RPRLR,161,1,942,Incorrect,1,950
1,YXYRY,162,1,823,Incorrect,1,667
1,FYFYF,151,20,878,Incorrect,1,895
1,YZYVY,161,1,821,Incorrect,1,741
1,YKYKY,151,20,835,Incorrect,1,685
1,XRXRX,152,20,743,Incorrect,1,870
1,XVXZX,161,1,708,Incorrect,1,731
1,PDPDP,11,[20][3],[943][1135],Incorrect,1,683
1,ZFZFZ,13,1,1050,Correct,1,888
1,PXPXP,152,20,748,Incorrect,1,737
1,LYLYL,153,20,821,Incorrect,1,841
1,NKNKD,225,,,Incorrect,1,798
1,ZNZNZ,113,20,969,Incorrect,1,745
1,PYPZP,161,1,893,Incorrect,1,795
1,XPXPX,151,20,1239,Incorrect,1,689
1,VLVLV,152,20,707,Incorrect,1,691
1,PKPXP,161,1,1136,Incorrect,1,827
1,FZFZF,151,20,1552,Incorrect,1,689
1,LDLDL,12,[20][3],[942][1117],Incorrect,1,708
2,U,5,3,958,New Target,2,919
2,ZVZFZ,161,1,1195,Incorrect,2,941
2,FZFZF,151,20,906,Incorrect,2,656
2,RFRFR,152,20,861,Incorrect,2,884
2,NZNKN,161,1,917,Incorrect,2,810
2,FZFNF,162,1,788,Incorrect,2,947
2,RXRXR,151,20,868,Incorrect,2,664
2,KRKYK,161,1,921,Incorrect,2,841
2,NZNPN,162,1,1277,Incorrect,2,807
2,XPXPX,151,20,825,Incorrect,2,729
2,CUCUC,7,[20][3],[1066][1226],Incorrect,2,715
2,RFRFR,13,20,1015,Incorrect,2,820
2,VYVXV,161,1,711,Incorrect,2,823
2,VDVDV,191,1,993,Correct,2,894
2,ZKZRZ,15,1,1271,Incorrect,2,737
2,XCXCX,151,,,Incorrect,2,825
2,CNCUC,82,,,Incorrect,2,889
2,RCRCR,13,1,1021,Correct,2,738
2,ZPZXZ,161,,,Incorrect,2,705
2,FKFYF,162,2,733,Correct,2,701
2,ZFZYZ,163,2,1416,Correct,2,813
2,PXPXP,151,1,1046,Correct,2,910
2,URCKC,231,2,743,Correct,2,757
2,PCPCP,113,1,812,Correct,2,922
2,XNXNX,152,1,1032,Correct,2,682
2,RCRZR,161,2,1019,Correct,2,703
2,XVXVX,151,,,Incorrect,2,870
2,NRNRN,152,1,627,Correct,2,832
2,FPFPF,225,1,790,Correct,2,725
2,XVXFX,222,1,955,Incorrect,2,895
2,PRPRP,151,1,976,Correct,2,814
2,FYFCF,161,2,624,Correct,2,819
2,XUXFX,91,[1][3],[906][1306],Incorrect,2,901
2,CYCVC,14,,,Incorrect,2,735
2,VDVKV,172,2,882,Correct,2,653
2,YCYCY,15,1,636,Correct,2,650
2,NKNLN,161,2,696,Correct,2,887
2,XPUKX,233,2,1108,Correct,2,891
2,ZPZPZ,113,1,658,Correct,2,729
2,KRKRK,152,1,829,Correct,2,837
2,XKXKX,153,1,683,Correct,2,725
2,YUYVY,101,[2],[883],Incorrect,2,878
2,XKXFU,235,1,1052,Incorrect,2,813
2,NFNFN,113,1,844,Correct,2,855
2,KDKDK,193,1,706,Correct,2,833
2,XYXKX,16,2,844,Correct,2,880
2,YZUZY,223,2,1016,Incorrect,2,711
2,KFKVK,222,2,1080,Correct,2,780
2,LYLYL,151,1,1148,Correct,2,712
2,CXCDC,184,2,1025,Incorrect,2,931
2,XZXNX,16,1,1281,Incorrect,2,804
2,PXPXP,151,1,678,Correct,2,795
2,ZRZYZ,161,2,1218,Correct,2,843
2,PUPYP,111,[1][3],[1090][1218],Incorrect,2,888
2,RNRNR,14,1,758,Correct,2,950
2,KDKDK,195,1,844,Correct,2,902
2,KNKNK,15,1,920,Correct,2,654
2,PRPKP,161,2,1585,Correct,2,676
2,UNYNY,221,1,990,Correct,2,758
2,NYNYN,113,1,1357,Correct,2,902
2,YXYXY,152,1,688,Incorrect,2,873
2,RDRDR,196,1,1059,Correct,2,675
2,FCFCF,15,1,670,Correct,2,922
2,ZKZKZ,152,1,616,Correct,2,896
2,ZUZUZ,12,[2][3],[895][1102],Incorrect,2,906
3,E,5,3,1226,New Target,3,826
3,YZYZY,151,1,1310,Correct,3,874
3,VFVNV,161,2,755,Correct,3,813
3,KYKYK,151,1,1038,Correct,3,836
3,NKNKN,152,1,788,Correct,3,684
3,XVXNX,161,2,797,Correct,3,840
3,RERFR,71,[1][3],[1008][1200],Incorrect,3,651
3,XNXNX,13,1,1039,Correct,3,718
3,NXNXN,152,2,881,Incorrect,3,773
3,ZLZNZ,161,2,976,Correct,3,950
3,CUCNC,171,2,997,Correct,3,795
3,FYFRF,16,2,891,Correct,3,669
3,ZLZLZ,151,1,717,Correct,3,897
3,YZYZY,152,1,779,Correct,3,746
3,CYCYC,153,1,694,Correct,3,778
3,VUVUV,192,1,930,Correct,3,873
3,PXPRP,16,2,806,Correct,3,767
3,YPYPY,151,1,672,Correct,3,792
3,CECEC,8,,,Incorrect,3,827
3,VNENV,223,1,1587,Correct,3,754
3,KRKFK,222,2,1007,Correct,3,780
3,XLXLE,225,1,1165,Correct,3,944
3,RFRUR,183,2,940,Correct,3,733
3,XRXLX,16,2,655,Correct,3,792
3,NZNPN,162,2,1180,Correct,3,819
3,XZXZX,151,1,805,Correct,3,808
3,FZFZF,152,1,698,Correct,3,911
3,PFPFP,153,1,737,Correct,3,945
3,YZYXY,161,2,705,Correct,3,713
3,KEKEK,9,[1][3],[993][1152],Correct,3,721
3,CXCPC,14,2,634,Correct,3,745
3,VXVXV,151,1,948,Correct,3,882
3,NUNZN,174,2,664,Correct,3,777
3,RKRVR,16,2,626,Correct,3,933
3,XRXRX,151,1,1046,Correct,3,685
3,ERNFN,231,2,1042,Incorrect,3,935
3,YRYNY,222,2,1448,Correct,3,673
3,PZPEP,102,[1][2],[928][1328],Incorrect,3,671
3,ZYZXZ,14,2,1566,Correct,3,714
3,RZRVR,162,2,926,Correct,3,698
3,XRXRX,151,1,723,Correct,3,771
3,KUKFK,175,2,957,Correct,3,820
3,RKRKR,15,1,822,Correct,3,690
3,ZFZFZ,152,1,787,Correct,3,710
3,YZYVY,161,2,728,Correct,3,912
3,XPXNX,162,2,815,Correct,3,904
3,YRYRY,151,1,647,Correct,3,811
3,EPVPV,221,1,1223,Correct,3,741
3,CRCEC,112,[2][3],[1166][1326],Correct,3,909
3,RFRCR,14,2,1114,Correct,3,795
3,CPCVC,162,2,900,Correct,3,940
3,RXRCR,163,2,710,Correct,3,886
3,VNVLV,164,2,712,Correct,3,713
3,ZXZXZ,151,1,854,Correct,3,788
3,ZCZCZ,152,1,891,Correct,3,877
3,PYPUP,186,2,688,Correct,3,797
3,YKYPY,16,2,728,Correct,3,901
3,YREXY,233,2,1080,Correct,3,716
3,ZKZKZ,113,1,763,Correct,3,701
3,XLXNX,161,2,736,Correct,3,886
3,KFKRE,235,2,1118,Correct,3,731
3,RXRLR,222,2,678,Correct,3,893
3,RERXR,121,[2][3],[980][1188],Correct,3,877
4,J,5,3,1458,New Target,4,795
4,CYCVC,161,2,1262,Correct,4,678
4,RXRCR,162,2,690,Correct,4,889
4,FPFVF,163,2,698,Correct,4,902
4,LZLZL,151,1,810,Correct,4,663
4,PLPLP,152,1,674,Correct,4,803
4,NPNPN,153,1,797,Correct,4,902
4,XZXZX,161,1,891,Incorrect,4,655
4,CNCKC,162,2,815,Correct,4,867
4,PCPYJ,235,2,917,Correct,4,934
4,VYVYV,113,1,747,Correct,4,725
4,RLRLR,152,1,761,Correct,4,731
4,CJCJC,7,[1][3],[978][1170],Correct,4,714
4,ZLZLZ,13,1,833,Correct,4,721
4,FZFZF,152,1,547,Correct,4,898
4,CFCFC,153,1,567,Correct,4,737
4,PZPZP,154,1,592,Correct,4,655
4,XEXEX,191,1,1101,Correct,4,947
4,NVNFN,16,2,797,Correct,4,756
4,KYKYK,151,1,979,Correct,4,895
4,ZNZVZ,161,2,843,Correct,4,708
4,YVJXY,233,2,1133,Correct,4,899
4,XFXFX,113,1,703,Correct,4,679
4,XNXNX,152,1,684,Correct,4,821
4,FJFKF,81,[2][3],[689][993],Correct,4,887
4,CZCYC,14,2,1121,Correct,4,805
4,ZXZCZ,162,2,772,Correct,4,684
4,RYRYJ,225,1,835,Correct,4,653
4,FPFZF,222,,,Incorrect,4,746
4,XRXRX,151,1,807,Correct,4,803
4,YPYEY,182,2,721,Correct,4,776
4,XRXRX,15,1,780,Correct,4,858
4,XZXPX,161,2,732,Correct,4,668
4,CJCJC,9,[1][3],[1057][1248],Correct,4,855
4,ZXZVZ,14,2,691,Correct,4,946
4,VKVKV,151,1,765,Correct,4,854
4,VEVNV,173,2,825,Correct,4,753
4,ZKZVZ,16,2,692,Correct,4,707
4,XVXJX,102,[2][3],[890][1098],Correct,4,739
4,RXRVR,14,2,1113,Correct,4,931
4,LRLRL,151,1,939,Correct,4,672
4,YNJNY,223,1,751,Correct,4,826
4,NPNJN,222,2,832,Correct,4,653
4,ZEZEZ,194,1,905,Correct,4,721
4,ZNZNZ,15,1,940,Correct,4,866
4,YZYZY,152,1,699,Correct,4,949
4,XYXYX,153,1,712,Correct,4,856
4,ZXZXZ,221,1,693,Correct,4,830
4,LYLZL,222,1,1360,Incorrect,4,944
4,CYCNC,162,2,947,Correct,4,818
4,XEXEX,195,1,887,Correct,4,797
4,CVCXC,16,2,1265,Correct,4,759
4,ZPZXZ,162,2,730,Correct,4,767
4,FZFZF,151,1,859,Correct,4,696
4,RXRJR,112,[2][3],[811][1067],Correct,4,744
4,PRPFP,14,2,857,Correct,4,874
4,PKPEP,186,2,691,Correct,4,692
4,XZXPX,16,2,655,Correct,4,913
4,JCZVZ,231,2,622,Correct,4,796
4,RXRLR,222,2,585,Correct,4,936
4,VZVZV,151,1,878,Correct,4,661
4,XJXJX,12,[1][3],[861][1037],Correct,4,763
5,I,5,3,1154,New Target,5,846
5,PCPCP,151,1,867,Correct,5,688
5,XYXYX,152,2,672,Incorrect,5,669
5,VXVXV,153,1,827,Correct,5,816
5,XVXVX,154,1,770,Correct,5,827
5,ZRZXZ,161,2,745,Correct,5,931
5,FPFZF,162,2,1011,Correct,5,790
5,ZYZYZ,151,1,769,Correct,5,931
5,RVRZR,161,2,1485,Correct,5,730
5,CICIC,7,[1],[1022],Incorrect,5,731
5,XLXLX,13,2,951,Incorrect,5,756
5,YVYVY,152,,,Incorrect,5,928
5,CJCJC,191,1,652,Correct,5,921
5,FNFCF,16,2,1232,Correct,5,719
5,PVPRP,162,2,1016,Correct,5,880
5,FZFZF,151,1,715,Correct,5,726
5,NVIVN,223,2,1138,Incorrect,5,939
5,CVCIC,82,[2],[1481],Incorrect,5,878
5,ZXZXZ,13,1,755,Correct,5,692
5,FCFZF,161,2,977,Correct,5,732
5,IXRXR,221,1,902,Correct,5,743
5,ZPZNZ,222,2,694,Correct,5,937
5,VZVZV,151,1,728,Correct,5,674
5,YRYNY,161,2,1057,Correct,5,873
5,VNVPV,162,2,992,Correct,5,842
5,RVRJR,182,2,736,Correct,5,839
5,VRVRV,15,1,718,Correct,5,724
5,VIVIV,9,[1][3],[744][952],Correct,5,868
5,CXCVC,14,2,691,Correct,5,907
5,PZPZP,151,1,893,Correct,5,862
5,IXVKV,231,2,836,Correct,5,811
5,YJYCY,173,1,1073,Correct,5,675
5,VYVYV,15,1,898,Correct,5,726
5,YVYVY,152,1,889,Correct,5,772
5,NVNVN,153,1,955,Correct,5,904
5,XYXVX,161,2,719,Correct,5,803
5,NJNCN,174,2,1182,Correct,5,712
5,NXNYN,16,2,621,Correct,5,669
5,VXVCV,162,2,913,Correct,5,673
5,ZKZKZ,151,1,778,Correct,5,681
5,XRXYX,161,2,631,Correct,5,733
5,ZCZXZ,162,2,860,Correct,5,699
5,KVKYI,235,2,911,Correct,5,899
5,CNCNC,113,1,870,Correct,5,728
5,RIRIR,10,[1][3],[1036][1244],Correct,5,687
5,VYVXV,14,2,758,Correct,5,680
5,FXIRF,233,2,1091,Correct,5,793
5,PFPFP,113,1,720,Correct,5,833
5,VPVPV,152,1,1017,Correct,5,889
5,ZJZJZ,195,1,776,Correct,5,889
5,ZVZNZ,16,2,754,Correct,5,869
5,YVYXY,162,2,1072,Correct,5,757
5,PRPRP,151,1,911,Correct,5,804
5,YPYPY,152,1,737,Correct,5,844
5,ZIZPZ,111,[2][3],[878][1102],Correct,5,805
5,NKNXN,14,2,984,Correct,5,712
5,RZRXR,162,2,597,Correct,5,941
5,RXRXR,151,1,646,Correct,5,801
5,ZJZJZ,196,1,712,Correct,5,783
5,CVCVI,225,1,643,Incorrect,5,841
5,NKNKN,113,1,729,Correct,5,657
5,NRNZN,161,2,771,Correct,5,846
5,CNCNC,151,1,669,Correct,5,832
5,RFRIR,122,[2][3],[781][1037],Correct,5,762
6,B,5,3,1128,New Target,6,921
6,YKYZY,161,2,906,Correct,6,697
6,VCVRV,162,2,1053,Correct,6,895
6,XVXVX,151,1,685,Correct,6,755
6,KZKRK,161,2,732,Correct,6,747
6,ZVZXZ,162,2,710,Correct,6,847
6,RCRNR,163,2,645,Correct,6,774
6,CXCRC,164,2,584,Correct,6,751
6,VNBCV,233,2,1035,Correct,6,780
6,CXCVC,222,2,593,Correct,6,678
6,RFRFR,151,1,844,Correct,6,948
6,XPXRX,161,2,884,Correct,6,801
6,RYRBR,72,[2][3],[1030][1222],Correct,6,768
6,ZKZKZ,13,1,667,Correct,6,919
6,FIFRF,171,2,1208,Correct,6,918
6,VZVLV,16,2,515,Correct,6,776
6,RPRVR,162,2,563,Correct,6,866
6,YBYBY,8,[1][3],[832][992],Correct,6,919
6,PYPVP,14,2,701,Correct,6,840
6,NININ,192,2,1000,Incorrect,6,867
6,RNRNR,15,1,843,Correct,6,736
6,NXNVN,161,2,611,Correct,6,773
6,RNRNR,151,1,901,Correct,6,815
6,FRFVF,161,2,636,Correct,6,681
6,YVYFB,235,2,764,Incorrect,6,771
6,ZRZXZ,222,2,483,Correct,6,884
6,VNVIV,193,2,710,Incorrect,6,888
6,PXPNP,16,2,479,Correct,6,851
6,ZXZPZ,162,2,488,Correct,6,667
6,VBVBV,9,[1][3],[657][865],Correct,6,705
6,CXCXC,13,1,833,Correct,6,798
6,PCPFP,161,2,617,Correct,6,815
6,KNKNK,151,1,746,Correct,6,774
6,XIXIX,194,1,678,Correct,6,794
6,CYCYC,15,1,648,Correct,6,676
6,FVFYF,161,2,813,Correct,6,661
6,YNYRY,162,2,610,Correct,6,946
6,BVPXP,231,2,626,Correct,6,850
6,NXNXN,113,1,755,Correct,6,741
6,FRFRF,152,1,798,Correct,6,810
6,YVYVY,153,1,635,Correct,6,762
6,ZKZCZ,161,2,632,Correct,6,904
6,VIVXV,175,2,694,Correct,6,802
6,PRBRP,223,1,1251,Correct,6,865
6,YZYBY,102,[2][3],[994][1186],Correct,6,773
6,CXCVC,14,2,1179,Correct,6,925
6,FYFYF,151,1,581,Correct,6,824
6,VKVXV,161,2,771,Correct,6,843
6,ZBZBZ,11,[1][3],[681][889],Correct,6,936
6,FPFNF,14,2,781,Correct,6,682
6,CXCXC,151,1,970,Correct,6,706
6,YCYCY,152,1,668,Correct,6,864
6,FPFPF,153,1,631,Correct,6,892
6,CVCVB,225,1,1190,Correct,6,831
6,ZCZCZ,113,1,933,Correct,6,724
6,CZCNC,161,2,1067,Correct,6,786
6,KIKFK,176,2,782,Correct,6,701
6,PXPXP,15,1,755,Correct,6,926
6,RYRYR,152,1,789,Correct,6,650
6,ZRZCZ,161,2,720,Correct,6,723
6,RVRVR,151,1,717,Correct,6,805
6,XYXNX,161,2,694,Correct,6,905
6,BVKVK,221,1,932,Correct,6,730
6,CBCBC,12,[1][3],[844][1228],Correct,6,675
7,W,5,3,1199,New Target,7,654
7,RKRKR,151,1,1381,Correct,7,916
7,CVCRC,161,2,683,Correct,7,757
7,PKPKP,151,1,627,Correct,7,943
7,FPFPF,152,1,761,Correct,7,693
7,VRVPV,161,2,706,Correct,7,845
7,ZKZYZ,162,2,897,Correct,7,758
7,PVPCP,233,,,Incorrect,7,756
7,KVKVK,113,1,728,Correct,7,701
7,YXYVY,161,2,883,Correct,7,867
7,FNFNF,151,1,645,Correct,7,899
7,YWYWY,7,[1][3],[821][948],Correct,7,841
7,ZYZYZ,13,1,833,Correct,7,815
7,PYPYP,152,1,602,Correct,7,770
7,XRXRX,153,1,692,Correct,7,950
7,PXPXP,154,1,974,Correct,7,896
7,FCFBF,181,2,643,Correct,7,728
7,FVFVF,15,1,847,Correct,7,868
7,CYCZC,161,2,596,Correct,7,852
7,XZXVX,162,2,840,Correct,7,765
7,PFPFP,151,1,601,Correct,7,946
7,RVRLR,161,2,795,Correct,7,814
7,ZBZBZ,192,1,1187,Correct,7,843
7,VCVNV,16,2,613,Correct,7,654
7,NWNWN,8,[1][3],[1010][1170],Correct,7,945
7,XNXVX,14,2,757,Correct,7,800
7,CXCNC,162,2,742,Correct,7,688
7,YVYVW,225,1,687,Correct,7,798
7,VFVFV,113,1,972,Correct,7,851
7,VFWFV,223,1,495,Correct,7,806
7,CVCFC,222,2,657,Correct,7,883
7,YBYBY,193,1,1315,Correct,7,717
7,PYPYP,15,1,637,Correct,7,658
7,NKNWN,91,[2][3],[873][1097],Correct,7,732
7,VNVNV,13,1,909,Correct,7,712
7,RVRVR,152,1,818,Correct,7,797
7,FVFBF,184,2,663,Incorrect,7,831
7,VZVKV,16,2,826,Correct,7,690
7,VPVCV,162,2,673,Correct,7,849
7,WYZCZ,231,2,1027,Correct,7,741
7,PFPFP,113,1,696,Correct,7,741
7,PRPRP,152,1,625,Correct,7,939
7,NWNWN,10,[2][1],[695][1047],Incorrect,7,658
7,VKVCV,14,2,1521,Correct,7,811
7,WPYPY,221,1,796,Correct,7,927
7,VBVBV,195,1,746,Correct,7,723
7,ZKZYZ,16,1,1047,Incorrect,7,798
7,XYXYX,151,1,772,Correct,7,871
7,FZFXF,161,2,636,Correct,7,849
7,XKXKX,151,1,687,Correct,7,763
7,XPXPX,152,1,704,Correct,7,740
7,FWFWF,11,[1][3],[885][980],Correct,7,791
7,FNFBF,186,2,997,Correct,7,941
7,ZVZYZ,16,2,869,Correct,7,816
7,FZFZF,151,1,1099,Correct,7,810
7,NPNFW,235,2,715,Correct,7,753
7,PCPCP,113,1,762,Correct,7,731
7,NKNWN,122,[2][3],[911][1103],Correct,7,800
8,M,5,3,1077,New Target,8,830
8,VYVNV,161,2,1069,Correct,8,853
8,KLKNK,162,2,689,Correct,8,674
8,NRNRN,151,1,592,Correct,8,743
8,VNVFV,161,2,723,Correct,8,785
8,XNXNM,225,1,1007,Correct,8,787
8,CXCVC,222,2,648,Correct,8,675
8,KRKZK,162,2,663,Correct,8,755
8,NMNFN,71,[1][3],[916][1188],Incorrect,8,779
8,ZFZFZ,13,1,693,Correct,8,931
8,YPYCY,161,2,807,Correct,8,744
8,KCKCK,151,1,707,Correct,8,782
8,VNVNV,152,1,730,Correct,8,934
8,LXLXL,153,1,664,Correct,8,744
8,CLCLC,154,1,661,Correct,8,766
8,NYNYN,155,1,880,Correct,8,914
8,LCMYL,233,2,1041,Correct,8,906
8,NCNCN,113,1,957,Correct,8,922
8,ZVZRZ,161,2,708,Correct,8,716
8,ZVZVZ,151,1,751,Correct,8,831
8,PZPVP,161,2,666,Correct,8,841
8,PWPNP,171,1,1144,Incorrect,8,839
8,KLKCM,235,,,Incorrect,8,669
8,XMXMX,8,[1][3],[831][959],Correct,8,926
8,PRPXP,14,2,919,Correct,8,905
8,CVCYC,162,2,1150,Correct,8,708
8,PXPMP,92,[2][3],[908][1068],Correct,8,840
8,ZCZLZ,14,2,830,Correct,8,856
8,XWXWX,192,1,1095,Correct,8,860
8,ZCZLZ,16,2,1027,Correct,8,834
8,MNCYC,231,2,853,Correct,8,782
8,ZXZXZ,113,1,814,Correct,8,736
8,YRYNY,161,2,564,Correct,8,835
8,ZLZPZ,162,2,571,Correct,8,685
8,VZVZV,151,1,842,Correct,8,931
8,MXPXP,221,2,721,Incorrect,8,863
8,VWVWV,193,1,1197,Correct,8,820
8,PYPYP,16,1,664,Incorrect,8,737
8,XPXVX,162,2,681,Correct,8,752
8,XLXLX,151,1,854,Correct,8,789
8,YMYMY,10,[1][3],[799][959],Correct,8,766
8,VYVYV,13,1,799,Correct,8,789
8,PWPZP,174,2,662,Correct,8,816
8,PYPKP,16,2,725,Correct,8,762
8,NPNXN,162,2,1285,Correct,8,667
8,KVKVK,223,1,942,Correct,8,760
8,NVNFN,222,2,659,Correct,8,729
8,XNXNX,151,1,647,Correct,8,655
8,YZYMY,112,[1][3],[861][1069],Incorrect,8,798
8,PFPFP,13,1,912,Correct,8,790
8,ZWZWZ,195,1,902,Correct,8,787
8,PCPZP,16,2,736,Correct,8,693
8,LRLPL,162,2,887,Correct,8,887
8,CZCZC,151,1,689,Correct,8,716
8,NZNZN,152,1,926,Correct,8,777
8,CVCXC,161,2,687,Correct,8,923
8,XCXCX,151,1,670,Correct,8,771
8,YWYWY,196,1,752,Correct,8,706
8,NLNLN,15,1,828,Correct,8,736
8,VNVNV,152,1,801,Correct,8,879
8,ZMZMZ,12,[1][3],[1076][1204],Correct,8,841
9,S,5,3,2178,New Target,9,716
9,NZNZN,151,1,1292,Correct,9,791
9,KVKZK,161,2,704,Correct,9,902
9,LZLZL,151,1,698,Correct,9,885
9,XLXLX,152,1,1142,Correct,9,861
9,ZXZXZ,153,1,758,Correct,9,738
9,KNKZK,161,2,659,Correct,9,757
9,NRNYN,162,2,562,Correct,9,810
9,CLCVC,163,2,721,Correct,9,878
9,ZCZFZ,164,2,553,Correct,9,878
9,NSNSN,7,[1][1],[726][1286],Incorrect,9,733
9,VZVZV,13,1,897,Correct,9,720
9,NVNCN,161,2,728,Correct,9,706
9,VMVMV,191,1,953,Correct,9,707
9,CVCXC,16,2,1024,Correct,9,722
9,ZYZRZ,162,2,636,Correct,9,939
9,XNXZX,163,2,625,Correct,9,686
9,PXPXP,151,1,640,Correct,9,795
9,VCVSV,82,[2][3],[1295][1503],Correct,9,765
9,PRPCP,14,2,871,Correct,9,825
9,ZMZMZ,192,1,831,Incorrect,9,751
9,ZFZFZ,15,1,603,Correct,9,713
9,FCFCF,152,1,571,Correct,9,783
9,YLYZY,161,2,639,Correct,9,737
9,KNKVK,162,2,524,Correct,9,901
9,SFPCP,231,1,1263,Incorrect,9,828
9,RPRPR,113,1,1090,Correct,9,891
9,XMXMX,193,1,1187,Correct,9,715
9,KFKFK,15,1,585,Correct,9,911
9,VSVSV,9,[1][3],[1054][1198],Correct,9,782
9,YVSVY,223,1,1173,Correct,9,666
9,VPVPV,113,1,683,Correct,9,924
9,XZXZX,152,1,1227,Correct,9,788
9,KZKXK,161,2,1153,Correct,9,904
9,RFRPR,162,2,911,Correct,9,744
9,NVNVS,225,1,946,Correct,9,851
9,ZXZXZ,113,1,1216,Correct,9,949
9,SRVRV,221,1,878,Correct,9,712
9,YCYCY,113,1,1298,Correct,9,870
9,KMKZK,174,2,1259,Correct,9,705
9,FZSVF,233,2,1256,Correct,9,733
9,VYVYV,113,1,739,Correct,9,687
9,LVLVL,152,1,1280,Correct,9,762
9,YFYFY,153,1,692,Correct,9,834
9,NXNSN,102,[2][3],[754][1394],Correct,9,828
9,FNFCF,14,2,1022,Correct,9,849
9,KVKVK,151,1,656,Correct,9,804
9,VZVCV,161,2,748,Correct,9,893
9,ZYZMZ,185,2,762,Correct,9,764
9,VXVZV,16,2,668,Correct,9,653
9,VPVPV,151,1,700,Correct,9,756
9,RVRNS,235,2,763,Correct,9,754
9,YZYZY,113,1,1044,Correct,9,821
9,ZSZSZ,11,[1][3],[795][987],Correct,9,826
9,FRFRF,13,1,686,Correct,9,801
9,ZMZMZ,196,1,682,Correct,9,850
9,NZNXN,16,2,683,Correct,9,702
9,LSLFL,121,[1][3],[1029][1157],Incorrect,9,750
10,Q,5,3,1480,New Target,10,723
10,ZVZPZ,161,2,1010,Correct,10,847
10,RZRZR,151,1,664,Correct,10,699
10,ZFZFZ,152,1,659,Correct,10,857
10,RZRZR,153,1,977,Correct,10,781
10,PZPXP,161,2,689,Correct,10,891
10,VFQPV,233,2,656,Correct,10,794
10,ZPZRZ,222,2,721,Correct,10,707
10,CYCVC,162,2,717,Correct,10,782
10,CPCPC,151,1,922,Correct,10,779
10,YZYQY,72,[2][3],[794][953],Correct,10,894
10,FVFXF,14,2,698,Correct,10,863
10,YNYNQ,225,1,710,Correct,10,787
10,ZYZYZ,113,1,716,Correct,10,838
10,FRFSF,181,2,1221,Incorrect,10,772
10,XNXPX,16,2,1038,Correct,10,744
10,NXNXN,151,1,732,Correct,10,714
10,PVPZP,161,2,1288,Correct,10,662
10,XVXPX,162,2,933,Correct,10,904
10,FXFVF,163,2,685,Correct,10,654
10,NSNKN,172,2,646,Incorrect,10,732
10,VXVNV,16,2,654,Correct,10,898
10,XZXZX,151,1,757,Correct,10,775
10,VQVQV,8,[1][3],[841][984],Correct,10,904
10,ZYZPZ,14,2,1042,Correct,10,716
10,PZPSP,183,2,796,Correct,10,825
10,YVYVY,15,1,1004,Correct,10,941
10,NCNQN,92,[2][3],[998][1174],Correct,10,825
10,FCFVF,14,2,954,Correct,10,724
10,ZFZFZ,151,1,725,Correct,10,880
10,NSNSN,194,1,778,Correct,10,876
10,YPYFY,16,2,796,Correct,10,832
10,ZKZKZ,151,1,688,Correct,10,865
10,QZRCR,231,2,991,Correct,10,682
10,YPYVY,222,2,721,Correct,10,664
10,ZNZNZ,151,1,1135,Correct,10,679
10,VQVQV,10,[1][3],[905][1051],Correct,10,730
10,RVRZR,14,2,765,Correct,10,711
10,KRKSK,185,2,648,Correct,10,733
10,NPNPN,15,1,648,Correct,10,708
10,YPYPY,152,1,947,Correct,10,815
10,VCVYV,161,2,670,Correct,10,814
10,FPFNF,162,2,822,Correct,10,781
10,QVXVX,221,1,861,Correct,10,707
10,ZVZRZ,222,2,916,Correct,10,722
10,LFLFL,151,1,664,Correct,10,755
10,VLVLV,152,1,593,Correct,10,828
10,KXQXK,223,1,989,Correct,10,851
10,YQYQY,11,[1][3],[907][1098],Correct,10,926
10,YCYCY,13,1,692,Correct,10,887
10,PZPYP,161,2,747,Correct,10,797
10,LPLFL,162,2,787,Correct,10,767
10,VSVSV,196,1,674,Correct,10,928
10,VFVYQ,235,2,925,Correct,10,714
10,CZCXC,222,2,864,Correct,10,787
10,PVPCP,162,2,1265,Correct,10,844
10,CXCXC,151,1,1303,Correct,10,733
10,NZNZN,152,1,1181,Correct,10,677
10,YPYCY,161,2,723,Correct,10,794
10,ZQZQZ,12,[1][3],[717][891],Correct,10,749
11,T,5,3,1194,New Target,11,650
11,KFKFK,151,1,873,Correct,11,773
11,LZLZL,152,1,772,Correct,11,940
11,PFPVP,161,2,662,Correct,11,894
11,FRFPF,162,2,1084,Correct,11,890
11,FZFZF,151,1,754,Correct,11,944
11,VTVTV,7,[1][3],[1040][1153],Correct,11,660
11,KYKCK,14,2,720,Correct,11,727
11,VPVPV,151,1,601,Correct,11,845
11,XQXQX,191,2,817,Incorrect,11,933
11,PZPYP,16,2,763,Correct,11,651
11,KXKLK,162,2,815,Correct,11,765
11,TCNCN,221,1,1022,Correct,11,947
11,PZPNP,222,2,1049,Correct,11,837
11,RCRPR,162,2,1534,Correct,11,907
11,PZPRT,235,2,1154,Correct,11,921
11,XFXVX,222,2,685,Correct,11,768
11,LTLVL,81,[1][3],[852][1221],Incorrect,11,831
11,ZCZPZ,14,2,1122,Correct,11,789
11,NCNQN,182,2,679,Correct,11,860
11,XZXNX,16,2,688,Correct,11,828
11,ZPZPZ,151,1,774,Correct,11,866
11,CFCFC,152,1,811,Correct,11,842
11,VXTRV,233,2,684,Correct,11,925
11,CFCVC,222,2,873,Correct,11,678
11,PYPYP,151,1,831,Correct,11,657
11,FQFYF,173,2,840,Correct,11,667
11,CNCFC,16,2,1077,Correct,11,909
11,PTPTP,9,[1][3],[803][916],Correct,11,781
11,ZCZCZ,13,1,691,Correct,11,942
11,KZKZK,152,1,702,Correct,11,663
11,RLRVR,161,2,664,Correct,11,680
11,ZRZKZ,162,2,677,Correct,11,665
11,KLKLT,225,1,848,Correct,11,872
11,ZQZQZ,194,1,965,Correct,11,650
11,VZVZV,15,1,1190,Correct,11,717
11,RVRZR,161,2,827,Correct,11,911
11,ZPZCZ,162,2,663,Correct,11,897
11,VYVYV,151,1,798,Correct,11,943
11,RVRVR,152,1,1112,Correct,11,681
11,PTPTP,10,[1][3],[902][1045],Correct,11,749
11,PXPXP,13,1,789,Correct,11,910
11,KCKCK,152,1,647,Correct,11,768
11,YVYVY,153,1,563,Correct,11,834
11,CYCYC,154,1,897,Correct,11,753
11,XCXCX,155,1,644,Correct,11,787
11,CYCQC,185,2,986,Correct,11,887
11,KCKNK,16,2,717,Correct,11,709
11,VPVPV,151,1,742,Correct,11,861
11,TXFZF,231,2,1025,Correct,11,656
11,NYNVN,222,2,664,Correct,11,870
11,VQVXV,176,2,564,Correct,11,754
11,ZRZRZ,15,1,698,Correct,11,947
11,VTVZV,111,[2][3],[1354][1482],Correct,11,896
11,PXPVP,14,2,855,Correct,11,678
11,FVFVF,151,1,855,Correct,11,896
11,VRVLV,161,2,741,Correct,11,934
11,YCYCY,151,1,657,Correct,11,656
11,XZTZX,223,1,688,Correct,11,742
11,VTVTV,12,[1][3],[944][1105],Correct,11,650
12,O,5,3,1014,New Target,12,876
12,VXVLV,161,2,857,Correct,12,810
12,KVKCK,162,2,616,Correct,12,801
12,VLVLV,151,2,802,Incorrect,12,894
12,ZCZVZ,161,2,694,Correct,12,880
12,KFKFK,151,1,622,Correct,12,887
12,XKXKX,152,1,693,Correct,12,836
12,YXYXY,153,1,713,Correct,12,922
12,FVFVF,154,1,868,Correct,12,776
12,PVPOP,72,[2][3],[974][1150],Correct,12,853
12,ZXZYZ,14,2,723,Correct,12,766
12,PXPVP,162,2,647,Correct,12,880
12,ZTZTZ,191,1,1294,Correct,12,880
12,CVCKC,16,2,930,Correct,12,807
12,CKCKC,151,1,869,Correct,12,740
12,NPNPN,152,1,684,Correct,12,747
12,ZRZNZ,161,2,630,Correct,12,702
12,OZCZC,221,1,865,Correct,12,816
12,LFLFL,113,1,867,Correct,12,745
12,CXCXC,152,1,986,Correct,12,693
12,KPKPK,153,1,1115,Correct,12,764
12,FRFKF,161,2,732,Correct,12,935
12,FOFOF,8,[2][3],[833][1280],Incorrect,12,934
12,ZFZFZ,13,1,1035,Correct,12,763
12,LKLZO,235,2,917,Correct,12,860
12,KLKZK,222,2,755,Correct,12,857
12,YXYCY,162,2,1095,Correct,12,850
12,LOLOL,9,[1][3],[928][1150],Correct,12,934
12,XLXLX,13,1,751,Correct,12,829
12,XVXVX,152,1,655,Correct,12,921
12,FTFTF,192,1,542,Correct,12,682
12,OXNZN,231,2,925,Correct,12,773
12,CZCZC,113,1,759,Correct,12,933
12,LZLZL,152,1,614,Correct,12,913
12,VLVPV,161,2,645,Correct,12,727
12,VYVYO,225,1,1026,Correct,12,696
12,XKXKX,113,1,1182,Correct,12,745
12,RTRTR,193,1,834,Correct,12,888
12,KVKCK,16,2,950,Correct,12,767
12,ROROR,101,[1][3],[1084][1307],Correct,12,784
12,PRPRP,13,1,877,Correct,12,902
12,LYLVL,161,2,814,Correct,12,779
12,PLPLP,151,1,642,Correct,12,822
12,CTCTC,194,1,736,Correct,12,744
12,XZXYX,16,2,728,Correct,12,724
12,NKNKN,151,1,714,Correct,12,945
12,VLVZV,161,2,1087,Correct,12,808
12,YOYOY,11,[1][3],[1055][1295],Correct,12,690
12,PZOZP,223,1,1031,Correct,12,852
12,FYFYF,113,1,692,Correct,12,727
12,ZXZVZ,161,2,690,Correct,12,664
12,VKVZV,162,2,693,Correct,12,885
12,ZTZTZ,195,1,970,Correct,12,921
12,LKLZL,16,2,812,Correct,12,745
12,KCKVK,162,2,622,Correct,12,865
12,PXPKP,163,2,793,Correct,12,873
12,KCOZK,233,2,906,Correct,12,826
12,FKFKF,113,1,659,Correct,12,656
12,CTCRC,176,2,761,Correct,12,807
12,NXNXN,15,1,846,Correct,12,940
12,KXKVK,161,2,973,Correct,12,926
12,CPCOC,122,[2][3],[1011][1252],Correct,12,902
13,H,5,3,1091,New Target,13,705
13,VFVNV,151,2,1099,Incorrect,13,753
13,YVYVY,152,1,1095,Correct,13,757
13,XVXVX,153,1,705,Correct,13,764
13,NRNXN,161,2,643,Correct,13,923
13,PZPKP,162,2,542,Correct,13,795
13,HLVLV,221,1,1162,Correct,13,884
13,CXCZC,222,2,608,Correct,13,780
13,LHLYL,71,[2][3],[1240][1433],Correct,13,819
13,YKYFY,14,2,733,Correct,13,898
13,YOYRY,171,2,991,Correct,13,911
13,ZKZYZ,16,2,910,Correct,13,770
13,RZRZR,151,1,736,Correct,13,853
13,NFNYN,161,2,1062,Correct,13,718
13,KVKFK,162,2,705,Correct,13,767
13,XFXYX,163,2,557,Correct,13,762
13,LKLVL,164,2,717,Correct,13,781
13,NLNLN,151,1,739,Correct,13,846
13,XCXOX,182,2,776,Correct,13,861
13,FXFXF,15,1,861,Correct,13,816
13,VHVHV,8,[1][3],[937][1112],Correct,13,694
13,PVPVP,13,1,787,Correct,13,814
13,CRCXC,161,2,617,Correct,13,759
13,NXNXN,151,1,725,Correct,13,730
13,XRXRX,152,1,690,Correct,13,707
13,YFYXY,161,2,689,Correct,13,670
13,ZOZOZ,193,1,936,Correct,13,796
13,RZRZR,15,1,1063,Correct,13,771
13,FKFKF,152,1,671,Correct,13,905
13,PFPFP,153,1,795,Correct,13,711
13,XYXHX,92,[2][3],[847][1361],Correct,13,720
13,RZRKR,14,2,695,Correct,13,942
13,FLFLH,225,1,1057,Correct,13,841
13,KRKRK,113,1,857,Correct,13,781
13,ZVZNZ,161,2,759,Correct,13,904
13,ZOZOZ,194,1,933,Correct,13,658
13,FZFZF,15,1,751,Correct,13,946
13,FHFKF,101,[2][3],[911][1198],Correct,13,830
13,ZXHLZ,233,2,983,Correct,13,764
13,FKFXF,222,2,771,Correct,13,909
13,CFCYC,162,2,694,Correct,13,829
13,ZXZVZ,163,2,777,Correct,13,950
13,KCKOK,185,2,777,Correct,13,895
13,ZXZVH,235,2,684,Correct,13,872
13,CKCKC,113,1,794,Correct,13,692
13,ZXZCZ,161,2,749,Correct,13,909
13,YVYVY,151,1,698,Correct,13,678
13,RVHVR,223,1,981,Correct,13,756
13,ZRZRZ,113,1,579,Correct,13,720
13,ZHZHZ,11,[1][3],[942][1149],Correct,13,818
13,VZVZV,13,1,804,Correct,13,825
13,HZVRV,231,2,1021,Correct,13,672
13,FVFVF,113,1,983,Correct,13,856
13,RNRCR,161,2,1209,Correct,13,752
13,COCOC,196,1,864,Correct,13,661
13,VNVXV,16,2,886,Correct,13,707
13,XHXHX,12,[1][3],[793][1000],Correct,13,941
14,G,5,3,1294,New Target,14,671
14,FZFZF,151,1,922,Correct,14,883
14,RPRVR,161,2,681,Correct,14,865
14,XCXCX,151,1,749,Correct,14,927
14,YXYXY,152,2,641,Incorrect,14,856
14,KZKZK,153,1,730,Correct,14,879
14,RYRKR,161,2,784,Correct,14,819
14,FYFNF,162,2,730,Correct,14,658
14,VKVKV,151,1,660,Correct,14,754
14,KPGPK,223,1,864,Correct,14,673
14,YNYNY,113,1,756,Correct,14,711
14,VYVYV,152,1,711,Correct,14,926
14,YCYXY,161,2,650,Correct,14,929
14,LKLGL,72,[2][3],[1020][1229],Correct,14,944
14,VXVXV,13,1,754,Correct,14,721
14,KCKVK,161,2,1090,Correct,14,908
14,YKYKY,151,1,896,Correct,14,732
14,RHRXR,171,2,1310,Correct,14,937
14,FVFCF,16,2,1187,Correct,14,705
14,YXYGY,82,[2][3],[812][1051],Correct,14,650
14,CLCLC,13,1,835,Correct,14,724
14,ZXZCZ,161,2,1218,Correct,14,910
14,VLVFV,162,2,874,Correct,14,695
14,CPCPG,225,1,880,Correct,14,681
14,KHKNK,172,2,658,Correct,14,730
14,ZKZVZ,16,2,512,Correct,14,730
14,YKYLY,162,2,638,Correct,14,945
14,CNCNC,151,1,1044,Correct,14,909
14,PGPGP,9,[1][3],[1226][1483],Correct,14,861
14,VPVPV,13,1,724,Correct,14,688
14,FXGRF,233,2,971,Correct,14,818
14,CYCVC,222,2,966,Correct,14,872
14,FNFNF,151,1,766,Correct,14,938
14,KFKCK,161,2,806,Correct,14,837
14,ZFZHZ,183,2,744,Correct,14,925
14,NXNXN,15,1,713,Correct,14,938
14,FNFNF,152,1,1092,Correct,14,737
14,LXLNG,235,2,1087,Correct,14,698
14,XKXVX,222,2,569,Correct,14,875
14,ZHZHZ,194,1,1075,Correct,14,815
14,PFPFP,15,1,732,Correct,14,921
14,ZYZYZ,152,1,1285,Correct,14,678
14,XPXVX,161,2,707,Correct,14,887
14,YCYCY,151,1,767,Correct,14,787
14,RGRGR,10,[1][3],[1138][1443],Correct,14,803
14,VRVRV,13,1,926,Correct,14,688
14,PKPNP,161,2,1183,Correct,14,781
14,XGXGX,11,[1][3],[1066][1258],Correct,14,803
14,GZYVY,231,2,895,Correct,14,890
14,VCVNV,222,2,733,Correct,14,772
14,VHVHV,195,1,903,Correct,14,692
14,LXLNL,16,2,598,Correct,14,847
14,GKPKP,221,1,708,Correct,14,713
14,XRXPX,222,2,829,Correct,14,743
14,XNXNX,151,1,912,Correct,14,793
14,KHKNK,176,2,879,Incorrect,14,838
14,RZRZR,15,1,1064,Correct,14,695
14,CGCFC,121,[2][3],[1332][1588],Correct,14,816
15,A,5,3,1380,New Target,15,854
15,XRXFX,161,2,850,Correct,15,894
15,RXRKR,162,2,719,Correct,15,890
15,YRYRY,151,1,646,Correct,15,810
15,XPXPX,152,1,760,Correct,15,923
15,RPRPR,153,1,1038,Correct,15,799
15,NCNCN,154,1,630,Correct,15,879
15,RXRZR,161,2,1007,Correct,15,847
15,NANAN,7,[1][3],[903][1352],Correct,15,916
15,KCKYK,14,2,1057,Correct,15,790
15,XKXFX,162,2,1454,Correct,15,685
15,ZLZKZ,163,2,1081,Correct,15,945
15,VCVZV,164,2,719,Correct,15,864
15,XCXVX,165,2,584,Correct,15,764
15,LKLZA,235,2,697,Correct,15,687
15,NCNCN,113,1,925,Correct,15,845
15,YGYGY,191,1,1231,Correct,15,788
15,VLVLV,15,1,674,Correct,15,786
15,XRXRX,152,1,761,Correct,15,886
15,KAKPK,81,[2][3],[710][950],Correct,15,701
15,YZAZY,233,2,1024,Correct,15,694
15,CFCFC,113,1,720,Correct,15,769
15,VNVLV,161,2,722,Correct,15,904
15,KPKVK,162,2,1085,Correct,15,677
15,NCNRN,163,2,901,Correct,15,792
15,FGFGF,192,2,836,Incorrect,15,874
15,RCRYR,16,,,Incorrect,15,932
15,KRKCK,162,2,971,Correct,15,666
15,CRCRC,151,1,587,Correct,15,800
15,XPAPX,223,1,1034,Correct,15,667
15,LPLXL,222,2,881,Correct,15,912
15,CGCVC,173,2,674,Correct,15,858
15,FKFZF,16,2,586,Correct,15,858
15,CACAC,9,[1][3],[914][1153],Correct,15,868
15,XCXCX,13,2,607,Incorrect,15,925
15,AXRXR,221,2,861,Incorrect,15,694
15,NKNRN,222,2,1038,Correct,15,835
15,KNKFK,162,2,719,Correct,15,657
15,KAKAK,10,[1][3],[849][1057],Correct,15,939
15,ZCZRZ,14,2,658,Correct,15,852
15,RPRPR,151,1,987,Correct,15,881
15,NCNCN,152,1,1126,Correct,15,824
15,RYRGR,184,2,1228,Correct,15,855
15,VPVPV,15,1,855,Correct,15,714
15,RCRCA,225,1,1165,Correct,15,666
15,KXKPK,222,2,1455,Correct,15,898
15,NPNPN,151,1,668,Correct,15,741
15,YCYCY,152,1,1111,Correct,15,795
15,PXPAP,112,[1],[1206],Incorrect,15,768
15,ZCZNZ,14,2,1296,Correct,15,831
15,KYKGK,185,,,Incorrect,15,754
15,ANLPL,231,2,1150,Correct,15,675
15,CXCPC,222,2,628,Correct,15,875
15,YRYRY,151,1,686,Correct,15,901
15,LGLGL,196,1,929,Correct,15,949
15,VYVLV,16,2,684,Correct,15,916
15,KVKVK,151,1,933,Correct,15,714
15,RKRKR,152,1,938,Correct,15,712
15,VXVXV,153,1,716,Correct,15,792
15,XAXAX,12,[1][3],[828][1036],Correct,15,762
