Trial No,Stimulus,Trigger,Response,Response Time(ms),Correct,Block,Fixation Duration
Practice
OT Practice
1,SKSKS,15,1,1370,Correct,0,807
1,DLDUD,16,2,773,Correct,0,911
1,PDPGP,16,2,922,Correct,0,898
1,MWMWM,15,1,856,Correct,0,843
1,FTFTF,15,1,686,Correct,0,732
1,AXAMA,16,2,774,Correct,0,904
1,RYRGR,16,2,849,Correct,0,706
1,DODOD,15,1,689,Correct,0,843
1,QTQAQ,16,2,749,Correct,0,787
1,YEYEY,15,1,696,Correct,0,695
2,GYGDG,16,2,621,Correct,0,700
2,SWSWS,15,1,518,Correct,0,888
2,HLHUH,16,2,650,Correct,0,714
2,DEDED,15,1,512,Correct,0,890
2,ZPZOZ,16,2,607,Correct,0,858
2,ATATA,15,1,480,Correct,0,703
2,QOQOQ,15,1,492,Correct,0,926
2,FPFGF,16,2,587,Correct,0,864
2,TRTET,16,2,696,Correct,0,846
2,DQDQD,15,1,979,Correct,0,735
4,PLPLP,15,1,650,Correct,0,843
4,ATAIA,16,2,608,Correct,0,916
4,SKSGS,16,2,672,Correct,0,764
4,ZYZYZ,15,1,764,Correct,0,747
4,QSQSQ,15,1,549,Correct,0,787
4,TZTDT,16,2,642,Correct,0,817
4,JYJGJ,16,2,596,Correct,0,717
4,DYDYD,15,1,479,Correct,0,820
4,LTLCL,16,2,547,Correct,0,731
4,FQFEF,16,2,598,Correct,0,671
DT Practice
1,TKTKT,15,,,False,0,747
1,SLSUS,16,,,False,0,803
1,VZVGV,7,[2][3],[1258][1514],Correct,0,901
1,XWXZX,7,[2][3],[936][1240],Correct,0,714
1,ATATA,15,2,1061,False,0,656
1,HXZMH,16,,,False,0,652
1,TZTZT,7,[1][3],[859][1051],Correct,0,840
1,UOUOU,15,1,1071,Correct,0,897
1,ZTWAW,16,2,709,Correct,0,935
1,RZRER,7,[2][3],[993][1201],Correct,0,712
2,JYJDJ,16,2,1137,Correct,0,878
2,DWDWD,15,1,607,Correct,0,665
2,GNGNG,7,[1][3],[1070][1262],Correct,0,739
2,NEZEZ,16,2,1195,False,0,763
2,RNROR,7,[2][3],[1227][1371],Correct,0,739
2,QTQNQ,7,[2][3],[858][1034],Correct,0,774
2,HOHON,15,1,668,Correct,0,655
2,KPKGK,16,1,916,False,0,843
2,DRDED,16,2,1365,Correct,0,791
2,LNLNL,7,[1][3],[791][998],Correct,0,783
4,GLGLG,15,1,1128,Correct,0,800
4,DTDID,16,2,899,Correct,0,716
4,SMSGS,16,2,1113,Correct,0,701
4,ZFZYZ,7,[2][3],[931][1123],Correct,0,845
4,TSTFT,7,[2][3],[794][1018],Correct,0,801
4,OFOFO,7,[1][3],[809][1001],Correct,0,666
4,WYFGW,16,2,1126,Correct,0,809
4,WYWYW,15,1,1051,Correct,0,907
4,MFMCM,7,[2][3],[803][947],Correct,0,915
4,HQHEH,16,2,1195,Correct,0,691
Trials
1,D,5,3,18373,New Target,1,805
1,ZNZYZ,161,2,757,Correct,1,852
1,FZFZF,151,1,598,Correct,1,662
1,RKRKR,152,1,764,Correct,1,695
1,RXRNR,161,2,715,Correct,1,705
1,CNCFC,162,2,788,Correct,1,900
1,PDPDP,7,[1][3],[1063][1255],Correct,1,928
1,CPCFC,14,2,1222,Correct,1,937
1,VLVNV,162,2,787,Correct,1,710
1,KFKFK,151,1,826,Correct,1,911
1,ZNZNZ,152,1,723,Correct,1,830
1,KCKPD,235,2,731,Correct,1,906
1,ZKZFZ,222,2,854,Correct,1,809
1,NRNZN,162,2,912,Correct,1,710
1,KXKRK,163,2,673,Correct,1,940
1,YPYZY,164,2,748,Correct,1,943
1,FKDKF,223,1,866,Correct,1,898
1,RPRPR,113,1,692,Correct,1,895
1,VRVKV,161,2,882,Correct,1,825
1,RFRPR,162,2,839,Correct,1,844
1,KVKVK,151,1,674,Correct,1,684
1,YKYVY,161,2,915,Correct,1,779
1,VDVDV,8,[1][3],[677][853],Correct,1,786
1,DVZVZ,221,1,923,Correct,1,766
1,YFYFY,113,1,597,Correct,1,703
1,ZYZYZ,152,1,729,Correct,1,748
1,VLVXV,161,2,723,Correct,1,832
1,DPXZX,231,2,732,Correct,1,851
1,RYRYR,113,1,869,Correct,1,852
1,PDPNP,91,[2][3],[807][935],Correct,1,809
1,KXKXK,13,1,732,Correct,1,744
1,ZYZYZ,152,1,659,Correct,1,911
1,VKVKV,153,1,691,Correct,1,790
1,YZYZY,154,1,675,Correct,1,761
1,NLNZN,161,2,799,Correct,1,862
1,ZNDYZ,233,2,775,Correct,1,889
1,PCPXP,222,2,621,Correct,1,870
1,ZVZFZ,162,2,587,Correct,1,832
1,RCRZR,163,2,535,Correct,1,902
1,LRLRL,151,1,795,Correct,1,792
1,ZDZDZ,10,[1][3],[812][972],Correct,1,826
1,RNRZR,14,2,830,Correct,1,946
1,CXCYC,162,2,999,Correct,1,806
1,RCRLR,163,2,685,Correct,1,707
1,FRFRF,151,1,634,Correct,1,815
1,XFXFX,152,1,635,Correct,1,751
1,RPRLR,161,2,653,Correct,1,758
1,YXYRY,162,2,688,Correct,1,677
1,FYFYF,151,1,532,Correct,1,654
1,YZYVY,161,2,565,Correct,1,888
1,YKYKY,151,1,482,Correct,1,940
1,XRXRX,152,1,578,Correct,1,935
1,XVXZX,161,2,607,Correct,1,876
1,PDPDP,11,[1][3],[699][859],Correct,1,906
1,ZFZFZ,13,1,688,Correct,1,748
1,PXPXP,152,1,769,Correct,1,718
1,LYLYL,153,1,543,Correct,1,696
1,NKNKD,225,1,786,Correct,1,795
1,ZNZNZ,113,1,591,Correct,1,713
1,PYPZP,161,2,700,Correct,1,903
1,XPXPX,151,1,663,Correct,1,873
1,VLVLV,152,1,529,Correct,1,932
1,PKPXP,161,1,513,Incorrect,1,888
1,FZFZF,151,1,646,Correct,1,830
1,LDLDL,12,[1][3],[855][1014],Correct,1,684
2,U,5,3,16788,New Target,2,913
2,ZVZFZ,161,2,900,Correct,2,715
2,FZFZF,151,1,631,Correct,2,830
2,RFRFR,152,1,720,Correct,2,932
2,NZNKN,161,2,683,Correct,2,807
2,FZFNF,162,2,712,Correct,2,811
2,RXRXR,151,1,582,Correct,2,757
2,KRKYK,161,2,646,Correct,2,823
2,NZNPN,162,2,499,Correct,2,925
2,XPXPX,151,1,599,Correct,2,837
2,CUCUC,7,[1][3],[809][969],Correct,2,893
2,RFRFR,13,1,745,Correct,2,949
2,VYVXV,161,2,727,Correct,2,754
2,VDVDV,191,1,553,Correct,2,691
2,ZKZRZ,15,2,795,Correct,2,829
2,XCXCX,151,1,608,Correct,2,942
2,CNCUC,82,[2][3],[1029][1189],Correct,2,950
2,RCRCR,13,1,630,Correct,2,687
2,ZPZXZ,161,2,648,Correct,2,743
2,FKFYF,162,2,691,Correct,2,901
2,ZFZYZ,163,2,560,Correct,2,796
2,PXPXP,151,1,615,Correct,2,709
2,URCKC,231,2,602,Correct,2,761
2,PCPCP,113,1,624,Correct,2,670
2,XNXNX,152,1,727,Correct,2,667
2,RCRZR,161,2,591,Correct,2,882
2,XVXVX,151,2,572,Incorrect,2,902
2,NRNRN,152,1,669,Correct,2,792
2,FPFPF,225,1,597,Correct,2,934
2,XVXFX,222,2,642,Correct,2,865
2,PRPRP,151,2,819,Incorrect,2,824
2,FYFCF,161,2,992,Correct,2,681
2,XUXFX,91,[2],[755],Incorrect,2,939
2,CYCVC,14,2,1506,Correct,2,749
2,VDVKV,172,2,1024,Correct,2,800
2,YCYCY,15,1,703,Correct,2,898
2,NKNLN,161,2,975,Correct,2,683
2,XPUKX,233,2,1395,Correct,2,766
2,ZPZPZ,113,1,692,Correct,2,860
2,KRKRK,152,1,702,Correct,2,869
2,XKXKX,153,1,1003,Correct,2,780
2,YUYVY,101,[2][3],[868][1012],Correct,2,773
2,XKXFU,235,2,1355,Correct,2,729
2,NFNFN,113,1,797,Correct,2,821
2,KDKDK,193,1,856,Correct,2,736
2,XYXKX,16,2,914,Correct,2,707
2,YZUZY,223,1,851,Correct,2,925
2,KFKVK,222,2,749,Correct,2,771
2,LYLYL,151,1,777,Correct,2,760
2,CXCDC,184,2,659,Incorrect,2,803
2,XZXNX,16,2,805,Correct,2,696
2,PXPXP,151,1,609,Correct,2,694
2,ZRZYZ,161,2,732,Correct,2,912
2,PUPYP,111,[2][3],[886][1014],Correct,2,897
2,RNRNR,14,1,768,Correct,2,733
2,KDKDK,195,1,700,Correct,2,763
2,KNKNK,15,1,683,Correct,2,752
2,PRPKP,161,2,654,Correct,2,661
2,UNYNY,221,1,994,Correct,2,714
2,NYNYN,113,1,885,Correct,2,776
2,YXYXY,152,1,652,Incorrect,2,744
2,RDRDR,196,1,753,Correct,2,687
2,FCFCF,15,1,617,Correct,2,823
2,ZKZKZ,152,1,724,Correct,2,900
2,ZUZUZ,12,[1][3],[856][1048],Correct,2,857
3,E,5,3,10721,New Target,3,795
3,YZYZY,151,1,744,Correct,3,684
3,VFVNV,161,2,726,Correct,3,757
3,KYKYK,151,1,713,Correct,3,690
3,NKNKN,152,1,615,Correct,3,807
3,XVXNX,161,2,661,Correct,3,845
3,RERFR,71,[2][3],[1130][1274],Correct,3,768
3,XNXNX,13,1,580,Correct,3,867
3,NXNXN,152,1,784,Correct,3,915
3,ZLZNZ,161,2,659,Correct,3,945
3,CUCNC,171,2,789,Correct,3,703
3,FYFRF,16,2,655,Correct,3,784
3,ZLZLZ,151,1,747,Correct,3,930
3,YZYZY,152,1,629,Correct,3,851
3,CYCYC,153,1,819,Correct,3,922
3,VUVUV,192,1,584,Correct,3,910
3,PXPRP,16,2,634,Correct,3,806
3,YPYPY,151,1,521,Correct,3,828
3,CECEC,8,[1][3],[690][882],Correct,3,692
3,VNENV,223,2,846,Incorrect,3,926
3,KRKFK,222,2,885,Correct,3,854
3,XLXLE,225,1,811,Correct,3,789
3,RFRUR,183,2,825,Correct,3,672
3,XRXLX,16,2,799,Correct,3,886
3,NZNPN,162,2,680,Correct,3,800
3,XZXZX,151,1,679,Correct,3,808
3,FZFZF,152,1,642,Correct,3,862
3,PFPFP,153,1,1024,Correct,3,885
3,YZYXY,161,2,709,Correct,3,698
3,KEKEK,9,[1][3],[783][927],Correct,3,739
3,CXCPC,14,2,881,Correct,3,889
3,VXVXV,151,1,694,Correct,3,798
3,NUNZN,174,2,679,Correct,3,702
3,RKRVR,16,2,682,Correct,3,678
3,XRXRX,151,1,756,Correct,3,926
3,ERNFN,231,2,1132,Incorrect,3,898
3,YRYNY,222,2,649,Correct,3,771
3,PZPEP,102,[2][3],[765][925],Correct,3,715
3,ZYZXZ,14,2,669,Correct,3,694
3,RZRVR,162,2,682,Correct,3,828
3,XRXRX,151,1,613,Correct,3,894
3,KUKFK,175,2,965,Correct,3,861
3,RKRKR,15,1,696,Correct,3,848
3,ZFZFZ,152,1,709,Correct,3,807
3,YZYVY,161,2,537,Correct,3,691
3,XPXNX,162,2,605,Correct,3,732
3,YRYRY,151,1,667,Correct,3,900
3,EPVPV,221,1,830,Correct,3,672
3,CRCEC,112,[2][3],[630][774],Correct,3,948
3,RFRCR,14,2,646,Correct,3,747
3,CPCVC,162,2,788,Correct,3,884
3,RXRCR,163,2,970,Correct,3,901
3,VNVLV,164,2,831,Correct,3,766
3,ZXZXZ,151,1,858,Correct,3,672
3,ZCZCZ,152,1,679,Correct,3,683
3,PYPUP,186,2,643,Correct,3,840
3,YKYPY,16,2,628,Correct,3,798
3,YREXY,233,2,1208,Correct,3,797
3,ZKZKZ,113,1,848,Correct,3,819
3,XLXNX,161,2,671,Correct,3,655
3,KFKRE,235,2,815,Correct,3,778
3,RXRLR,222,2,600,Correct,3,727
3,RERXR,121,[2][3],[1209][1513],Correct,3,771
4,J,5,3,9801,New Target,4,869
4,CYCVC,161,2,840,Correct,4,734
4,RXRCR,162,2,683,Correct,4,942
4,FPFVF,163,2,643,Correct,4,943
4,LZLZL,151,1,494,Correct,4,919
4,PLPLP,152,1,592,Correct,4,917
4,NPNPN,153,1,526,Correct,4,915
4,XZXZX,161,1,527,Incorrect,4,901
4,CNCKC,162,2,693,Correct,4,717
4,PCPYJ,235,2,1104,Correct,4,849
4,VYVYV,113,1,607,Correct,4,805
4,RLRLR,152,1,576,Correct,4,791
4,CJCJC,7,[1][3],[656][928],Correct,4,892
4,ZLZLZ,13,1,633,Correct,4,889
4,FZFZF,152,1,685,Correct,4,659
4,CFCFC,153,1,565,Correct,4,920
4,PZPZP,154,1,813,Correct,4,718
4,XEXEX,191,1,1127,Correct,4,759
4,NVNFN,16,2,722,Correct,4,869
4,KYKYK,151,1,608,Correct,4,736
4,ZNZVZ,161,2,790,Correct,4,686
4,YVJXY,233,2,1038,Correct,4,816
4,XFXFX,113,1,520,Correct,4,933
4,XNXNX,152,1,730,Correct,4,873
4,FJFKF,81,[2][3],[805][980],Correct,4,719
4,CZCYC,14,2,866,Correct,4,943
4,ZXZCZ,162,2,759,Correct,4,875
4,RYRYJ,225,1,918,Correct,4,730
4,FPFZF,222,2,625,Correct,4,686
4,XRXRX,151,1,725,Correct,4,723
4,YPYEY,182,2,648,Correct,4,651
4,XRXRX,15,1,585,Correct,4,746
4,XZXPX,161,2,581,Correct,4,925
4,CJCJC,9,[1][3],[613][805],Correct,4,683
4,ZXZVZ,14,2,619,Correct,4,903
4,VKVKV,151,1,696,Correct,4,838
4,VEVNV,173,2,722,Correct,4,901
4,ZKZVZ,16,2,668,Correct,4,934
4,XVXJX,102,[2][3],[808][1016],Correct,4,810
4,RXRVR,14,2,788,Correct,4,800
4,LRLRL,151,1,655,Correct,4,672
4,YNJNY,223,1,989,Correct,4,845
4,NPNJN,222,2,955,Correct,4,945
4,ZEZEZ,194,1,1361,Correct,4,714
4,ZNZNZ,15,1,1167,Correct,4,945
4,YZYZY,152,1,636,Correct,4,723
4,XYXYX,153,1,573,Correct,4,749
4,ZXZXZ,221,1,559,Correct,4,816
4,LYLZL,222,2,659,Correct,4,754
4,CYCNC,162,2,785,Correct,4,839
4,XEXEX,195,1,567,Correct,4,921
4,CVCXC,16,2,677,Correct,4,892
4,ZPZXZ,162,2,623,Correct,4,884
4,FZFZF,151,1,629,Correct,4,678
4,RXRJR,112,[2][3],[640][976],Correct,4,880
4,PRPFP,14,2,786,Correct,4,705
4,PKPEP,186,2,642,Correct,4,651
4,XZXPX,16,2,671,Correct,4,831
4,JCZVZ,231,2,655,Correct,4,730
4,RXRLR,222,2,846,Correct,4,833
4,VZVZV,151,1,633,Correct,4,696
4,XJXJX,12,[1][3],[591][863],Correct,4,886
5,I,5,3,11755,New Target,5,730
5,PCPCP,151,1,731,Correct,5,667
5,XYXYX,152,1,627,Correct,5,851
5,VXVXV,153,1,641,Correct,5,864
5,XVXVX,154,1,484,Correct,5,723
5,ZRZXZ,161,2,604,Correct,5,670
5,FPFZF,162,2,739,Correct,5,656
5,ZYZYZ,151,1,692,Correct,5,674
5,RVRZR,161,2,691,Correct,5,772
5,CICIC,7,[1][3],[847][1023],Correct,5,730
5,XLXLX,13,1,946,Correct,5,690
5,YVYVY,152,1,517,Correct,5,821
5,CJCJC,191,1,495,Correct,5,663
5,FNFCF,16,2,769,Correct,5,909
5,PVPRP,162,2,689,Correct,5,725
5,FZFZF,151,1,609,Correct,5,824
5,NVIVN,223,1,1199,Correct,5,769
5,CVCIC,82,[2][3],[658][897],Correct,5,782
5,ZXZXZ,13,1,634,Correct,5,795
5,FCFZF,161,2,646,Correct,5,927
5,IXRXR,221,1,979,Correct,5,863
5,ZPZNZ,222,2,674,Correct,5,946
5,VZVZV,151,1,585,Correct,5,926
5,YRYNY,161,2,753,Correct,5,656
5,VNVPV,162,2,1024,Correct,5,676
5,RVRJR,182,2,1307,Correct,5,934
5,VRVRV,15,1,611,Correct,5,702
5,VIVIV,9,[1][3],[618][842],Correct,5,936
5,CXCVC,14,1,642,Incorrect,5,785
5,PZPZP,151,1,654,Correct,5,941
5,IXVKV,231,2,784,Correct,5,733
5,YJYCY,173,2,670,Incorrect,5,710
5,VYVYV,15,1,545,Correct,5,713
5,YVYVY,152,1,583,Correct,5,695
5,NVNVN,153,1,746,Correct,5,768
5,XYXVX,161,2,802,Correct,5,917
5,NJNCN,174,2,746,Correct,5,801
5,NXNYN,16,2,618,Correct,5,662
5,VXVCV,162,2,528,Correct,5,696
5,ZKZKZ,151,1,903,Correct,5,736
5,XRXYX,161,2,785,Correct,5,707
5,ZCZXZ,162,2,614,Correct,5,934
5,KVKYI,235,2,725,Correct,5,870
5,CNCNC,113,1,726,Correct,5,721
5,RIRIR,10,[1][3],[754][978],Correct,5,861
5,VYVXV,14,2,1226,Correct,5,813
5,FXIRF,233,2,719,Correct,5,931
5,PFPFP,113,1,718,Correct,5,681
5,VPVPV,152,1,698,Correct,5,795
5,ZJZJZ,195,1,883,Correct,5,869
5,ZVZNZ,16,2,596,Correct,5,905
5,YVYXY,162,2,1059,Correct,5,895
5,PRPRP,151,1,711,Correct,5,670
5,YPYPY,152,1,624,Correct,5,887
5,ZIZPZ,111,[2][3],[797][989],Correct,5,833
5,NKNXN,14,2,726,Correct,5,924
5,RZRXR,162,2,785,Correct,5,834
5,RXRXR,151,1,703,Correct,5,662
5,ZJZJZ,196,1,809,Correct,5,860
5,CVCVI,225,1,788,Incorrect,5,788
5,NKNKN,113,1,602,Correct,5,888
5,NRNZN,161,2,585,Correct,5,883
5,CNCNC,151,1,711,Correct,5,849
5,RFRIR,122,[2],[1203],Incorrect,5,775
6,B,5,3,9812,New Target,6,672
6,YKYZY,161,2,659,Correct,6,668
6,VCVRV,162,2,599,Correct,6,656
6,XVXVX,151,1,954,Correct,6,778
6,KZKRK,161,2,754,Correct,6,713
6,ZVZXZ,162,2,593,Correct,6,690
6,RCRNR,163,2,581,Correct,6,745
6,CXCRC,164,2,547,Correct,6,942
6,VNBCV,233,2,1159,Correct,6,800
6,CXCVC,222,2,756,Correct,6,796
6,RFRFR,151,1,845,Correct,6,839
6,XPXRX,161,2,739,Correct,6,842
6,RYRBR,72,[2][3],[681][857],Correct,6,752
6,ZKZKZ,13,1,691,Correct,6,669
6,FIFRF,171,2,558,Correct,6,855
6,VZVLV,16,2,618,Correct,6,938
6,RPRVR,162,2,685,Correct,6,751
6,YBYBY,8,[1][3],[554][890],Correct,6,670
6,PYPVP,14,2,510,Correct,6,839
6,NININ,192,1,609,Correct,6,907
6,RNRNR,15,1,644,Correct,6,708
6,NXNVN,161,2,640,Correct,6,891
6,RNRNR,151,1,578,Correct,6,774
6,FRFVF,161,2,559,Correct,6,937
6,YVYFB,235,2,643,Incorrect,6,719
6,ZRZXZ,222,2,593,Correct,6,844
6,VNVIV,193,2,772,Incorrect,6,744
6,PXPNP,16,2,533,Correct,6,662
6,ZXZPZ,162,2,695,Correct,6,816
6,VBVBV,9,[1][3],[601][745],Correct,6,760
6,CXCXC,13,1,725,Correct,6,940
6,PCPFP,161,2,561,Correct,6,847
6,KNKNK,151,1,499,Correct,6,789
6,XIXIX,194,1,686,Correct,6,692
6,CYCYC,15,1,637,Correct,6,789
6,FVFYF,161,2,641,Correct,6,655
6,YNYRY,162,2,604,Correct,6,905
6,BVPXP,231,2,785,Correct,6,745
6,NXNXN,113,1,695,Correct,6,878
6,FRFRF,152,1,632,Correct,6,655
6,YVYVY,153,1,517,Correct,6,854
6,ZKZCZ,161,2,659,Correct,6,926
6,VIVXV,175,2,752,Correct,6,888
6,PRBRP,223,1,911,Correct,6,696
6,YZYBY,102,[2][3],[640][1040],Correct,6,655
6,CXCVC,14,2,624,Correct,6,792
6,FYFYF,151,1,675,Correct,6,728
6,VKVXV,161,2,779,Correct,6,934
6,ZBZBZ,11,[1][3],[626][882],Correct,6,688
6,FPFNF,14,2,561,Correct,6,670
6,CXCXC,151,1,725,Correct,6,820
6,YCYCY,152,1,572,Correct,6,928
6,FPFPF,153,1,592,Correct,6,769
6,CVCVB,225,1,591,Correct,6,853
6,ZCZCZ,113,1,621,Correct,6,862
6,CZCNC,161,2,688,Correct,6,751
6,KIKFK,176,2,1373,Correct,6,774
6,PXPXP,15,1,1444,Correct,6,747
6,RYRYR,152,1,660,Correct,6,838
6,ZRZCZ,161,2,658,Correct,6,851
6,RVRVR,151,1,615,Correct,6,651
6,XYXNX,161,2,604,Correct,6,705
6,BVKVK,221,1,732,Correct,6,838
6,CBCBC,12,[1][3],[717][893],Correct,6,748
7,W,5,3,9807,New Target,7,713
7,RKRKR,151,1,866,Correct,7,846
7,CVCRC,161,2,587,Correct,7,807
7,PKPKP,151,1,572,Correct,7,807
7,FPFPF,152,1,587,Correct,7,921
7,VRVPV,161,2,727,Correct,7,939
7,ZKZYZ,162,2,629,Correct,7,731
7,PVPCP,233,2,625,Correct,7,932
7,KVKVK,113,1,1104,Correct,7,810
7,YXYVY,161,2,766,Correct,7,855
7,FNFNF,151,1,774,Correct,7,826
7,YWYWY,7,[1][3],[741][917],Correct,7,907
7,ZYZYZ,13,1,706,Correct,7,920
7,PYPYP,152,1,547,Correct,7,722
7,XRXRX,153,1,579,Correct,7,931
7,PXPXP,154,1,594,Correct,7,930
7,FCFBF,181,2,695,Correct,7,759
7,FVFVF,15,1,612,Correct,7,856
7,CYCZC,161,2,716,Correct,7,937
7,XZXVX,162,2,750,Correct,7,662
7,PFPFP,151,1,746,Correct,7,817
7,RVRLR,161,2,616,Correct,7,763
7,ZBZBZ,192,1,600,Correct,7,876
7,VCVNV,16,2,732,Correct,7,747
7,NWNWN,8,[1][3],[678][902],Correct,7,699
7,XNXVX,14,2,680,Correct,7,901
7,CXCNC,162,2,647,Correct,7,787
7,YVYVW,225,1,1261,Correct,7,948
7,VFVFV,113,2,720,Incorrect,7,892
7,VFWFV,223,1,1198,Correct,7,796
7,CVCFC,222,2,990,Correct,7,672
7,YBYBY,193,1,589,Correct,7,938
7,PYPYP,15,1,589,Correct,7,846
7,NKNWN,91,[2][3],[735][911],Correct,7,924
7,VNVNV,13,1,903,Correct,7,924
7,RVRVR,152,1,683,Correct,7,855
7,FVFBF,184,2,643,Incorrect,7,888
7,VZVKV,16,2,717,Correct,7,910
7,VPVCV,162,2,807,Correct,7,841
7,WYZCZ,231,2,1072,Correct,7,812
7,PFPFP,113,1,624,Correct,7,714
7,PRPRP,152,2,523,Incorrect,7,934
7,NWNWN,10,[1][3],[814][1022],Correct,7,840
7,VKVCV,14,2,779,Correct,7,687
7,WPYPY,221,1,666,Correct,7,706
7,VBVBV,195,1,563,Correct,7,852
7,ZKZYZ,16,2,679,Correct,7,820
7,XYXYX,151,1,625,Correct,7,897
7,FZFXF,161,2,624,Correct,7,808
7,XKXKX,151,1,1025,Correct,7,783
7,XPXPX,152,1,693,Correct,7,713
7,FWFWF,11,[1][3],[549][1237],Correct,7,860
7,FNFBF,186,2,639,Correct,7,889
7,ZVZYZ,16,2,754,Correct,7,698
7,FZFZF,151,1,530,Correct,7,676
7,NPNFW,235,2,946,Correct,7,942
7,PCPCP,113,1,517,Correct,7,866
7,NKNWN,122,[2][3],[733][973],Correct,7,870
8,M,5,3,11114,New Target,8,776
8,VYVNV,161,2,918,Correct,8,913
8,KLKNK,162,2,618,Correct,8,748
8,NRNRN,151,1,667,Correct,8,763
8,VNVFV,161,2,1114,Correct,8,822
8,XNXNM,225,1,1109,Correct,8,801
8,CXCVC,222,2,755,Correct,8,844
8,KRKZK,162,2,654,Correct,8,795
8,NMNFN,71,[2][3],[788][964],Correct,8,739
8,ZFZFZ,13,1,681,Correct,8,932
8,YPYCY,161,2,694,Correct,8,769
8,KCKCK,151,1,1213,Correct,8,931
8,VNVNV,152,1,850,Correct,8,913
8,LXLXL,153,2,605,Incorrect,8,710
8,CLCLC,154,1,798,Correct,8,819
8,NYNYN,155,1,747,Correct,8,703
8,LCMYL,233,2,965,Correct,8,793
8,NCNCN,113,1,620,Correct,8,685
8,ZVZRZ,161,2,790,Correct,8,923
8,ZVZVZ,151,1,847,Correct,8,867
8,PZPVP,161,2,1380,Correct,8,867
8,PWPNP,171,2,1483,Correct,8,761
8,KLKCM,235,2,760,Correct,8,876
8,XMXMX,8,[1][3],[566][806],Correct,8,676
8,PRPXP,14,2,1064,Correct,8,834
8,CVCYC,162,2,694,Correct,8,847
8,PXPMP,92,[2][3],[837][1093],Correct,8,720
8,ZCZLZ,14,2,870,Correct,8,675
8,XWXWX,192,1,958,Correct,8,760
8,ZCZLZ,16,2,576,Correct,8,840
8,MNCYC,231,2,1008,Correct,8,876
8,ZXZXZ,113,2,561,Incorrect,8,822
8,YRYNY,161,2,802,Correct,8,812
8,ZLZPZ,162,2,741,Correct,8,919
8,VZVZV,151,1,689,Correct,8,770
8,MXPXP,221,1,998,Correct,8,652
8,VWVWV,193,1,789,Correct,8,895
8,PYPYP,16,1,639,Incorrect,8,810
8,XPXVX,162,2,751,Correct,8,780
8,XLXLX,151,1,687,Correct,8,651
8,YMYMY,10,[1][3],[687][895],Correct,8,867
8,VYVYV,13,1,582,Correct,8,934
8,PWPZP,174,2,853,Correct,8,904
8,PYPKP,16,2,720,Correct,8,689
8,NPNXN,162,2,683,Correct,8,806
8,KVKVK,223,1,617,Correct,8,816
8,NVNFN,222,2,662,Correct,8,883
8,XNXNX,151,1,754,Correct,8,844
8,YZYMY,112,[2][3],[623][911],Correct,8,877
8,PFPFP,13,1,925,Correct,8,760
8,ZWZWZ,195,1,784,Correct,8,798
8,PCPZP,16,2,549,Correct,8,926
8,LRLPL,162,2,906,Correct,8,706
8,CZCZC,151,1,832,Correct,8,801
8,NZNZN,152,1,759,Correct,8,818
8,CVCXC,161,2,661,Correct,8,700
8,XCXCX,151,1,670,Correct,8,934
8,YWYWY,196,1,680,Correct,8,876
8,NLNLN,15,1,643,Correct,8,836
8,VNVNV,152,1,777,Correct,8,685
8,ZMZMZ,12,[1][3],[1001][1225],Correct,8,845
9,S,5,3,5076,New Target,9,724
9,NZNZN,151,1,876,Correct,9,695
9,KVKZK,161,2,707,Correct,9,744
9,LZLZL,151,1,784,Correct,9,738
9,XLXLX,152,1,679,Correct,9,868
9,ZXZXZ,153,1,678,Correct,9,695
9,KNKZK,161,2,683,Correct,9,673
9,NRNYN,162,2,668,Correct,9,711
9,CLCVC,163,2,621,Correct,9,721
9,ZCZFZ,164,2,624,Correct,9,741
9,NSNSN,7,[1][3],[561][1105],Correct,9,929
9,VZVZV,13,1,714,Correct,9,683
9,NVNCN,161,2,602,Correct,9,704
9,VMVMV,191,1,569,Correct,9,858
9,CVCXC,16,2,859,Correct,9,819
9,ZYZRZ,162,2,709,Correct,9,728
9,XNXZX,163,2,576,Correct,9,870
9,PXPXP,151,1,689,Correct,9,855
9,VCVSV,82,[2][3],[763][1035],Correct,9,879
9,PRPCP,14,2,616,Correct,9,660
9,ZMZMZ,192,1,567,Incorrect,9,821
9,ZFZFZ,15,1,703,Correct,9,665
9,FCFCF,152,1,537,Correct,9,798
9,YLYZY,161,2,698,Correct,9,921
9,KNKVK,162,2,1014,Correct,9,877
9,SFPCP,231,2,596,Correct,9,870
9,RPRPR,113,1,626,Correct,9,875
9,XMXMX,193,1,613,Correct,9,752
9,KFKFK,15,1,678,Correct,9,801
9,VSVSV,9,[1][3],[690][898],Correct,9,929
9,YVSVY,223,1,846,Correct,9,789
9,VPVPV,113,1,513,Correct,9,913
9,XZXZX,152,1,523,Correct,9,655
9,KZKXK,161,2,761,Correct,9,882
9,RFRPR,162,2,1026,Correct,9,811
9,NVNVS,225,1,611,Correct,9,845
9,ZXZXZ,113,1,584,Correct,9,693
9,SRVRV,221,2,932,Incorrect,9,898
9,YCYCY,113,1,622,Correct,9,726
9,KMKZK,174,2,638,Correct,9,821
9,FZSVF,233,2,706,Correct,9,697
9,VYVYV,113,1,604,Correct,9,817
9,LVLVL,152,1,563,Correct,9,707
9,YFYFY,153,1,660,Correct,9,752
9,NXNSN,102,[2][3],[694][918],Correct,9,907
9,FNFCF,14,2,696,Correct,9,946
9,KVKVK,151,1,551,Correct,9,717
9,VZVCV,161,2,693,Correct,9,923
9,ZYZMZ,185,2,703,Correct,9,856
9,VXVZV,16,2,605,Correct,9,740
9,VPVPV,151,1,529,Correct,9,672
9,RVRNS,235,2,609,Correct,9,874
9,YZYZY,113,1,688,Correct,9,813
9,ZSZSZ,11,[1][3],[619][795],Correct,9,831
9,FRFRF,13,1,878,Correct,9,815
9,ZMZMZ,196,1,667,Correct,9,676
9,NZNXN,16,2,700,Correct,9,717
9,LSLFL,121,[2],[777],Incorrect,9,941
10,Q,5,3,2811,New Target,10,760
10,ZVZPZ,161,2,1145,Correct,10,712
10,RZRZR,151,1,683,Correct,10,659
10,ZFZFZ,152,1,673,Correct,10,920
10,RZRZR,153,1,575,Correct,10,758
10,PZPXP,161,2,705,Correct,10,819
10,VFQPV,233,2,1161,Correct,10,869
10,ZPZRZ,222,2,849,Correct,10,875
10,CYCVC,162,2,684,Correct,10,747
10,CPCPC,151,1,1015,Correct,10,822
10,YZYQY,72,[2][3],[843][1035],Correct,10,769
10,FVFXF,14,2,654,Correct,10,885
10,YNYNQ,225,1,712,Correct,10,898
10,ZYZYZ,113,1,662,Correct,10,778
10,FRFSF,181,2,1015,Incorrect,10,811
10,XNXPX,16,2,708,Correct,10,922
10,NXNXN,151,1,658,Correct,10,730
10,PVPZP,161,2,551,Correct,10,667
10,XVXPX,162,2,617,Correct,10,766
10,FXFVF,163,1,542,Incorrect,10,697
10,NSNKN,172,2,709,Incorrect,10,688
10,VXVNV,16,2,669,Correct,10,932
10,XZXZX,151,1,715,Correct,10,907
10,VQVQV,8,[1][3],[739][915],Correct,10,864
10,ZYZPZ,14,2,1362,Correct,10,716
10,PZPSP,183,2,1014,Correct,10,861
10,YVYVY,15,1,741,Correct,10,828
10,NCNQN,92,[2][3],[707][931],Correct,10,661
10,FCFVF,14,2,584,Correct,10,669
10,ZFZFZ,151,1,751,Correct,10,681
10,NSNSN,194,1,1213,Correct,10,777
10,YPYFY,16,2,714,Correct,10,682
10,ZKZKZ,151,1,709,Correct,10,873
10,QZRCR,231,2,1055,Correct,10,810
10,YPYVY,222,2,690,Correct,10,696
10,ZNZNZ,151,1,562,Correct,10,773
10,VQVQV,10,[1][3],[663][871],Correct,10,948
10,RVRZR,14,2,625,Correct,10,739
10,KRKSK,185,2,754,Correct,10,734
10,NPNPN,15,1,614,Correct,10,937
10,YPYPY,152,1,617,Correct,10,718
10,VCVYV,161,2,569,Correct,10,843
10,FPFNF,162,,,Incorrect,10,881
10,QVXVX,221,1,1247,Correct,10,946
10,ZVZRZ,222,,,Incorrect,10,752
10,LFLFL,151,1,761,Correct,10,671
10,VLVLV,152,1,707,Correct,10,852
10,KXQXK,223,1,733,Correct,10,845
10,YQYQY,11,[3][1],[743][1143],Incorrect,10,904
10,YCYCY,13,1,1196,Correct,10,760
10,PZPYP,161,2,740,Correct,10,871
10,LPLFL,162,2,787,Correct,10,771
10,VSVSV,196,1,537,Correct,10,878
10,VFVYQ,235,2,1083,Correct,10,882
10,CZCXC,222,2,762,Correct,10,749
10,PVPCP,162,2,616,Correct,10,739
10,CXCXC,151,1,762,Correct,10,790
10,NZNZN,152,1,1000,Correct,10,725
10,YPYCY,161,2,665,Correct,10,808
10,ZQZQZ,12,[1][3],[632][840],Correct,10,925
11,T,5,3,6710,New Target,11,814
11,KFKFK,151,1,1348,Correct,11,693
11,LZLZL,152,,,Incorrect,11,762
11,PFPVP,161,2,682,Correct,11,677
11,FRFPF,162,2,1164,Correct,11,688
11,FZFZF,151,1,715,Correct,11,663
11,VTVTV,7,[1][3],[803][1492],Correct,11,844
11,KYKCK,14,2,814,Correct,11,866
11,VPVPV,151,1,569,Correct,11,713
11,XQXQX,191,1,557,Correct,11,812
11,PZPYP,16,2,768,Correct,11,778
11,KXKLK,162,2,775,Correct,11,925
11,TCNCN,221,1,558,Correct,11,918
11,PZPNP,222,2,725,Correct,11,667
11,RCRPR,162,2,594,Correct,11,806
11,PZPRT,235,2,676,Correct,11,819
11,XFXVX,222,2,627,Correct,11,808
11,LTLVL,81,[2][3],[917][1141],Correct,11,716
11,ZCZPZ,14,2,604,Correct,11,749
11,NCNQN,182,2,675,Correct,11,679
11,XZXNX,16,2,688,Correct,11,806
11,ZPZPZ,151,1,610,Correct,11,720
11,CFCFC,152,1,888,Correct,11,681
11,VXTRV,233,2,699,Correct,11,880
11,CFCVC,222,2,535,Correct,11,807
11,PYPYP,151,1,762,Correct,11,829
11,FQFYF,173,2,1082,Correct,11,711
11,CNCFC,16,2,550,Correct,11,848
11,PTPTP,9,[1][3],[647][887],Correct,11,665
11,ZCZCZ,13,1,671,Correct,11,781
11,KZKZK,152,1,666,Correct,11,863
11,RLRVR,161,2,925,Correct,11,740
11,ZRZKZ,162,2,765,Correct,11,915
11,KLKLT,225,1,856,Correct,11,754
11,ZQZQZ,194,1,642,Correct,11,759
11,VZVZV,15,1,638,Correct,11,942
11,RVRZR,161,2,819,Correct,11,683
11,ZPZCZ,162,2,655,Correct,11,744
11,VYVYV,151,1,663,Correct,11,922
11,RVRVR,152,1,947,Correct,11,867
11,PTPTP,10,[1][3],[836][1220],Correct,11,867
11,PXPXP,13,1,596,Correct,11,790
11,KCKCK,152,1,578,Correct,11,889
11,YVYVY,153,1,518,Correct,11,788
11,CYCYC,154,1,476,Correct,11,765
11,XCXCX,155,1,577,Correct,11,799
11,CYCQC,185,2,808,Correct,11,710
11,KCKNK,16,2,741,Correct,11,749
11,VPVPV,151,1,592,Correct,11,848
11,TXFZF,231,2,677,Correct,11,665
11,NYNVN,222,2,999,Correct,11,800
11,VQVXV,176,2,690,Correct,11,865
11,ZRZRZ,15,1,548,Correct,11,680
11,VTVZV,111,[2],[794],Incorrect,11,828
11,PXPVP,14,2,1035,Correct,11,719
11,FVFVF,151,1,668,Correct,11,748
11,VRVLV,161,2,650,Correct,11,861
11,YCYCY,151,1,648,Correct,11,812
11,XZTZX,223,1,570,Correct,11,740
11,VTVTV,12,[1][3],[689][1009],Correct,11,708
12,O,5,3,1333,New Target,12,890
12,VXVLV,161,2,1300,Correct,12,723
12,KVKCK,162,2,701,Correct,12,721
12,VLVLV,151,1,761,Correct,12,832
12,ZCZVZ,161,2,596,Correct,12,835
12,KFKFK,151,1,698,Correct,12,708
12,XKXKX,152,1,761,Correct,12,723
12,YXYXY,153,1,482,Correct,12,861
12,FVFVF,154,2,565,Incorrect,12,847
12,PVPOP,72,[2][3],[743][999],Correct,12,896
12,ZXZYZ,14,2,1209,Correct,12,853
12,PXPVP,162,,,Incorrect,12,837
12,ZTZTZ,191,1,579,Correct,12,672
12,CVCKC,16,2,834,Correct,12,918
12,CKCKC,151,1,702,Correct,12,700
12,NPNPN,152,1,666,Correct,12,800
12,ZRZNZ,161,2,569,Correct,12,730
12,OZCZC,221,1,719,Correct,12,791
12,LFLFL,113,1,598,Correct,12,917
12,CXCXC,152,1,466,Correct,12,927
12,KPKPK,153,1,534,Correct,12,835
12,FRFKF,161,2,575,Correct,12,677
12,FOFOF,8,[2][1],[821][1381],Incorrect,12,714
12,ZFZFZ,13,1,994,Correct,12,848
12,LKLZO,235,,,Incorrect,12,695
12,KLKZK,222,2,855,Correct,12,707
12,YXYCY,162,2,843,Correct,12,879
12,LOLOL,9,[1][3],[828][1084],Correct,12,935
12,XLXLX,13,1,673,Correct,12,864
12,XVXVX,152,1,565,Correct,12,697
12,FTFTF,192,1,868,Correct,12,905
12,OXNZN,231,2,927,Correct,12,700
12,CZCZC,113,1,707,Correct,12,819
12,LZLZL,152,1,524,Correct,12,866
12,VLVPV,161,2,1295,Correct,12,860
12,VYVYO,225,1,626,Correct,12,845
12,XKXKX,113,1,821,Correct,12,688
12,RTRTR,193,1,602,Correct,12,853
12,KVKCK,16,2,603,Correct,12,720
12,ROROR,101,[1][3],[854][1366],Correct,12,903
12,PRPRP,13,1,722,Correct,12,889
12,LYLVL,161,2,701,Correct,12,877
12,PLPLP,151,1,1036,Correct,12,763
12,CTCTC,194,1,519,Correct,12,903
12,XZXYX,16,2,680,Correct,12,884
12,NKNKN,151,1,674,Correct,12,910
12,VLVZV,161,2,690,Correct,12,765
12,YOYOY,11,[1][3],[520][871],Correct,12,810
12,PZOZP,223,1,729,Correct,12,899
12,FYFYF,113,1,823,Correct,12,781
12,ZXZVZ,161,2,685,Correct,12,768
12,VKVZV,162,2,1104,Correct,12,689
12,ZTZTZ,195,1,641,Correct,12,718
12,LKLZL,16,2,693,Correct,12,747
12,KCKVK,162,2,872,Correct,12,682
12,PXPKP,163,2,783,Correct,12,773
12,KCOZK,233,2,827,Correct,12,793
12,FKFKF,113,1,557,Correct,12,943
12,CTCRC,176,2,939,Correct,12,946
12,NXNXN,15,1,581,Correct,12,694
12,KXKVK,161,2,818,Correct,12,907
12,CPCOC,122,[2][3],[883][1155],Correct,12,776
13,H,5,3,1308,New Target,13,828
13,VFVNV,151,2,953,Incorrect,13,650
13,YVYVY,152,1,698,Correct,13,838
13,XVXVX,153,1,610,Correct,13,883
13,NRNXN,161,2,628,Correct,13,754
13,PZPKP,162,2,568,Correct,13,692
13,HLVLV,221,1,774,Correct,13,895
13,CXCZC,222,1,544,Incorrect,13,769
13,LHLYL,71,[2][3],[1080][1288],Correct,13,701
13,YKYFY,14,2,1139,Correct,13,852
13,YOYRY,171,2,848,Correct,13,810
13,ZKZYZ,16,2,744,Correct,13,817
13,RZRZR,151,1,1014,Correct,13,753
13,NFNYN,161,2,982,Correct,13,820
13,KVKFK,162,2,1322,Correct,13,791
13,XFXYX,163,2,800,Correct,13,779
13,LKLVL,164,2,654,Correct,13,693
13,NLNLN,151,1,703,Correct,13,711
13,XCXOX,182,2,785,Correct,13,700
13,FXFXF,15,1,652,Correct,13,765
13,VHVHV,8,[1][3],[907][1307],Correct,13,782
13,PVPVP,13,1,1067,Correct,13,749
13,CRCXC,161,2,793,Correct,13,830
13,NXNXN,151,1,648,Correct,13,661
13,XRXRX,152,1,699,Correct,13,727
13,YFYXY,161,2,650,Correct,13,761
13,ZOZOZ,193,1,619,Correct,13,752
13,RZRZR,15,2,705,Incorrect,13,696
13,FKFKF,152,1,1005,Correct,13,818
13,PFPFP,153,1,1005,Correct,13,826
13,XYXHX,92,[2][3],[823][1047],Correct,13,857
13,RZRKR,14,2,801,Correct,13,865
13,FLFLH,225,1,632,Correct,13,855
13,KRKRK,113,1,758,Correct,13,849
13,ZVZNZ,161,2,562,Correct,13,746
13,ZOZOZ,194,1,544,Correct,13,902
13,FZFZF,15,1,612,Correct,13,820
13,FHFKF,101,[2][3],[628][1412],Correct,13,762
13,ZXHLZ,233,2,1240,Correct,13,683
13,FKFXF,222,2,986,Correct,13,946
13,CFCYC,162,2,670,Correct,13,741
13,ZXZVZ,163,2,829,Correct,13,771
13,KCKOK,185,2,705,Correct,13,872
13,ZXZVH,235,2,965,Correct,13,671
13,CKCKC,113,1,792,Correct,13,779
13,ZXZCZ,161,2,599,Correct,13,696
13,YVYVY,151,1,1481,Correct,13,760
13,RVHVR,223,1,854,Correct,13,828
13,ZRZRZ,113,1,602,Correct,13,906
13,ZHZHZ,11,[1][3],[1163][1531],Correct,13,915
13,VZVZV,13,1,654,Correct,13,812
13,HZVRV,231,2,904,Correct,13,938
13,FVFVF,113,1,743,Correct,13,654
13,RNRCR,161,2,643,Correct,13,754
13,COCOC,196,1,686,Correct,13,903
13,VNVXV,16,2,602,Correct,13,860
13,XHXHX,12,[1][3],[716][988],Correct,13,776
14,G,5,3,15953,New Target,14,663
14,FZFZF,151,1,977,Correct,14,937
14,RPRVR,161,2,778,Correct,14,654
14,XCXCX,151,1,933,Correct,14,750
14,YXYXY,152,1,670,Correct,14,759
14,KZKZK,153,1,576,Correct,14,658
14,RYRKR,161,2,643,Correct,14,767
14,FYFNF,162,2,1409,Correct,14,896
14,VKVKV,151,1,695,Correct,14,743
14,KPGPK,223,1,735,Correct,14,898
14,YNYNY,113,1,682,Correct,14,788
14,VYVYV,152,1,730,Correct,14,701
14,YCYXY,161,2,800,Correct,14,915
14,LKLGL,72,[2][3],[657][897],Correct,14,868
14,VXVXV,13,1,623,Correct,14,929
14,KCKVK,161,2,713,Correct,14,931
14,YKYKY,151,1,640,Correct,14,922
14,RHRXR,171,2,610,Correct,14,721
14,FVFCF,16,2,517,Correct,14,698
14,YXYGY,82,[2][3],[680][904],Correct,14,882
14,CLCLC,13,1,833,Correct,14,946
14,ZXZCZ,161,2,1128,Correct,14,781
14,VLVFV,162,2,699,Correct,14,678
14,CPCPG,225,1,787,Correct,14,931
14,KHKNK,172,2,788,Correct,14,659
14,ZKZVZ,16,2,688,Correct,14,792
14,YKYLY,162,2,811,Correct,14,829
14,CNCNC,151,1,618,Correct,14,662
14,PGPGP,9,[1][3],[568][1592],Correct,14,899
14,VPVPV,13,1,680,Correct,14,813
14,FXGRF,233,2,553,Correct,14,725
14,CYCVC,222,2,1157,Correct,14,915
14,FNFNF,151,1,526,Correct,14,867
14,KFKCK,161,2,641,Correct,14,867
14,ZFZHZ,183,2,620,Correct,14,947
14,NXNXN,15,1,878,Correct,14,743
14,FNFNF,152,1,830,Correct,14,909
14,LXLNG,235,1,714,Incorrect,14,712
14,XKXVX,222,,,Incorrect,14,804
14,ZHZHZ,194,1,852,Correct,14,680
14,PFPFP,15,1,594,Correct,14,662
14,ZYZYZ,152,1,551,Correct,14,702
14,XPXVX,161,2,554,Correct,14,792
14,YCYCY,151,1,760,Correct,14,907
14,RGRGR,10,[1][3],[1029][1269],Correct,14,680
14,VRVRV,13,1,600,Correct,14,879
14,PKPNP,161,2,841,Correct,14,745
14,XGXGX,11,[1][3],[695][983],Correct,14,724
14,GZYVY,231,2,623,Correct,14,797
14,VCVNV,222,2,1042,Correct,14,746
14,VHVHV,195,1,685,Correct,14,913
14,LXLNL,16,2,1032,Correct,14,896
14,GKPKP,221,1,810,Correct,14,796
14,XRXPX,222,2,976,Correct,14,832
14,XNXNX,151,1,548,Correct,14,768
14,KHKNK,176,2,692,Incorrect,14,888
14,RZRZR,15,1,787,Correct,14,813
14,CGCFC,121,[2][3],[844][1564],Correct,14,785
15,A,5,3,2048,New Target,15,903
15,XRXFX,161,2,783,Correct,15,832
15,RXRKR,162,2,633,Correct,15,812
15,YRYRY,151,1,789,Correct,15,888
15,XPXPX,152,1,674,Correct,15,701
15,RPRPR,153,1,537,Correct,15,935
15,NCNCN,154,1,595,Correct,15,650
15,RXRZR,161,2,592,Correct,15,885
15,NANAN,7,[1][3],[612][820],Correct,15,920
15,KCKYK,14,2,640,Correct,15,837
15,XKXFX,162,2,739,Correct,15,700
15,ZLZKZ,163,2,555,Correct,15,926
15,VCVZV,164,2,585,Correct,15,878
15,XCXVX,165,2,484,Correct,15,917
15,LKLZA,235,2,715,Correct,15,763
15,NCNCN,113,2,1064,Incorrect,15,806
15,YGYGY,191,1,791,Correct,15,837
15,VLVLV,15,1,498,Correct,15,795
15,XRXRX,152,1,507,Correct,15,746
15,KAKPK,81,[2][3],[566][998],Correct,15,726
15,YZAZY,233,1,649,Incorrect,15,895
15,CFCFC,113,1,661,Correct,15,841
15,VNVLV,161,2,557,Correct,15,948
15,KPKVK,162,2,939,Correct,15,938
15,NCNRN,163,2,673,Correct,15,755
15,FGFGF,192,1,788,Correct,15,684
15,RCRYR,16,2,715,Correct,15,893
15,KRKCK,162,2,652,Correct,15,661
15,CRCRC,151,2,588,Incorrect,15,830
15,XPAPX,223,1,715,Correct,15,830
15,LPLXL,222,2,690,Correct,15,925
15,CGCVC,173,2,770,Correct,15,742
15,FKFZF,16,2,913,Correct,15,665
15,CACAC,9,[1][3],[634][842],Correct,15,718
15,XCXCX,13,1,652,Correct,15,732
15,AXRXR,221,2,805,Incorrect,15,912
15,NKNRN,222,1,740,Incorrect,15,658
15,KNKFK,162,2,1006,Correct,15,911
15,KAKAK,10,[1][3],[687][895],Correct,15,740
15,ZCZRZ,14,2,531,Correct,15,743
15,RPRPR,151,1,564,Correct,15,862
15,NCNCN,152,1,612,Correct,15,829
15,RYRGR,184,2,612,Correct,15,768
15,VPVPV,15,1,564,Correct,15,829
15,RCRCA,225,1,570,Correct,15,671
15,KXKPK,222,2,721,Correct,15,683
15,NPNPN,151,1,748,Correct,15,861
15,YCYCY,152,1,516,Correct,15,929
15,PXPAP,112,[2][3],[774][998],Correct,15,732
15,ZCZNZ,14,2,896,Correct,15,917
15,KYKGK,185,2,522,Correct,15,680
15,ANLPL,231,2,1183,Correct,15,788
15,CXCPC,222,2,581,Correct,15,925
15,YRYRY,151,1,618,Correct,15,671
15,LGLGL,196,1,574,Correct,15,671
15,VYVLV,16,2,720,Correct,15,811
15,KVKVK,151,1,1021,Correct,15,839
15,RKRKR,152,1,573,Correct,15,839
15,VXVXV,153,1,560,Correct,15,754
15,XAXAX,12,[1][3],[733][941],Correct,15,813
