Trial No,Stimulus,Trigger,Response,Response Time(ms),Correct,Block,Fixation Duration
Practice
OT Practice
1,SKSKS,15,1,730,Correct,0,763
1,DLDUD,16,2,608,Correct,0,831
1,PDPGP,16,2,1162,Correct,0,940
1,MWMWM,15,1,556,Correct,0,895
1,FTFTF,15,1,810,Correct,0,822
1,AXAMA,16,2,700,Correct,0,867
1,RYRGR,16,2,884,Correct,0,855
1,DODOD,15,1,521,Correct,0,763
1,QTQAQ,16,2,619,Correct,0,769
1,YEYEY,15,1,554,Correct,0,703
2,GYGDG,16,2,924,Correct,0,868
2,SWSWS,15,1,750,Correct,0,826
2,HLHUH,16,2,671,Correct,0,948
2,DEDED,15,1,557,Correct,0,730
2,ZPZOZ,16,2,592,Correct,0,656
2,ATATA,15,1,795,Correct,0,835
2,QOQOQ,15,1,717,Correct,0,910
2,FPFGF,16,2,682,Correct,0,720
2,TRTET,16,2,746,Correct,0,663
2,DQDQD,15,2,1145,False,0,666
4,PLPLP,15,1,591,Correct,0,929
4,ATAIA,16,2,624,Correct,0,712
4,SKSGS,16,2,735,Correct,0,797
4,ZYZYZ,15,1,635,Correct,0,699
4,QSQSQ,15,1,587,Correct,0,658
4,TZTDT,16,2,651,Correct,0,773
4,JYJGJ,16,1,1079,False,0,734
4,DYDYD,15,1,852,Correct,0,722
4,LTLCL,16,2,627,Correct,0,889
4,FQFEF,16,1,595,False,0,658
DT Practice
1,TKTKT,15,1,891,Correct,0,789
1,SLSUS,16,2,815,Correct,0,823
1,VZVGV,7,[2],[1099],False,0,938
1,XWXZX,7,,,False,0,791
1,ATATA,15,1,982,Correct,0,653
1,HXZMH,16,2,1238,Correct,0,791
1,TZTZT,7,[1],[1572],False,0,663
1,UOUOU,15,1,1026,Correct,0,752
1,ZTWAW,16,2,1393,Correct,0,789
1,RZRER,7,[2],[1061],False,0,776
2,JYJDJ,16,2,836,Correct,0,948
2,DWDWD,15,2,962,False,0,916
2,GNGNG,7,[1][3],[1072][1199],Correct,0,703
2,NEZEZ,16,1,1162,Correct,0,678
2,RNROR,7,[1][3],[1014][1238],False,0,792
2,QTQNQ,7,[2],[1441],False,0,904
2,HOHON,15,1,1336,Correct,0,923
2,KPKGK,16,2,920,Correct,0,788
2,DRDED,16,2,1029,Correct,0,932
2,LNLNL,7,[1][3],[996][1332],Correct,0,852
4,GLGLG,15,1,920,Correct,0,758
4,DTDID,16,2,825,Correct,0,775
4,SMSGS,16,2,1213,Correct,0,843
4,ZFZYZ,7,[2],[1182],False,0,862
4,TSTFT,7,[2][3],[1347][1571],Correct,0,722
4,OFOFO,7,[1][3],[971][1195],Correct,0,759
4,WYFGW,16,,,False,0,808
4,WYWYW,15,1,1182,Correct,0,903
4,MFMCM,7,[2][3],[1381][1573],Correct,0,721
4,HQHEH,16,2,1173,Correct,0,834
1,TKTKT,15,1,1071,Correct,0,857
1,SLSUS,16,2,925,Correct,0,737
1,VZVGV,7,[2],[1553],False,0,860
1,XWXZX,7,[2][3],[979][1203],Correct,0,774
1,ATATA,15,1,776,Correct,0,923
1,HXZMH,16,1,1195,False,0,925
1,TZTZT,7,[1][3],[792][1016],Correct,0,651
1,UOUOU,15,1,817,Correct,0,829
1,ZTWAW,16,2,1059,Correct,0,836
1,RZRER,7,[2][3],[957][1197],Correct,0,773
2,JYJDJ,16,2,1003,Correct,0,801
2,DWDWD,15,1,859,Correct,0,748
2,GNGNG,7,[1][3],[700][1196],Correct,0,704
2,NEZEZ,16,1,879,Correct,0,860
2,RNROR,7,[2][3],[1135][1343],Correct,0,903
2,QTQNQ,7,[2][3],[965][1189],Correct,0,935
2,HOHON,15,1,740,Correct,0,759
2,KPKGK,16,2,753,Correct,0,672
2,DRDED,16,2,779,Correct,0,749
2,LNLNL,7,[1][3],[641][848],Correct,0,749
4,GLGLG,15,1,719,Correct,0,915
4,DTDID,16,2,670,Correct,0,652
4,SMSGS,16,2,825,Correct,0,716
4,ZFZYZ,7,[2][3],[827][1019],Correct,0,696
4,TSTFT,7,[2][3],[636][860],Correct,0,914
4,OFOFO,7,[1][3],[695][919],Correct,0,781
4,WYFGW,16,2,1324,Correct,0,691
4,WYWYW,15,1,704,Correct,0,751
4,MFMCM,7,[2][3],[785][1457],Correct,0,701
4,HQHEH,16,2,944,Correct,0,867
Trials
1,D,5,3,8770,New Target,1,666
1,ZNZYZ,161,2,775,Correct,1,902
1,FZFZF,151,1,659,Correct,1,762
1,RKRKR,152,1,696,Correct,1,671
1,RXRNR,161,2,689,Correct,1,918
1,CNCFC,162,2,818,Correct,1,731
1,PDPDP,7,[1][3],[648][824],Correct,1,761
1,CPCFC,14,2,698,Correct,1,925
1,VLVNV,162,2,819,Correct,1,876
1,KFKFK,151,1,737,Correct,1,683
1,ZNZNZ,152,1,743,Correct,1,928
1,KCKPD,235,2,735,Correct,1,857
1,ZKZFZ,222,2,758,Correct,1,901
1,NRNZN,162,2,596,Correct,1,771
1,KXKRK,163,2,627,Correct,1,862
1,YPYZY,164,2,576,Correct,1,918
1,FKDKF,223,2,646,Incorrect,1,670
1,RPRPR,113,2,636,Incorrect,1,652
1,VRVKV,161,2,880,Correct,1,681
1,RFRPR,162,2,838,Correct,1,823
1,KVKVK,151,1,851,Correct,1,681
1,YKYVY,161,2,734,Correct,1,709
1,VDVDV,8,[1][3],[746][938],Correct,1,730
1,DVZVZ,221,1,976,Correct,1,720
1,YFYFY,113,1,783,Correct,1,937
1,ZYZYZ,152,1,746,Correct,1,707
1,VLVXV,161,2,675,Correct,1,868
1,DPXZX,231,2,831,Correct,1,850
1,RYRYR,113,1,712,Correct,1,790
1,PDPNP,91,[2][3],[931][1235],Correct,1,699
1,KXKXK,13,1,952,Correct,1,909
1,ZYZYZ,152,1,790,Correct,1,903
1,VKVKV,153,1,701,Correct,1,857
1,YZYZY,154,1,620,Correct,1,832
1,NLNZN,161,2,1058,Correct,1,672
1,ZNDYZ,233,2,1029,Correct,1,683
1,PCPXP,222,2,643,Correct,1,903
1,ZVZFZ,162,2,671,Correct,1,944
1,RCRZR,163,2,628,Correct,1,662
1,LRLRL,151,1,549,Correct,1,771
1,ZDZDZ,10,[1][3],[610][802],Correct,1,779
1,RNRZR,14,2,828,Correct,1,854
1,CXCYC,162,2,695,Correct,1,677
1,RCRLR,163,2,601,Correct,1,650
1,FRFRF,151,1,622,Correct,1,656
1,XFXFX,152,1,740,Correct,1,726
1,RPRLR,161,2,681,Correct,1,899
1,YXYRY,162,2,697,Correct,1,750
1,FYFYF,151,1,632,Correct,1,701
1,YZYVY,161,2,697,Correct,1,737
1,YKYKY,151,1,661,Correct,1,802
1,XRXRX,152,1,527,Correct,1,911
1,XVXZX,161,2,711,Correct,1,688
1,PDPDP,11,[1][3],[553][760],Correct,1,746
1,ZFZFZ,13,1,634,Correct,1,807
1,PXPXP,152,1,643,Correct,1,931
1,LYLYL,153,1,592,Correct,1,868
1,NKNKD,225,1,951,Correct,1,653
1,ZNZNZ,113,1,671,Correct,1,701
1,PYPZP,161,2,699,Correct,1,896
1,XPXPX,151,1,652,Correct,1,666
1,VLVLV,152,1,582,Correct,1,908
1,PKPXP,161,2,757,Correct,1,871
1,FZFZF,151,1,595,Correct,1,652
1,LDLDL,12,[1][3],[632][808],Correct,1,733
2,U,5,3,3241,New Target,2,768
2,ZVZFZ,161,2,759,Correct,2,927
2,FZFZF,151,1,728,Correct,2,667
2,RFRFR,152,1,727,Correct,2,747
2,NZNKN,161,2,869,Correct,2,798
2,FZFNF,162,2,747,Correct,2,772
2,RXRXR,151,1,724,Correct,2,882
2,KRKYK,161,2,741,Correct,2,727
2,NZNPN,162,2,966,Correct,2,675
2,XPXPX,151,1,671,Correct,2,686
2,CUCUC,7,[1][3],[729][985],Correct,2,705
2,RFRFR,13,1,878,Correct,2,737
2,VYVXV,161,2,761,Correct,2,705
2,VDVDV,191,1,1137,Correct,2,924
2,ZKZRZ,15,2,762,Correct,2,887
2,XCXCX,151,1,868,Correct,2,827
2,CNCUC,82,[2][3],[925][1309],Correct,2,869
2,RCRCR,13,1,707,Correct,2,900
2,ZPZXZ,161,2,1006,Correct,2,888
2,FKFYF,162,2,928,Correct,2,775
2,ZFZYZ,163,2,682,Correct,2,660
2,PXPXP,151,1,742,Correct,2,841
2,URCKC,231,2,1326,Correct,2,853
2,PCPCP,113,1,724,Correct,2,822
2,XNXNX,152,1,734,Correct,2,818
2,RCRZR,161,2,1141,Correct,2,927
2,XVXVX,151,1,701,Correct,2,940
2,NRNRN,152,1,619,Correct,2,772
2,FPFPF,225,1,604,Correct,2,808
2,XVXFX,222,2,726,Correct,2,943
2,PRPRP,151,1,717,Correct,2,930
2,FYFCF,161,2,845,Correct,2,682
2,XUXFX,91,[2][3],[748][972],Correct,2,792
2,CYCVC,14,,,Incorrect,2,814
2,VDVKV,172,2,1324,Correct,2,756
2,YCYCY,15,1,637,Correct,2,937
2,NKNLN,161,2,671,Correct,2,785
2,XPUKX,233,2,913,Correct,2,663
2,ZPZPZ,113,1,674,Correct,2,912
2,KRKRK,152,1,612,Correct,2,737
2,XKXKX,153,1,640,Correct,2,926
2,YUYVY,101,[2][3],[933][1173],Correct,2,732
2,XKXFU,235,2,1109,Correct,2,854
2,NFNFN,113,1,897,Correct,2,840
2,KDKDK,193,1,1312,Correct,2,932
2,XYXKX,16,2,795,Correct,2,723
2,YZUZY,223,1,1074,Correct,2,880
2,KFKVK,222,2,927,Correct,2,851
2,LYLYL,151,1,769,Correct,2,907
2,CXCDC,184,,,Incorrect,2,876
2,XZXNX,16,2,929,Correct,2,901
2,PXPXP,151,1,702,Correct,2,950
2,ZRZYZ,161,2,766,Correct,2,767
2,PUPYP,111,[2][3],[968][1192],Correct,2,671
2,RNRNR,14,1,982,Correct,2,697
2,KDKDK,195,1,1115,Correct,2,778
2,KNKNK,15,1,804,Correct,2,877
2,PRPKP,161,2,794,Correct,2,837
2,UNYNY,221,1,933,Correct,2,750
2,NYNYN,113,1,1052,Correct,2,704
2,YXYXY,152,1,813,Incorrect,2,810
2,RDRDR,196,1,705,Correct,2,907
2,FCFCF,15,1,955,Correct,2,917
2,ZKZKZ,152,1,689,Correct,2,768
2,ZUZUZ,12,[1],[1491],Incorrect,2,778
3,E,5,3,2572,New Target,3,861
3,YZYZY,151,1,672,Correct,3,861
3,VFVNV,161,2,771,Correct,3,652
3,KYKYK,151,1,746,Correct,3,938
3,NKNKN,152,1,707,Correct,3,893
3,XVXNX,161,2,795,Correct,3,937
3,RERFR,71,[2][3],[1121][1297],Correct,3,816
3,XNXNX,13,1,633,Correct,3,719
3,NXNXN,152,1,869,Correct,3,910
3,ZLZNZ,161,2,1115,Correct,3,789
3,CUCNC,171,2,922,Correct,3,776
3,FYFRF,16,2,995,Correct,3,698
3,ZLZLZ,151,1,766,Correct,3,944
3,YZYZY,152,1,1034,Correct,3,735
3,CYCYC,153,1,1182,Correct,3,743
3,VUVUV,192,,,Incorrect,3,945
3,PXPRP,16,2,807,Correct,3,911
3,YPYPY,151,1,606,Correct,3,910
3,CECEC,8,[1][3],[930][1234],Correct,3,751
3,VNENV,223,1,1233,Correct,3,871
3,KRKFK,222,2,937,Correct,3,860
3,XLXLE,225,1,1145,Correct,3,883
3,RFRUR,183,2,1050,Correct,3,720
3,XRXLX,16,2,774,Correct,3,882
3,NZNPN,162,2,753,Correct,3,784
3,XZXZX,151,1,734,Correct,3,793
3,FZFZF,152,1,743,Correct,3,902
3,PFPFP,153,1,893,Correct,3,908
3,YZYXY,161,2,1217,Correct,3,891
3,KEKEK,9,[1][3],[719][959],Correct,3,707
3,CXCPC,14,2,749,Correct,3,779
3,VXVXV,151,1,796,Correct,3,660
3,NUNZN,174,2,741,Correct,3,799
3,RKRVR,16,2,740,Correct,3,737
3,XRXRX,151,1,750,Correct,3,819
3,ERNFN,231,,,Incorrect,3,885
3,YRYNY,222,2,714,Correct,3,944
3,PZPEP,102,[2][3],[1000][1192],Correct,3,734
3,ZYZXZ,14,2,698,Correct,3,819
3,RZRVR,162,2,1033,Correct,3,764
3,XRXRX,151,1,700,Correct,3,719
3,KUKFK,175,2,870,Correct,3,853
3,RKRKR,15,1,889,Correct,3,897
3,ZFZFZ,152,1,699,Correct,3,920
3,YZYVY,161,2,713,Correct,3,719
3,XPXNX,162,2,807,Correct,3,783
3,YRYRY,151,1,706,Correct,3,727
3,EPVPV,221,1,851,Correct,3,714
3,CRCEC,112,[2][3],[1024][1264],Correct,3,665
3,RFRCR,14,2,1117,Correct,3,928
3,CPCVC,162,2,666,Correct,3,796
3,RXRCR,163,2,1126,Correct,3,838
3,VNVLV,164,2,622,Correct,3,930
3,ZXZXZ,151,1,801,Correct,3,682
3,ZCZCZ,152,1,807,Correct,3,924
3,PYPUP,186,2,970,Correct,3,926
3,YKYPY,16,2,786,Correct,3,717
3,YREXY,233,2,1068,Correct,3,737
3,ZKZKZ,113,1,684,Correct,3,819
3,XLXNX,161,2,1016,Correct,3,823
3,KFKRE,235,2,886,Correct,3,753
3,RXRLR,222,2,1204,Correct,3,792
3,RERXR,121,[2][3],[1087][1359],Correct,3,771
4,J,5,3,1575,New Target,4,764
4,CYCVC,161,2,741,Correct,4,894
4,RXRCR,162,2,751,Correct,4,675
4,FPFVF,163,2,944,Correct,4,943
4,LZLZL,151,1,915,Correct,4,775
4,PLPLP,152,1,617,Correct,4,657
4,NPNPN,153,1,617,Correct,4,680
4,XZXZX,161,1,595,Incorrect,4,704
4,CNCKC,162,2,1004,Correct,4,921
4,PCPYJ,235,2,1176,Correct,4,719
4,VYVYV,113,1,831,Correct,4,758
4,RLRLR,152,1,607,Correct,4,834
4,CJCJC,7,[1][3],[1253][1476],Correct,4,877
4,ZLZLZ,13,1,1153,Correct,4,665
4,FZFZF,152,1,593,Correct,4,668
4,CFCFC,153,1,648,Correct,4,945
4,PZPZP,154,1,561,Correct,4,789
4,XEXEX,191,1,723,Correct,4,711
4,NVNFN,16,2,812,Correct,4,797
4,KYKYK,151,1,822,Correct,4,693
4,ZNZVZ,161,2,802,Correct,4,916
4,YVJXY,233,2,741,Correct,4,814
4,XFXFX,113,1,987,Correct,4,817
4,XNXNX,152,1,1181,Correct,4,685
4,FJFKF,81,[2][3],[1134][1359],Correct,4,785
4,CZCYC,14,2,1403,Correct,4,882
4,ZXZCZ,162,2,685,Correct,4,779
4,RYRYJ,225,2,724,Incorrect,4,832
4,FPFZF,222,2,1043,Correct,4,654
4,XRXRX,151,1,844,Correct,4,915
4,YPYEY,182,2,877,Correct,4,854
4,XRXRX,15,1,715,Correct,4,829
4,XZXPX,161,2,971,Correct,4,942
4,CJCJC,9,[1][3],[988][1275],Correct,4,746
4,ZXZVZ,14,2,742,Correct,4,783
4,VKVKV,151,1,731,Correct,4,850
4,VEVNV,173,2,866,Correct,4,780
4,ZKZVZ,16,2,1377,Correct,4,923
4,XVXJX,102,[2][3],[822][1143],Correct,4,700
4,RXRVR,14,2,933,Correct,4,717
4,LRLRL,151,1,736,Correct,4,887
4,YNJNY,223,1,1109,Correct,4,846
4,NPNJN,222,2,958,Correct,4,801
4,ZEZEZ,194,1,896,Correct,4,667
4,ZNZNZ,15,1,721,Correct,4,733
4,YZYZY,152,1,825,Correct,4,798
4,XYXYX,153,1,811,Correct,4,802
4,ZXZXZ,221,1,756,Correct,4,717
4,LYLZL,222,2,875,Correct,4,743
4,CYCNC,162,2,1156,Correct,4,701
4,XEXEX,195,1,1007,Correct,4,678
4,CVCXC,16,2,734,Correct,4,786
4,ZPZXZ,162,2,648,Correct,4,719
4,FZFZF,151,1,783,Correct,4,883
4,RXRJR,112,[2][3],[990][1181],Correct,4,720
4,PRPFP,14,2,1170,Correct,4,828
4,PKPEP,186,2,1381,Correct,4,818
4,XZXPX,16,2,723,Correct,4,797
4,JCZVZ,231,2,756,Correct,4,891
4,RXRLR,222,2,1030,Correct,4,934
4,VZVZV,151,1,821,Correct,4,768
4,XJXJX,12,[1][3],[1094][1351],Correct,4,882
5,I,5,3,3139,New Target,5,694
5,PCPCP,151,1,1219,Correct,5,836
5,XYXYX,152,1,1221,Correct,5,894
5,VXVXV,153,1,745,Correct,5,689
5,XVXVX,154,1,695,Correct,5,702
5,ZRZXZ,161,2,720,Correct,5,818
5,FPFZF,162,2,777,Correct,5,770
5,ZYZYZ,151,1,876,Correct,5,801
5,RVRZR,161,2,653,Correct,5,826
5,CICIC,7,[1],[1090],Incorrect,5,890
5,XLXLX,13,1,686,Correct,5,796
5,YVYVY,152,1,966,Correct,5,758
5,CJCJC,191,1,979,Correct,5,845
5,FNFCF,16,2,848,Correct,5,922
5,PVPRP,162,2,879,Correct,5,842
5,FZFZF,151,1,721,Correct,5,880
5,NVIVN,223,1,1370,Correct,5,686
5,CVCIC,82,[2][3],[1008][1376],Correct,5,883
5,ZXZXZ,13,1,685,Correct,5,923
5,FCFZF,161,2,1112,Correct,5,733
5,IXRXR,221,1,1063,Correct,5,657
5,ZPZNZ,222,2,1180,Correct,5,868
5,VZVZV,151,1,718,Correct,5,900
5,YRYNY,161,2,1192,Correct,5,780
5,VNVPV,162,2,706,Correct,5,650
5,RVRJR,182,2,1098,Correct,5,713
5,VRVRV,15,1,815,Correct,5,927
5,VIVIV,9,[3],[1368],Incorrect,5,946
5,CXCVC,14,2,893,Correct,5,740
5,PZPZP,151,1,1428,Correct,5,653
5,IXVKV,231,2,1101,Correct,5,879
5,YJYCY,173,2,1190,Incorrect,5,839
5,VYVYV,15,1,1047,Correct,5,875
5,YVYVY,152,1,789,Correct,5,685
5,NVNVN,153,1,822,Correct,5,877
5,XYXVX,161,2,909,Correct,5,676
5,NJNCN,174,2,936,Correct,5,893
5,NXNYN,16,2,707,Correct,5,835
5,VXVCV,162,2,649,Correct,5,912
5,ZKZKZ,151,1,935,Correct,5,731
5,XRXYX,161,2,1065,Correct,5,695
5,ZCZXZ,162,2,749,Correct,5,947
5,KVKYI,235,2,1011,Correct,5,733
5,CNCNC,113,1,593,Correct,5,724
5,RIRIR,10,[1][3],[867][1252],Correct,5,770
5,VYVXV,14,2,733,Correct,5,797
5,FXIRF,233,2,1088,Correct,5,898
5,PFPFP,113,1,935,Correct,5,893
5,VPVPV,152,1,1371,Correct,5,665
5,ZJZJZ,195,1,984,Correct,5,919
5,ZVZNZ,16,2,773,Correct,5,693
5,YVYXY,162,2,669,Correct,5,698
5,PRPRP,151,1,690,Correct,5,935
5,YPYPY,152,1,647,Correct,5,862
5,ZIZPZ,111,[2][3],[1068][1325],Correct,5,701
5,NKNXN,14,2,862,Correct,5,844
5,RZRXR,162,2,667,Correct,5,949
5,RXRXR,151,1,1467,Correct,5,945
5,ZJZJZ,196,1,970,Correct,5,692
5,CVCVI,225,1,1156,Incorrect,5,891
5,NKNKN,113,1,735,Correct,5,760
5,NRNZN,161,2,736,Correct,5,831
5,CNCNC,151,1,771,Correct,5,860
5,RFRIR,122,[2][3],[982][1190],Correct,5,819
6,B,5,3,2564,New Target,6,836
6,YKYZY,161,2,881,Correct,6,777
6,VCVRV,162,2,664,Correct,6,704
6,XVXVX,151,1,828,Correct,6,928
6,KZKRK,161,2,699,Correct,6,898
6,ZVZXZ,162,2,1300,Correct,6,837
6,RCRNR,163,2,993,Correct,6,858
6,CXCRC,164,2,900,Correct,6,684
6,VNBCV,233,2,1154,Correct,6,891
6,CXCVC,222,2,748,Correct,6,712
6,RFRFR,151,1,752,Correct,6,852
6,XPXRX,161,2,1112,Correct,6,731
6,RYRBR,72,[2],[1012],Incorrect,6,710
6,ZKZKZ,13,1,895,Correct,6,906
6,FIFRF,171,2,1331,Correct,6,669
6,VZVLV,16,2,1300,Correct,6,822
6,RPRVR,162,2,1334,Correct,6,784
6,YBYBY,8,[1][3],[886][1143],Correct,6,949
6,PYPVP,14,2,1169,Correct,6,784
6,NININ,192,1,1144,Correct,6,719
6,RNRNR,15,1,831,Correct,6,848
6,NXNVN,161,2,1327,Correct,6,790
6,RNRNR,151,1,787,Correct,6,719
6,FRFVF,161,2,1128,Correct,6,851
6,YVYFB,235,2,1134,Incorrect,6,827
6,ZRZXZ,222,2,1030,Correct,6,814
6,VNVIV,193,2,1345,Incorrect,6,786
6,PXPNP,16,2,897,Correct,6,885
6,ZXZPZ,162,2,960,Correct,6,757
6,VBVBV,9,[1][3],[719][926],Correct,6,922
6,CXCXC,13,1,681,Correct,6,676
6,PCPFP,161,2,972,Correct,6,938
6,KNKNK,151,1,713,Correct,6,896
6,XIXIX,194,1,627,Correct,6,652
6,CYCYC,15,1,635,Correct,6,861
6,FVFYF,161,2,777,Correct,6,762
6,YNYRY,162,2,855,Correct,6,909
6,BVPXP,231,2,1142,Correct,6,908
6,NXNXN,113,1,1252,Correct,6,670
6,FRFRF,152,1,1051,Correct,6,685
6,YVYVY,153,1,1236,Correct,6,782
6,ZKZCZ,161,,,Incorrect,6,696
6,VIVXV,175,2,757,Correct,6,677
6,PRBRP,223,1,1128,Correct,6,818
6,YZYBY,102,[2][3],[1018][1211],Correct,6,889
6,CXCVC,14,2,1117,Correct,6,778
6,FYFYF,151,1,757,Correct,6,711
6,VKVXV,161,1,712,Incorrect,6,868
6,ZBZBZ,11,[1][3],[827][1131],Correct,6,815
6,FPFNF,14,2,1086,Correct,6,870
6,CXCXC,151,1,1033,Correct,6,797
6,YCYCY,152,1,1186,Correct,6,738
6,FPFPF,153,1,1091,Correct,6,931
6,CVCVB,225,1,1257,Correct,6,893
6,ZCZCZ,113,1,687,Correct,6,793
6,CZCNC,161,2,767,Correct,6,906
6,KIKFK,176,2,754,Correct,6,904
6,PXPXP,15,1,756,Correct,6,888
6,RYRYR,152,1,986,Correct,6,839
6,ZRZCZ,161,2,885,Correct,6,800
6,RVRVR,151,1,1034,Correct,6,775
6,XYXNX,161,2,1023,Correct,6,942
6,BVKVK,221,1,1039,Correct,6,692
6,CBCBC,12,[1][3],[798][1551],Correct,6,850
7,W,5,3,2839,New Target,7,785
7,RKRKR,151,1,878,Correct,7,729
7,CVCRC,161,2,798,Correct,7,804
7,PKPKP,151,1,728,Correct,7,747
7,FPFPF,152,1,685,Correct,7,790
7,VRVPV,161,2,727,Correct,7,692
7,ZKZYZ,162,2,678,Correct,7,694
7,PVPCP,233,2,722,Correct,7,677
7,KVKVK,113,1,1024,Correct,7,687
7,YXYVY,161,2,1348,Correct,7,930
7,FNFNF,151,1,675,Correct,7,718
7,YWYWY,7,[1][3],[824][1064],Correct,7,658
7,ZYZYZ,13,1,717,Correct,7,658
7,PYPYP,152,1,811,Correct,7,755
7,XRXRX,153,1,721,Correct,7,727
7,PXPXP,154,1,796,Correct,7,689
7,FCFBF,181,2,1444,Correct,7,728
7,FVFVF,15,1,797,Correct,7,884
7,CYCZC,161,,,Incorrect,7,814
7,XZXVX,162,2,968,Correct,7,754
7,PFPFP,151,1,820,Correct,7,938
7,RVRLR,161,2,776,Correct,7,779
7,ZBZBZ,192,1,1048,Correct,7,859
7,VCVNV,16,2,1151,Correct,7,901
7,NWNWN,8,[1][3],[960][1310],Correct,7,659
7,XNXVX,14,2,966,Correct,7,754
7,CXCNC,162,2,1527,Correct,7,764
7,YVYVW,225,1,1005,Correct,7,830
7,VFVFV,113,1,1084,Correct,7,804
7,VFWFV,223,1,1184,Correct,7,928
7,CVCFC,222,,,Incorrect,7,864
7,YBYBY,193,1,763,Correct,7,800
7,PYPYP,15,1,774,Correct,7,737
7,NKNWN,91,[2][3],[910][1088],Correct,7,714
7,VNVNV,13,1,658,Correct,7,798
7,RVRVR,152,1,1046,Correct,7,943
7,FVFBF,184,2,863,Incorrect,7,767
7,VZVKV,16,2,735,Correct,7,926
7,VPVCV,162,2,799,Correct,7,945
7,WYZCZ,231,2,1330,Correct,7,838
7,PFPFP,113,1,1000,Correct,7,660
7,PRPRP,152,,,Incorrect,7,929
7,NWNWN,10,[1][3],[745][1080],Correct,7,655
7,VKVCV,14,2,1188,Correct,7,666
7,WPYPY,221,1,923,Correct,7,749
7,VBVBV,195,1,639,Correct,7,711
7,ZKZYZ,16,2,734,Correct,7,701
7,XYXYX,151,1,888,Correct,7,704
7,FZFXF,161,2,902,Correct,7,908
7,XKXKX,151,1,1252,Correct,7,856
7,XPXPX,152,1,901,Correct,7,863
7,FWFWF,11,[1],[1391],Incorrect,7,796
7,FNFBF,186,2,1209,Correct,7,698
7,ZVZYZ,16,2,1219,Correct,7,665
7,FZFZF,151,1,697,Correct,7,875
7,NPNFW,235,2,1104,Correct,7,866
7,PCPCP,113,1,603,Correct,7,761
7,NKNWN,122,[2][3],[945][1152],Correct,7,687
8,M,5,3,5949,New Target,8,881
8,VYVNV,161,2,829,Correct,8,803
8,KLKNK,162,2,721,Correct,8,729
8,NRNRN,151,1,645,Correct,8,915
8,VNVFV,161,2,914,Correct,8,767
8,XNXNM,225,1,881,Correct,8,767
8,CXCVC,222,2,753,Correct,8,824
8,KRKZK,162,2,1004,Correct,8,713
8,NMNFN,71,,,Incorrect,8,760
8,ZFZFZ,13,1,644,Correct,8,929
8,YPYCY,161,2,745,Correct,8,918
8,KCKCK,151,1,742,Correct,8,695
8,VNVNV,152,1,1342,Correct,8,788
8,LXLXL,153,1,770,Correct,8,699
8,CLCLC,154,1,743,Correct,8,829
8,NYNYN,155,1,845,Correct,8,836
8,LCMYL,233,2,1205,Correct,8,719
8,NCNCN,113,1,714,Correct,8,782
8,ZVZRZ,161,2,662,Correct,8,723
8,ZVZVZ,151,1,1051,Correct,8,918
8,PZPVP,161,2,657,Correct,8,871
8,PWPNP,171,2,1434,Correct,8,785
8,KLKCM,235,2,1002,Correct,8,710
8,XMXMX,8,[1][3],[964][1251],Correct,8,914
8,PRPXP,14,2,1167,Correct,8,853
8,CVCYC,162,2,776,Correct,8,689
8,PXPMP,92,[2][3],[986][1181],Correct,8,839
8,ZCZLZ,14,2,749,Correct,8,879
8,XWXWX,192,,,Incorrect,8,716
8,ZCZLZ,16,2,810,Correct,8,854
8,MNCYC,231,2,1213,Correct,8,838
8,ZXZXZ,113,1,771,Correct,8,666
8,YRYNY,161,2,953,Correct,8,767
8,ZLZPZ,162,2,776,Correct,8,809
8,VZVZV,151,1,817,Correct,8,736
8,MXPXP,221,1,882,Correct,8,941
8,VWVWV,193,1,1104,Correct,8,842
8,PYPYP,16,1,694,Incorrect,8,884
8,XPXVX,162,2,637,Correct,8,888
8,XLXLX,151,1,1122,Correct,8,792
8,YMYMY,10,[1][3],[1014][1271],Correct,8,784
8,VYVYV,13,1,946,Correct,8,943
8,PWPZP,174,2,1028,Correct,8,741
8,PYPKP,16,2,1281,Correct,8,768
8,NPNXN,162,2,1566,Correct,8,926
8,KVKVK,223,1,787,Correct,8,806
8,NVNFN,222,2,1036,Correct,8,722
8,XNXNX,151,1,788,Correct,8,933
8,YZYMY,112,[2][3],[840][1016],Correct,8,817
8,PFPFP,13,1,952,Correct,8,923
8,ZWZWZ,195,1,905,Correct,8,722
8,PCPZP,16,2,1027,Correct,8,939
8,LRLPL,162,2,1168,Correct,8,801
8,CZCZC,151,1,643,Correct,8,899
8,NZNZN,152,1,1195,Correct,8,861
8,CVCXC,161,,,Incorrect,8,771
8,XCXCX,151,1,838,Correct,8,818
8,YWYWY,196,1,727,Correct,8,869
8,NLNLN,15,1,572,Correct,8,842
8,VNVNV,152,1,703,Correct,8,657
8,ZMZMZ,12,[1][3],[588][1163],Correct,8,945
9,S,5,3,1758,New Target,9,840
9,NZNZN,151,1,808,Correct,9,739
9,KVKZK,161,2,1023,Correct,9,650
9,LZLZL,151,1,610,Correct,9,707
9,XLXLX,152,1,621,Correct,9,789
9,ZXZXZ,153,1,705,Correct,9,904
9,KNKZK,161,2,738,Correct,9,942
9,NRNYN,162,2,692,Correct,9,853
9,CLCVC,163,2,762,Correct,9,895
9,ZCZFZ,164,2,1315,Correct,9,722
9,NSNSN,7,[1][3],[973][1388],Correct,9,658
9,VZVZV,13,1,818,Correct,9,861
9,NVNCN,161,2,822,Correct,9,704
9,VMVMV,191,1,1275,Correct,9,788
9,CVCXC,16,2,785,Correct,9,711
9,ZYZRZ,162,2,1268,Correct,9,789
9,XNXZX,163,2,836,Correct,9,857
9,PXPXP,151,1,786,Correct,9,908
9,VCVSV,82,[2][3],[895][1135],Correct,9,821
9,PRPCP,14,2,778,Correct,9,747
9,ZMZMZ,192,1,915,Incorrect,9,731
9,ZFZFZ,15,1,768,Correct,9,860
9,FCFCF,152,1,593,Correct,9,913
9,YLYZY,161,2,876,Correct,9,821
9,KNKVK,162,2,1084,Correct,9,823
9,SFPCP,231,2,1464,Correct,9,750
9,RPRPR,113,1,1169,Correct,9,933
9,XMXMX,193,1,642,Correct,9,827
9,KFKFK,15,1,600,Correct,9,939
9,VSVSV,9,[1][3],[833][1153],Correct,9,864
9,YVSVY,223,1,1045,Correct,9,751
9,VPVPV,113,1,720,Correct,9,730
9,XZXZX,152,1,705,Correct,9,675
9,KZKXK,161,2,1478,Correct,9,820
9,RFRPR,162,2,1412,Correct,9,678
9,NVNVS,225,1,1149,Correct,9,902
9,ZXZXZ,113,1,773,Correct,9,759
9,SRVRV,221,1,1309,Correct,9,691
9,YCYCY,113,1,1406,Correct,9,733
9,KMKZK,174,2,806,Correct,9,892
9,FZSVF,233,2,1198,Correct,9,676
9,VYVYV,113,1,640,Correct,9,881
9,LVLVL,152,1,1031,Correct,9,901
9,YFYFY,153,1,689,Correct,9,815
9,NXNSN,102,[2],[1248],Incorrect,9,776
9,FNFCF,14,2,1100,Correct,9,857
9,KVKVK,151,1,1141,Correct,9,786
9,VZVCV,161,2,1338,Correct,9,906
9,ZYZMZ,185,2,1439,Correct,9,706
9,VXVZV,16,2,789,Correct,9,826
9,VPVPV,151,1,723,Correct,9,663
9,RVRNS,235,2,1241,Correct,9,756
9,YZYZY,113,1,1033,Correct,9,871
9,ZSZSZ,11,[1][3],[786][1057],Correct,9,656
9,FRFRF,13,1,880,Correct,9,725
9,ZMZMZ,196,1,784,Correct,9,858
9,NZNXN,16,2,913,Correct,9,910
9,LSLFL,121,[2][3],[897][1170],Correct,9,915
10,Q,5,3,4177,New Target,10,706
10,ZVZPZ,161,2,740,Correct,10,947
10,RZRZR,151,1,801,Correct,10,668
10,ZFZFZ,152,1,692,Correct,10,762
10,RZRZR,153,1,1484,Correct,10,713
10,PZPXP,161,,,Incorrect,10,763
10,VFQPV,233,2,1588,Correct,10,668
10,ZPZRZ,222,2,1591,Correct,10,927
10,CYCVC,162,2,761,Correct,10,794
10,CPCPC,151,1,966,Correct,10,668
10,YZYQY,72,[2][3],[865][1105],Correct,10,707
10,FVFXF,14,2,1081,Correct,10,892
10,YNYNQ,225,1,852,Correct,10,765
10,ZYZYZ,113,1,709,Correct,10,828
10,FRFSF,181,2,1120,Incorrect,10,677
10,XNXPX,16,2,966,Correct,10,751
10,NXNXN,151,1,1135,Correct,10,854
10,PVPZP,161,2,884,Correct,10,873
10,XVXPX,162,2,1267,Correct,10,775
10,FXFVF,163,2,1276,Correct,10,670
10,NSNKN,172,2,813,Incorrect,10,735
10,VXVNV,16,2,984,Correct,10,665
10,XZXZX,151,1,787,Correct,10,837
10,VQVQV,8,[1][3],[814][1052],Correct,10,851
10,ZYZPZ,14,2,682,Correct,10,800
10,PZPSP,183,2,1201,Correct,10,774
10,YVYVY,15,1,862,Correct,10,683
10,NCNQN,92,[2][3],[938][1176],Correct,10,802
10,FCFVF,14,2,1006,Correct,10,872
10,ZFZFZ,151,1,745,Correct,10,771
10,NSNSN,194,1,708,Correct,10,745
10,YPYFY,16,2,1157,Correct,10,906
10,ZKZKZ,151,1,905,Correct,10,810
10,QZRCR,231,2,1142,Correct,10,815
10,YPYVY,222,2,1220,Correct,10,675
10,ZNZNZ,151,1,949,Correct,10,844
10,VQVQV,10,[1][3],[1036][1245],Correct,10,847
10,RVRZR,14,2,1292,Correct,10,948
10,KRKSK,185,2,1279,Correct,10,741
10,NPNPN,15,1,893,Correct,10,846
10,YPYPY,152,1,642,Correct,10,689
10,VCVYV,161,2,717,Correct,10,840
10,FPFNF,162,2,697,Correct,10,653
10,QVXVX,221,1,1454,Correct,10,876
10,ZVZRZ,222,2,823,Correct,10,924
10,LFLFL,151,1,1292,Correct,10,775
10,VLVLV,152,1,659,Correct,10,657
10,KXQXK,223,1,990,Correct,10,729
10,YQYQY,11,[1][3],[969][1209],Correct,10,716
10,YCYCY,13,1,729,Correct,10,915
10,PZPYP,161,2,927,Correct,10,828
10,LPLFL,162,2,1041,Correct,10,660
10,VSVSV,196,1,894,Correct,10,777
10,VFVYQ,235,2,1310,Correct,10,775
10,CZCXC,222,2,920,Correct,10,927
10,PVPCP,162,2,668,Correct,10,733
10,CXCXC,151,1,748,Correct,10,695
10,NZNZN,152,1,667,Correct,10,884
10,YPYCY,161,2,803,Correct,10,898
10,ZQZQZ,12,[1][3],[910][1151],Correct,10,791
11,T,5,3,3872,New Target,11,908
11,KFKFK,151,1,806,Correct,11,673
11,LZLZL,152,1,661,Correct,11,933
11,PFPVP,161,2,1181,Correct,11,908
11,FRFPF,162,2,702,Correct,11,945
11,FZFZF,151,1,658,Correct,11,922
11,VTVTV,7,[1][3],[861][1067],Correct,11,739
11,KYKCK,14,2,658,Correct,11,711
11,VPVPV,151,1,777,Correct,11,864
11,XQXQX,191,1,690,Correct,11,679
11,PZPYP,16,2,986,Correct,11,823
11,KXKLK,162,2,769,Correct,11,914
11,TCNCN,221,1,692,Correct,11,877
11,PZPNP,222,2,846,Correct,11,833
11,RCRPR,162,2,964,Correct,11,689
11,PZPRT,235,2,1568,Correct,11,937
11,XFXVX,222,2,1049,Correct,11,820
11,LTLVL,81,[2][3],[1016][1222],Correct,11,838
11,ZCZPZ,14,2,1212,Correct,11,863
11,NCNQN,182,2,995,Correct,11,758
11,XZXNX,16,2,1278,Correct,11,822
11,ZPZPZ,151,1,817,Correct,11,865
11,CFCFC,152,1,881,Correct,11,893
11,VXTRV,233,2,1036,Correct,11,925
11,CFCVC,222,2,628,Correct,11,906
11,PYPYP,151,2,625,Incorrect,11,750
11,FQFYF,173,2,826,Correct,11,870
11,CNCFC,16,2,569,Correct,11,931
11,PTPTP,9,[1],[878],Incorrect,11,657
11,ZCZCZ,13,1,1064,Correct,11,907
11,KZKZK,152,1,849,Correct,11,830
11,RLRVR,161,2,692,Correct,11,754
11,ZRZKZ,162,2,1028,Correct,11,943
11,KLKLT,225,1,1231,Correct,11,827
11,ZQZQZ,194,1,606,Correct,11,923
11,VZVZV,15,1,999,Correct,11,915
11,RVRZR,161,2,801,Correct,11,908
11,ZPZCZ,162,2,754,Correct,11,816
11,VYVYV,151,1,661,Correct,11,814
11,RVRVR,152,1,897,Correct,11,732
11,PTPTP,10,[1][3],[868][1524],Correct,11,889
11,PXPXP,13,1,752,Correct,11,866
11,KCKCK,152,1,568,Correct,11,692
11,YVYVY,153,1,609,Correct,11,900
11,CYCYC,154,1,751,Correct,11,768
11,XCXCX,155,1,482,Correct,11,834
11,CYCQC,185,2,787,Correct,11,769
11,KCKNK,16,2,711,Correct,11,804
11,VPVPV,151,1,813,Correct,11,807
11,TXFZF,231,2,944,Correct,11,768
11,NYNVN,222,,,Incorrect,11,879
11,VQVXV,176,2,1048,Correct,11,726
11,ZRZRZ,15,1,817,Correct,11,817
11,VTVZV,111,[2][3],[861][1069],Correct,11,885
11,PXPVP,14,2,767,Correct,11,926
11,FVFVF,151,1,1270,Correct,11,707
11,VRVLV,161,2,1469,Correct,11,760
11,YCYCY,151,1,1258,Correct,11,745
11,XZTZX,223,1,1199,Correct,11,734
11,VTVTV,12,[1][3],[1067][1338],Correct,11,784
12,O,5,3,1773,New Target,12,943
12,VXVLV,161,2,1130,Correct,12,740
12,KVKCK,162,2,642,Correct,12,857
12,VLVLV,151,1,545,Correct,12,670
12,ZCZVZ,161,2,620,Correct,12,888
12,KFKFK,151,1,631,Correct,12,800
12,XKXKX,152,1,703,Correct,12,827
12,YXYXY,153,1,519,Correct,12,796
12,FVFVF,154,1,755,Correct,12,836
12,PVPOP,72,[2][3],[1062][1222],Correct,12,825
12,ZXZYZ,14,2,871,Correct,12,780
12,PXPVP,162,2,717,Correct,12,656
12,ZTZTZ,191,1,721,Correct,12,938
12,CVCKC,16,2,972,Correct,12,669
12,CKCKC,151,1,638,Correct,12,722
12,NPNPN,152,1,590,Correct,12,670
12,ZRZNZ,161,2,717,Correct,12,799
12,OZCZC,221,2,709,Incorrect,12,725
12,LFLFL,113,1,584,Correct,12,915
12,CXCXC,152,1,584,Correct,12,759
12,KPKPK,153,1,672,Correct,12,860
12,FRFKF,161,2,1047,Correct,12,917
12,FOFOF,8,[1],[1091],Incorrect,12,934
12,ZFZFZ,13,1,957,Correct,12,852
12,LKLZO,235,2,1184,Correct,12,676
12,KLKZK,222,2,747,Correct,12,742
12,YXYCY,162,2,614,Correct,12,652
12,LOLOL,9,[1][3],[712][952],Correct,12,743
12,XLXLX,13,1,1064,Correct,12,850
12,XVXVX,152,2,1539,Incorrect,12,825
12,FTFTF,192,1,934,Correct,12,938
12,OXNZN,231,1,1202,Incorrect,12,730
12,CZCZC,113,1,623,Correct,12,656
12,LZLZL,152,1,868,Correct,12,903
12,VLVPV,161,2,898,Correct,12,941
12,VYVYO,225,1,1213,Correct,12,902
12,XKXKX,113,1,736,Correct,12,827
12,RTRTR,193,1,1029,Correct,12,847
12,KVKCK,16,2,880,Correct,12,875
12,ROROR,101,[1][3],[708][916],Correct,12,652
12,PRPRP,13,1,819,Correct,12,764
12,LYLVL,161,2,1174,Correct,12,826
12,PLPLP,151,1,873,Correct,12,896
12,CTCTC,194,1,1205,Correct,12,889
12,XZXYX,16,2,919,Correct,12,914
12,NKNKN,151,1,697,Correct,12,734
12,VLVZV,161,2,807,Correct,12,692
12,YOYOY,11,[1][3],[676][835],Correct,12,691
12,PZOZP,223,1,1157,Correct,12,946
12,FYFYF,113,1,923,Correct,12,799
12,ZXZVZ,161,2,895,Correct,12,687
12,VKVZV,162,2,1008,Correct,12,751
12,ZTZTZ,195,1,731,Correct,12,824
12,LKLZL,16,2,868,Correct,12,869
12,KCKVK,162,2,802,Correct,12,860
12,PXPKP,163,,,Incorrect,12,881
12,KCOZK,233,2,894,Correct,12,739
12,FKFKF,113,1,1057,Correct,12,689
12,CTCRC,176,2,1060,Correct,12,907
12,NXNXN,15,1,1326,Correct,12,838
12,KXKVK,161,2,1097,Correct,12,918
12,CPCOC,122,[2][3],[968][1464],Correct,12,923
13,H,5,3,2202,New Target,13,775
13,VFVNV,151,2,969,Incorrect,13,790
13,YVYVY,152,,,Incorrect,13,658
13,XVXVX,153,1,798,Correct,13,869
13,NRNXN,161,2,1428,Correct,13,829
13,PZPKP,162,2,1517,Correct,13,832
13,HLVLV,221,1,1033,Correct,13,686
13,CXCZC,222,2,1146,Correct,13,715
13,LHLYL,71,[2],[1144],Incorrect,13,676
13,YKYFY,14,2,1318,Correct,13,798
13,YOYRY,171,2,1287,Correct,13,790
13,ZKZYZ,16,2,873,Correct,13,794
13,RZRZR,151,2,1247,Incorrect,13,724
13,NFNYN,161,2,1278,Correct,13,892
13,KVKFK,162,2,1328,Correct,13,882
13,XFXYX,163,2,1362,Correct,13,751
13,LKLVL,164,,,Incorrect,13,710
13,NLNLN,151,1,969,Correct,13,740
13,XCXOX,182,2,1066,Correct,13,773
13,FXFXF,15,1,1287,Correct,13,793
13,VHVHV,8,[1],[1259],Incorrect,13,946
13,PVPVP,13,1,805,Correct,13,710
13,CRCXC,161,2,800,Correct,13,680
13,NXNXN,151,1,832,Correct,13,829
13,XRXRX,152,1,1169,Correct,13,863
13,YFYXY,161,2,1430,Correct,13,727
13,ZOZOZ,193,1,699,Correct,13,939
13,RZRZR,15,,,Incorrect,13,826
13,FKFKF,152,,,Incorrect,13,725
13,PFPFP,153,1,720,Correct,13,798
13,XYXHX,92,[2],[1449],Incorrect,13,908
13,RZRKR,14,2,1056,Correct,13,829
13,FLFLH,225,1,814,Correct,13,663
13,KRKRK,113,1,1189,Correct,13,813
13,ZVZNZ,161,2,915,Correct,13,948
13,ZOZOZ,194,1,1195,Correct,13,661
13,FZFZF,15,1,641,Correct,13,766
13,FHFKF,101,[2],[1031],Incorrect,13,896
13,ZXHLZ,233,2,972,Correct,13,669
13,FKFXF,222,2,1018,Correct,13,814
13,CFCYC,162,2,678,Correct,13,764
13,ZXZVZ,163,2,669,Correct,13,900
13,KCKOK,185,2,929,Correct,13,942
13,ZXZVH,235,2,820,Correct,13,670
13,CKCKC,113,1,739,Correct,13,890
13,ZXZCZ,161,2,858,Correct,13,763
13,YVYVY,151,1,927,Correct,13,766
13,RVHVR,223,1,754,Correct,13,690
13,ZRZRZ,113,1,776,Correct,13,806
13,ZHZHZ,11,[1],[728],Incorrect,13,693
13,VZVZV,13,1,653,Correct,13,930
13,HZVRV,231,2,971,Correct,13,720
13,FVFVF,113,1,925,Correct,13,702
13,RNRCR,161,,,Incorrect,13,944
13,COCOC,196,1,895,Correct,13,722
13,VNVXV,16,2,1139,Correct,13,705
13,XHXHX,12,[1],[937],Incorrect,13,932
14,G,5,3,2566,New Target,14,912
14,FZFZF,151,1,749,Correct,14,750
14,RPRVR,161,2,973,Correct,14,924
14,XCXCX,151,1,648,Correct,14,895
14,YXYXY,152,1,671,Correct,14,862
14,KZKZK,153,1,613,Correct,14,867
14,RYRKR,161,2,946,Correct,14,760
14,FYFNF,162,2,684,Correct,14,940
14,VKVKV,151,1,599,Correct,14,727
14,KPGPK,223,1,938,Correct,14,713
14,YNYNY,113,1,677,Correct,14,788
14,VYVYV,152,1,575,Correct,14,702
14,YCYXY,161,2,626,Correct,14,706
14,LKLGL,72,[2][3],[882][1088],Correct,14,677
14,VXVXV,13,1,640,Correct,14,905
14,KCKVK,161,2,1097,Correct,14,865
14,YKYKY,151,1,669,Correct,14,896
14,RHRXR,171,2,1205,Correct,14,832
14,FVFCF,16,2,717,Correct,14,705
14,YXYGY,82,[2][3],[692][915],Correct,14,795
14,CLCLC,13,1,827,Correct,14,852
14,ZXZCZ,161,2,647,Correct,14,942
14,VLVFV,162,2,803,Correct,14,837
14,CPCPG,225,1,1091,Correct,14,900
14,KHKNK,172,2,703,Correct,14,718
14,ZKZVZ,16,2,674,Correct,14,943
14,YKYLY,162,2,835,Correct,14,680
14,CNCNC,151,1,654,Correct,14,916
14,PGPGP,9,[1][3],[817][1025],Correct,14,668
14,VPVPV,13,1,1039,Correct,14,860
14,FXGRF,233,2,1093,Correct,14,935
14,CYCVC,222,2,895,Correct,14,731
14,FNFNF,151,1,689,Correct,14,713
14,KFKCK,161,2,863,Correct,14,697
14,ZFZHZ,183,2,785,Correct,14,835
14,NXNXN,15,1,724,Correct,14,821
14,FNFNF,152,1,589,Correct,14,691
14,LXLNG,235,2,678,Correct,14,887
14,XKXVX,222,2,1059,Correct,14,722
14,ZHZHZ,194,1,634,Correct,14,930
14,PFPFP,15,1,874,Correct,14,707
14,ZYZYZ,152,1,592,Correct,14,751
14,XPXVX,161,2,736,Correct,14,686
14,YCYCY,151,1,722,Correct,14,840
14,RGRGR,10,[1][3],[1241][1515],Correct,14,819
14,VRVRV,13,1,937,Correct,14,873
14,PKPNP,161,2,1051,Correct,14,699
14,XGXGX,11,[1][3],[886][1094],Correct,14,747
14,GZYVY,231,2,633,Correct,14,908
14,VCVNV,222,2,896,Correct,14,943
14,VHVHV,195,1,1118,Correct,14,844
14,LXLNL,16,2,937,Correct,14,742
14,GKPKP,221,2,839,Incorrect,14,832
14,XRXPX,222,2,1174,Correct,14,858
14,XNXNX,151,1,717,Correct,14,813
14,KHKNK,176,2,1257,Incorrect,14,686
14,RZRZR,15,1,1044,Correct,14,942
14,CGCFC,121,[2],[1212],Incorrect,14,753
15,A,5,3,2021,New Target,15,780
15,XRXFX,161,2,718,Correct,15,844
15,RXRKR,162,2,1160,Correct,15,699
15,YRYRY,151,1,817,Correct,15,805
15,XPXPX,152,1,695,Correct,15,709
15,RPRPR,153,1,996,Correct,15,679
15,NCNCN,154,1,927,Correct,15,877
15,RXRZR,161,2,688,Correct,15,788
15,NANAN,7,[1][3],[861][1054],Correct,15,697
15,KCKYK,14,2,646,Correct,15,702
15,XKXFX,162,2,703,Correct,15,845
15,ZLZKZ,163,2,674,Correct,15,923
15,VCVZV,164,2,639,Correct,15,668
15,XCXVX,165,2,644,Correct,15,919
15,LKLZA,235,2,965,Correct,15,686
15,NCNCN,113,1,772,Correct,15,747
15,YGYGY,191,,,Incorrect,15,671
15,VLVLV,15,1,1053,Correct,15,855
15,XRXRX,152,1,788,Correct,15,812
15,KAKPK,81,[1],[1351],Incorrect,15,774
15,YZAZY,233,1,1042,Incorrect,15,728
15,CFCFC,113,1,586,Correct,15,845
15,VNVLV,161,2,1225,Correct,15,693
15,KPKVK,162,2,971,Correct,15,870
15,NCNRN,163,2,1148,Correct,15,686
15,FGFGF,192,1,802,Correct,15,893
15,RCRYR,16,2,1238,Correct,15,790
15,KRKCK,162,2,987,Correct,15,696
15,CRCRC,151,1,810,Correct,15,748
15,XPAPX,223,1,1042,Correct,15,662
15,LPLXL,222,2,1442,Correct,15,775
15,CGCVC,173,2,1185,Correct,15,696
15,FKFZF,16,2,1495,Correct,15,728
15,CACAC,9,[1][3],[762][1002],Correct,15,868
15,XCXCX,13,1,869,Correct,15,763
15,AXRXR,221,1,1078,Correct,15,890
15,NKNRN,222,2,849,Correct,15,668
15,KNKFK,162,2,660,Correct,15,800
15,KAKAK,10,[1][3],[643][819],Correct,15,923
15,ZCZRZ,14,2,784,Correct,15,936
15,RPRPR,151,1,901,Correct,15,793
15,NCNCN,152,1,720,Correct,15,917
15,RYRGR,184,2,904,Correct,15,796
15,VPVPV,15,1,842,Correct,15,780
15,RCRCA,225,1,781,Correct,15,760
15,KXKPK,222,2,804,Correct,15,685
15,NPNPN,151,1,620,Correct,15,717
15,YCYCY,152,1,794,Correct,15,676
15,PXPAP,112,[2][3],[870][1064],Correct,15,943
15,ZCZNZ,14,2,958,Correct,15,795
15,KYKGK,185,2,1323,Correct,15,804
15,ANLPL,231,2,963,Correct,15,689
15,CXCPC,222,2,620,Correct,15,942
15,YRYRY,151,1,868,Correct,15,833
15,LGLGL,196,1,720,Correct,15,899
15,VYVLV,16,,,Incorrect,15,758
15,KVKVK,151,2,979,Incorrect,15,787
15,RKRKR,152,1,788,Correct,15,750
15,VXVXV,153,1,1219,Correct,15,894
15,XAXAX,12,[1][3],[789][1285],Correct,15,792
