Trial No,Stimulus,Trigger,Response,Response Time(ms),Correct,Block,Fixation Duration
Practice
OT Practice
1,SKSKS,15,1,1260,Correct,0,669
1,DLDUD,16,2,787,Correct,0,795
1,PDPGP,16,2,936,Correct,0,786
1,MWMWM,15,1,778,Correct,0,728
1,FTFTF,15,1,653,Correct,0,904
1,AXAMA,16,2,584,Correct,0,753
1,RYRGR,16,2,603,Correct,0,672
1,DODOD,15,1,515,Correct,0,899
1,QTQAQ,16,2,574,Correct,0,912
1,YEYEY,15,1,462,Correct,0,740
2,GYGDG,16,2,627,Correct,0,669
2,SWSWS,15,1,469,Correct,0,651
2,HLHUH,16,1,547,False,0,849
2,DEDED,15,2,669,False,0,911
2,ZPZOZ,16,2,750,Correct,0,662
2,ATATA,15,1,586,Correct,0,656
2,QOQOQ,15,1,700,Correct,0,726
2,FPFGF,16,2,771,Correct,0,896
2,TRTET,16,2,767,Correct,0,654
2,DQDQD,15,1,858,Correct,0,689
4,PLPLP,15,1,915,Correct,0,747
4,ATAIA,16,2,626,Correct,0,851
4,SKSGS,16,2,605,Correct,0,890
4,ZYZYZ,15,2,665,False,0,826
4,QSQSQ,15,1,589,Correct,0,922
4,TZTDT,16,2,635,Correct,0,784
4,JYJGJ,16,2,924,Correct,0,713
4,DYDYD,15,1,609,Correct,0,741
4,LTLCL,16,2,634,Correct,0,859
4,FQFEF,16,2,616,Correct,0,784
DT Practice
1,TKTKT,15,1,794,Correct,0,853
1,SLSUS,16,2,758,Correct,0,650
1,VZVGV,7,[2][3],[1201][1409],Correct,0,683
1,XWXZX,7,[2][3],[1126][1286],Correct,0,822
1,ATATA,15,1,621,Correct,0,683
1,HXZMH,16,2,1443,Correct,0,940
1,TZTZT,7,[1][3],[755][1075],Correct,0,718
1,UOUOU,15,1,694,Correct,0,881
1,ZTWAW,16,2,873,Correct,0,942
1,RZRER,7,[2][3],[1121][1313],Correct,0,807
2,JYJDJ,16,2,839,Correct,0,899
2,DWDWD,15,1,870,Correct,0,899
2,GNGNG,7,[1][3],[806][950],Correct,0,823
2,NEZEZ,16,2,1109,False,0,708
2,RNROR,7,[2][3],[1015][1191],Correct,0,868
2,QTQNQ,7,[2][3],[932][1140],Correct,0,777
2,HOHON,15,1,1595,Correct,0,947
2,KPKGK,16,2,1383,Correct,0,673
2,DRDED,16,2,871,Correct,0,849
2,LNLNL,7,[1][3],[779][955],Correct,0,736
Trials
1,D,5,3,19516,New Target,1,812
1,ZNZYZ,161,2,848,Correct,1,825
1,FZFZF,151,1,965,Correct,1,818
1,RKRKR,152,1,948,Correct,1,909
1,RXRNR,161,2,605,Correct,1,653
1,CNCFC,162,2,735,Correct,1,799
1,PDPDP,7,[1][3],[750][910],Correct,1,773
1,CPCFC,14,2,614,Correct,1,897
1,VLVNV,162,2,585,Correct,1,753
1,KFKFK,151,1,777,Correct,1,833
1,ZNZNZ,152,1,561,Correct,1,917
1,KCKPD,235,2,496,Correct,1,856
1,ZKZFZ,222,2,505,Correct,1,672
1,NRNZN,162,2,527,Correct,1,780
1,KXKRK,163,2,579,Correct,1,770
1,YPYZY,164,2,516,Correct,1,884
1,FKDKF,223,2,519,Incorrect,1,814
1,RPRPR,113,1,726,Correct,1,921
1,VRVKV,161,2,594,Correct,1,800
1,RFRPR,162,2,675,Correct,1,819
1,KVKVK,151,2,582,Incorrect,1,653
1,YKYVY,161,2,612,Correct,1,867
1,VDVDV,8,[1][3],[454][854],Correct,1,745
1,DVZVZ,221,2,683,Incorrect,1,715
1,YFYFY,113,1,1032,Correct,1,781
1,ZYZYZ,152,1,651,Correct,1,697
1,VLVXV,161,2,597,Correct,1,940
1,DPXZX,231,1,915,Incorrect,1,884
1,RYRYR,113,1,806,Correct,1,902
1,PDPNP,91,[2][3],[834][1042],Correct,1,786
1,KXKXK,13,1,1240,Correct,1,733
1,ZYZYZ,152,1,719,Correct,1,911
1,VKVKV,153,1,820,Correct,1,945
1,YZYZY,154,2,1037,Incorrect,1,732
1,NLNZN,161,2,732,Correct,1,872
1,ZNDYZ,233,2,626,Correct,1,902
1,PCPXP,222,2,621,Correct,1,903
1,ZVZFZ,162,2,606,Correct,1,729
1,RCRZR,163,2,544,Correct,1,774
1,LRLRL,151,1,684,Correct,1,650
1,ZDZDZ,10,[1][3],[679][871],Correct,1,942
1,RNRZR,14,2,899,Correct,1,738
1,CXCYC,162,2,762,Correct,1,796
1,RCRLR,163,2,711,Correct,1,779
1,FRFRF,151,1,762,Correct,1,657
1,XFXFX,152,1,599,Correct,1,720
1,RPRLR,161,2,599,Correct,1,824
1,YXYRY,162,2,635,Correct,1,723
1,FYFYF,151,1,607,Correct,1,738
1,YZYVY,161,2,595,Correct,1,680
1,YKYKY,151,2,547,Incorrect,1,849
1,XRXRX,152,1,660,Correct,1,891
1,XVXZX,161,2,580,Correct,1,813
1,PDPDP,11,[1][3],[575][766],Correct,1,727
1,ZFZFZ,13,1,818,Correct,1,708
1,PXPXP,152,2,551,Incorrect,1,824
1,LYLYL,153,2,677,Incorrect,1,891
1,NKNKD,225,1,1065,Correct,1,675
1,ZNZNZ,113,1,957,Correct,1,655
1,PYPZP,161,2,638,Correct,1,809
1,XPXPX,151,1,625,Correct,1,706
1,VLVLV,152,1,571,Correct,1,931
1,PKPXP,161,2,1003,Correct,1,852
1,FZFZF,151,1,523,Correct,1,877
1,LDLDL,12,[1][3],[793][969],Correct,1,900
2,U,5,3,8251,New Target,2,945
2,ZVZFZ,161,2,712,Correct,2,920
2,FZFZF,151,1,712,Correct,2,708
2,RFRFR,152,1,740,Correct,2,837
2,NZNKN,161,2,853,Correct,2,707
2,FZFNF,162,2,797,Correct,2,756
2,RXRXR,151,2,674,Incorrect,2,914
2,KRKYK,161,2,723,Correct,2,776
2,NZNPN,162,2,570,Correct,2,891
2,XPXPX,151,1,584,Correct,2,893
2,CUCUC,7,[1][3],[756][932],Correct,2,866
2,RFRFR,13,1,962,Correct,2,877
2,VYVXV,161,2,564,Correct,2,806
2,VDVDV,191,1,534,Correct,2,846
2,ZKZRZ,15,2,749,Correct,2,695
2,XCXCX,151,1,883,Correct,2,923
2,CNCUC,82,[2][3],[942][1070],Correct,2,937
2,RCRCR,13,1,782,Correct,2,796
2,ZPZXZ,161,2,666,Correct,2,819
2,FKFYF,162,2,935,Correct,2,842
2,ZFZYZ,163,2,682,Correct,2,873
2,PXPXP,151,1,820,Correct,2,874
2,URCKC,231,2,630,Correct,2,940
2,PCPCP,113,1,518,Correct,2,798
2,XNXNX,152,1,629,Correct,2,925
2,RCRZR,161,2,584,Correct,2,825
2,XVXVX,151,1,529,Correct,2,944
2,NRNRN,152,1,953,Correct,2,754
2,FPFPF,225,1,536,Correct,2,875
2,XVXFX,222,2,634,Correct,2,810
2,PRPRP,151,1,699,Correct,2,783
2,FYFCF,161,2,586,Correct,2,734
2,XUXFX,91,[2][3],[719][895],Correct,2,752
2,CYCVC,14,2,620,Correct,2,732
2,VDVKV,172,2,508,Correct,2,774
2,YCYCY,15,1,804,Correct,2,748
2,NKNLN,161,2,476,Correct,2,866
2,XPUKX,233,2,867,Correct,2,827
2,ZPZPZ,113,1,805,Correct,2,901
2,KRKRK,152,1,749,Correct,2,768
2,XKXKX,153,1,776,Correct,2,815
2,YUYVY,101,[2][3],[767][974],Correct,2,769
2,XKXFU,235,2,833,Correct,2,843
2,NFNFN,113,1,588,Correct,2,741
2,KDKDK,193,1,619,Correct,2,851
2,XYXKX,16,2,1216,Correct,2,706
2,YZUZY,223,1,1174,Correct,2,902
2,KFKVK,222,2,673,Correct,2,836
2,LYLYL,151,1,728,Correct,2,932
2,CXCDC,184,2,682,Incorrect,2,661
2,XZXNX,16,2,1019,Correct,2,726
2,PXPXP,151,1,1083,Correct,2,821
2,ZRZYZ,161,2,519,Correct,2,822
2,PUPYP,111,[2][3],[814][1006],Correct,2,650
2,RNRNR,14,1,780,Correct,2,819
2,KDKDK,195,1,677,Correct,2,875
2,KNKNK,15,1,561,Correct,2,870
2,PRPKP,161,2,819,Correct,2,863
2,UNYNY,221,2,937,Incorrect,2,900
2,NYNYN,113,1,656,Correct,2,745
2,YXYXY,152,2,814,Correct,2,803
2,RDRDR,196,1,711,Correct,2,752
2,FCFCF,15,1,674,Correct,2,785
2,ZKZKZ,152,1,1000,Correct,2,682
2,ZUZUZ,12,[1][3],[1064][1224],Correct,2,859
3,E,5,3,3449,New Target,3,842
3,YZYZY,151,1,832,Correct,3,834
3,VFVNV,161,2,581,Correct,3,905
3,KYKYK,151,1,911,Correct,3,675
3,NKNKN,152,1,809,Correct,3,674
3,XVXNX,161,2,862,Correct,3,926
3,RERFR,71,[2][3],[905][1049],Correct,3,721
3,XNXNX,13,1,556,Correct,3,923
3,NXNXN,152,1,735,Correct,3,798
3,ZLZNZ,161,2,540,Correct,3,734
3,CUCNC,171,2,628,Correct,3,685
3,FYFRF,16,2,549,Correct,3,823
3,ZLZLZ,151,1,479,Correct,3,949
3,YZYZY,152,1,481,Correct,3,919
3,CYCYC,153,1,678,Correct,3,860
3,VUVUV,192,1,723,Correct,3,877
3,PXPRP,16,2,575,Correct,3,768
3,YPYPY,151,1,560,Correct,3,851
3,CECEC,8,[1][3],[754][898],Correct,3,864
3,VNENV,223,2,737,Incorrect,3,740
3,KRKFK,222,2,807,Correct,3,900
3,XLXLE,225,1,660,Correct,3,708
3,RFRUR,183,2,1268,Correct,3,766
3,XRXLX,16,2,736,Correct,3,717
3,NZNPN,162,2,624,Correct,3,658
3,XZXZX,151,1,642,Correct,3,718
3,FZFZF,152,1,877,Correct,3,937
3,PFPFP,153,2,1171,Incorrect,3,787
3,YZYXY,161,2,815,Correct,3,763
3,KEKEK,9,[1][3],[641][944],Correct,3,671
3,CXCPC,14,2,811,Correct,3,846
3,VXVXV,151,1,761,Correct,3,675
3,NUNZN,174,2,660,Correct,3,789
3,RKRVR,16,2,562,Correct,3,790
3,XRXRX,151,1,497,Correct,3,892
3,ERNFN,231,2,614,Incorrect,3,801
3,YRYNY,222,2,633,Correct,3,770
3,PZPEP,102,[2][3],[907][1083],Correct,3,754
3,ZYZXZ,14,2,740,Correct,3,763
3,RZRVR,162,2,450,Correct,3,707
3,XRXRX,151,1,580,Correct,3,930
3,KUKFK,175,2,535,Correct,3,746
3,RKRKR,15,2,711,Incorrect,3,853
3,ZFZFZ,152,1,600,Correct,3,686
3,YZYVY,161,2,563,Correct,3,899
3,XPXNX,162,2,610,Correct,3,923
3,YRYRY,151,1,577,Correct,3,863
3,EPVPV,221,1,918,Correct,3,682
3,CRCEC,112,[2][3],[861][1037],Correct,3,927
3,RFRCR,14,2,626,Correct,3,805
3,CPCVC,162,2,706,Correct,3,850
3,RXRCR,163,2,497,Correct,3,754
3,VNVLV,164,2,562,Correct,3,918
3,ZXZXZ,151,1,817,Correct,3,898
3,ZCZCZ,152,1,679,Correct,3,879
3,PYPUP,186,2,587,Correct,3,710
3,YKYPY,16,2,663,Correct,3,921
3,YREXY,233,2,885,Correct,3,793
3,ZKZKZ,113,1,478,Correct,3,725
3,XLXNX,161,2,560,Correct,3,922
3,KFKRE,235,2,703,Correct,3,934
3,RXRLR,222,2,779,Correct,3,807
3,RERXR,121,[2][3],[1129][1337],Correct,3,911
4,J,5,3,7552,New Target,4,686
4,CYCVC,161,1,804,Incorrect,4,746
4,RXRCR,162,2,715,Correct,4,845
4,FPFVF,163,2,867,Correct,4,936
4,LZLZL,151,1,789,Correct,4,926
4,PLPLP,152,1,570,Correct,4,873
4,NPNPN,153,1,812,Correct,4,846
4,XZXZX,161,1,570,Incorrect,4,675
4,CNCKC,162,1,642,Incorrect,4,689
4,PCPYJ,235,2,1552,Correct,4,818
4,VYVYV,113,1,609,Correct,4,650
4,RLRLR,152,1,622,Correct,4,909
4,CJCJC,7,[1][3],[749][893],Correct,4,822
4,ZLZLZ,13,1,683,Correct,4,877
4,FZFZF,152,1,617,Correct,4,827
4,CFCFC,153,1,556,Correct,4,667
4,PZPZP,154,1,547,Correct,4,698
4,XEXEX,191,1,523,Correct,4,674
4,NVNFN,16,2,959,Correct,4,750
4,KYKYK,151,1,854,Correct,4,710
4,ZNZVZ,161,2,746,Correct,4,919
4,YVJXY,233,2,1173,Correct,4,767
4,XFXFX,113,1,658,Correct,4,723
4,XNXNX,152,1,561,Correct,4,839
4,FJFKF,81,[2][3],[744][888],Correct,4,725
4,CZCYC,14,2,740,Correct,4,804
4,ZXZCZ,162,2,705,Correct,4,763
4,RYRYJ,225,2,865,Incorrect,4,759
4,FPFZF,222,2,677,Correct,4,857
4,XRXRX,151,1,738,Correct,4,846
4,YPYEY,182,2,733,Correct,4,769
4,XRXRX,15,1,504,Correct,4,790
4,XZXPX,161,2,770,Correct,4,706
4,CJCJC,9,[1][3],[636][812],Correct,4,948
4,ZXZVZ,14,2,910,Correct,4,683
4,VKVKV,151,1,757,Correct,4,755
4,VEVNV,173,2,512,Correct,4,741
4,ZKZVZ,16,2,611,Correct,4,809
4,XVXJX,102,[2][3],[795][955],Correct,4,685
4,RXRVR,14,2,653,Correct,4,914
4,LRLRL,151,1,481,Correct,4,687
4,YNJNY,223,2,534,Incorrect,4,795
4,NPNJN,222,2,1237,Correct,4,884
4,ZEZEZ,194,1,625,Correct,4,720
4,ZNZNZ,15,2,512,Incorrect,4,857
4,YZYZY,152,1,1474,Correct,4,906
4,XYXYX,153,1,484,Correct,4,750
4,ZXZXZ,221,1,534,Correct,4,850
4,LYLZL,222,2,792,Correct,4,830
4,CYCNC,162,2,800,Correct,4,901
4,XEXEX,195,1,566,Correct,4,937
4,CVCXC,16,2,556,Correct,4,668
4,ZPZXZ,162,2,780,Correct,4,904
4,FZFZF,151,1,539,Correct,4,720
4,RXRJR,112,[2][3],[824][968],Correct,4,929
4,PRPFP,14,2,759,Correct,4,784
4,PKPEP,186,2,686,Correct,4,821
4,XZXPX,16,2,589,Correct,4,765
4,JCZVZ,231,2,656,Correct,4,801
4,RXRLR,222,2,546,Correct,4,777
4,VZVZV,151,1,613,Correct,4,772
4,XJXJX,12,[1][3],[1087][1503],Correct,4,725
5,I,5,3,451,New Target,5,897
5,PCPCP,151,1,589,Correct,5,877
5,XYXYX,152,1,516,Correct,5,712
5,VXVXV,153,1,775,Correct,5,799
5,XVXVX,154,1,664,Correct,5,659
5,ZRZXZ,161,2,678,Correct,5,788
5,FPFZF,162,1,602,Incorrect,5,674
5,ZYZYZ,151,1,797,Correct,5,725
5,RVRZR,161,2,689,Correct,5,918
5,CICIC,7,[1][3],[783][894],Correct,5,843
5,XLXLX,13,1,663,Correct,5,937
5,YVYVY,152,1,610,Correct,5,896
5,CJCJC,191,,,Incorrect,5,710
5,FNFCF,16,2,709,Correct,5,763
5,PVPRP,162,2,671,Correct,5,859
5,FZFZF,151,1,619,Correct,5,880
5,NVIVN,223,1,1000,Correct,5,924
5,CVCIC,82,[2][3],[671][799],Correct,5,877
5,ZXZXZ,13,2,685,Incorrect,5,659
5,FCFZF,161,2,754,Correct,5,708
5,IXRXR,221,1,840,Correct,5,945
5,ZPZNZ,222,2,687,Correct,5,812
5,VZVZV,151,1,541,Correct,5,835
5,YRYNY,161,2,725,Correct,5,709
5,VNVPV,162,2,662,Correct,5,728
5,RVRJR,182,2,865,Correct,5,866
5,VRVRV,15,1,473,Correct,5,795
5,VIVIV,9,[1][3],[475][747],Correct,5,893
5,CXCVC,14,2,1025,Correct,5,723
5,PZPZP,151,1,582,Correct,5,743
5,IXVKV,231,1,755,Incorrect,5,928
5,YJYCY,173,2,1018,Incorrect,5,942
5,VYVYV,15,1,503,Correct,5,856
5,YVYVY,152,1,747,Correct,5,803
5,NVNVN,153,1,584,Correct,5,785
5,XYXVX,161,2,1110,Correct,5,912
5,NJNCN,174,2,864,Correct,5,879
5,NXNYN,16,2,820,Correct,5,833
5,VXVCV,162,2,768,Correct,5,696
5,ZKZKZ,151,1,766,Correct,5,735
5,XRXYX,161,2,637,Correct,5,664
5,ZCZXZ,162,2,602,Correct,5,873
5,KVKYI,235,2,686,Correct,5,728
5,CNCNC,113,1,652,Correct,5,854
5,RIRIR,10,[1][3],[572][732],Correct,5,907
5,VYVXV,14,2,507,Correct,5,875
5,FXIRF,233,2,541,Correct,5,849
5,PFPFP,113,1,576,Correct,5,815
5,VPVPV,152,1,527,Correct,5,898
5,ZJZJZ,195,1,470,Correct,5,701
5,ZVZNZ,16,2,642,Correct,5,688
5,YVYXY,162,2,501,Correct,5,650
5,PRPRP,151,1,620,Correct,5,712
5,YPYPY,152,1,412,Correct,5,841
5,ZIZPZ,111,[2][3],[840][968],Correct,5,847
5,NKNXN,14,2,559,Correct,5,759
5,RZRXR,162,2,519,Correct,5,676
5,RXRXR,151,2,539,Incorrect,5,756
5,ZJZJZ,196,1,579,Correct,5,728
5,CVCVI,225,1,657,Incorrect,5,923
5,NKNKN,113,1,1101,Correct,5,864
5,NRNZN,161,2,694,Correct,5,916
5,CNCNC,151,1,1504,Correct,5,920
5,RFRIR,122,[2][3],[1076][1172],Correct,5,950
6,B,5,3,4493,New Target,6,728
6,YKYZY,161,2,770,Correct,6,771
6,VCVRV,162,2,687,Correct,6,707
6,XVXVX,151,1,638,Correct,6,761
6,KZKRK,161,2,587,Correct,6,837
6,ZVZXZ,162,2,649,Correct,6,921
6,RCRNR,163,2,524,Correct,6,656
6,CXCRC,164,2,591,Correct,6,826
6,VNBCV,233,2,865,Correct,6,809
6,CXCVC,222,2,665,Correct,6,778
6,RFRFR,151,1,621,Correct,6,684
6,XPXRX,161,1,479,Incorrect,6,798
6,RYRBR,72,[2][1],[566][1254],Incorrect,6,940
6,ZKZKZ,13,2,803,Incorrect,6,721
6,FIFRF,171,2,705,Correct,6,661
6,VZVLV,16,2,1102,Correct,6,804
6,RPRVR,162,2,812,Correct,6,829
6,YBYBY,8,[1][3],[626][786],Correct,6,820
6,PYPVP,14,2,706,Correct,6,908
6,NININ,192,2,562,Incorrect,6,752
6,RNRNR,15,1,625,Correct,6,934
6,NXNVN,161,2,1045,Correct,6,659
6,RNRNR,151,1,517,Correct,6,859
6,FRFVF,161,2,616,Correct,6,817
6,YVYFB,235,2,564,Incorrect,6,875
6,ZRZXZ,222,2,599,Correct,6,774
6,VNVIV,193,2,698,Incorrect,6,782
6,PXPNP,16,2,641,Correct,6,948
6,ZXZPZ,162,2,620,Correct,6,943
6,VBVBV,9,[1][3],[592][768],Correct,6,716
6,CXCXC,13,1,740,Correct,6,720
6,PCPFP,161,2,590,Correct,6,827
6,KNKNK,151,1,572,Correct,6,853
6,XIXIX,194,1,496,Correct,6,734
6,CYCYC,15,1,561,Correct,6,859
6,FVFYF,161,2,770,Correct,6,836
6,YNYRY,162,2,681,Correct,6,843
6,BVPXP,231,2,587,Correct,6,653
6,NXNXN,113,1,667,Correct,6,800
6,FRFRF,152,1,532,Correct,6,922
6,YVYVY,153,1,482,Correct,6,914
6,ZKZCZ,161,2,503,Correct,6,815
6,VIVXV,175,2,511,Correct,6,657
6,PRBRP,223,1,722,Correct,6,871
6,YZYBY,102,[2],[661],Incorrect,6,868
6,CXCVC,14,,,Incorrect,6,786
6,FYFYF,151,1,589,Correct,6,734
6,VKVXV,161,2,935,Correct,6,942
6,ZBZBZ,11,[1][3],[647][807],Correct,6,732
6,FPFNF,14,2,593,Correct,6,789
6,CXCXC,151,2,594,Incorrect,6,862
6,YCYCY,152,1,512,Correct,6,875
6,FPFPF,153,1,1144,Correct,6,707
6,CVCVB,225,1,998,Correct,6,819
6,ZCZCZ,113,1,677,Correct,6,912
6,CZCNC,161,1,725,Incorrect,6,795
6,KIKFK,176,2,511,Correct,6,870
6,PXPXP,15,1,630,Correct,6,699
6,RYRYR,152,1,598,Correct,6,784
6,ZRZCZ,161,2,564,Correct,6,911
6,RVRVR,151,1,498,Correct,6,912
6,XYXNX,161,2,599,Correct,6,788
6,BVKVK,221,2,631,Incorrect,6,782
6,CBCBC,12,[1][3],[509][780],Correct,6,788
7,W,5,3,10694,New Target,7,925
7,RKRKR,151,1,1182,Correct,7,663
7,CVCRC,161,2,585,Correct,7,780
7,PKPKP,151,1,586,Correct,7,797
7,FPFPF,152,1,487,Correct,7,919
7,VRVPV,161,1,443,Incorrect,7,871
7,ZKZYZ,162,2,639,Correct,7,844
7,PVPCP,233,2,575,Correct,7,737
7,KVKVK,113,1,625,Correct,7,830
7,YXYVY,161,2,491,Correct,7,914
7,FNFNF,151,1,546,Correct,7,716
7,YWYWY,7,[1][3],[536][664],Correct,7,884
7,ZYZYZ,13,1,668,Correct,7,840
7,PYPYP,152,1,601,Correct,7,856
7,XRXRX,153,1,725,Correct,7,946
7,PXPXP,154,1,615,Correct,7,661
7,FCFBF,181,2,567,Correct,7,809
7,FVFVF,15,1,645,Correct,7,943
7,CYCZC,161,2,550,Correct,7,724
7,XZXVX,162,2,709,Correct,7,870
7,PFPFP,151,1,640,Correct,7,859
7,RVRLR,161,2,498,Correct,7,705
7,ZBZBZ,192,1,568,Correct,7,765
7,VCVNV,16,2,536,Correct,7,874
7,NWNWN,8,[1][3],[571][747],Correct,7,829
7,XNXVX,14,2,547,Correct,7,694
7,CXCNC,162,2,666,Correct,7,686
7,YVYVW,225,2,717,Incorrect,7,741
7,VFVFV,113,1,1066,Correct,7,802
7,VFWFV,223,1,940,Correct,7,732
7,CVCFC,222,2,625,Correct,7,826
7,YBYBY,193,1,513,Correct,7,783
7,PYPYP,15,1,565,Correct,7,810
7,NKNWN,91,[2][3],[769][961],Correct,7,804
7,VNVNV,13,2,739,Incorrect,7,880
7,RVRVR,152,1,623,Correct,7,822
7,FVFBF,184,2,698,Incorrect,7,949
7,VZVKV,16,2,680,Correct,7,858
7,VPVCV,162,2,770,Correct,7,825
7,WYZCZ,231,2,633,Correct,7,920
7,PFPFP,113,1,660,Correct,7,838
7,PRPRP,152,1,712,Correct,7,674
7,NWNWN,10,[1][3],[919][1159],Correct,7,942
7,VKVCV,14,2,635,Correct,7,692
7,WPYPY,221,1,518,Correct,7,873
7,VBVBV,195,1,813,Correct,7,706
7,ZKZYZ,16,2,634,Correct,7,677
7,XYXYX,151,1,589,Correct,7,665
7,FZFXF,161,2,544,Correct,7,829
7,XKXKX,151,1,641,Correct,7,824
7,XPXPX,152,1,583,Correct,7,665
7,FWFWF,11,[1][3],[861][1005],Correct,7,752
7,FNFBF,186,2,1055,Correct,7,914
7,ZVZYZ,16,2,1056,Correct,7,789
7,FZFZF,151,1,640,Correct,7,810
7,NPNFW,235,2,993,Correct,7,719
7,PCPCP,113,1,577,Correct,7,895
7,NKNWN,122,[2][3],[512][1072],Correct,7,653
8,M,5,3,2860,New Target,8,845
8,VYVNV,161,2,593,Correct,8,928
8,KLKNK,162,2,724,Correct,8,683
8,NRNRN,151,1,641,Correct,8,843
8,VNVFV,161,2,620,Correct,8,939
8,XNXNM,225,2,766,Incorrect,8,746
8,CXCVC,222,2,712,Correct,8,771
8,KRKZK,162,2,793,Correct,8,721
8,NMNFN,71,[2][3],[881][1073],Correct,8,810
8,ZFZFZ,13,1,634,Correct,8,844
8,YPYCY,161,2,602,Correct,8,834
8,KCKCK,151,1,570,Correct,8,844
8,VNVNV,152,1,664,Correct,8,898
8,LXLXL,153,1,821,Correct,8,886
8,CLCLC,154,1,543,Correct,8,718
8,NYNYN,155,1,613,Correct,8,702
8,LCMYL,233,2,607,Correct,8,945
8,NCNCN,113,1,1364,Correct,8,656
8,ZVZRZ,161,2,617,Correct,8,826
8,ZVZVZ,151,1,510,Correct,8,708
8,PZPVP,161,2,686,Correct,8,925
8,PWPNP,171,2,880,Correct,8,723
8,KLKCM,235,2,1256,Correct,8,709
8,XMXMX,8,[1][3],[566][726],Correct,8,821
8,PRPXP,14,2,576,Correct,8,918
8,CVCYC,162,2,845,Correct,8,947
8,PXPMP,92,[2][3],[801][944],Correct,8,845
8,ZCZLZ,14,2,688,Correct,8,768
8,XWXWX,192,2,953,Incorrect,8,934
8,ZCZLZ,16,2,833,Correct,8,661
8,MNCYC,231,2,915,Correct,8,917
8,ZXZXZ,113,1,635,Correct,8,706
8,YRYNY,161,2,538,Correct,8,855
8,ZLZPZ,162,2,500,Correct,8,655
8,VZVZV,151,1,507,Correct,8,748
8,MXPXP,221,2,556,Incorrect,8,906
8,VWVWV,193,1,653,Correct,8,819
8,PYPYP,16,1,681,Incorrect,8,827
8,XPXVX,162,2,707,Correct,8,904
8,XLXLX,151,1,557,Correct,8,859
8,YMYMY,10,[1][3],[560][704],Correct,8,943
8,VYVYV,13,1,652,Correct,8,905
8,PWPZP,174,2,588,Correct,8,760
8,PYPKP,16,2,616,Correct,8,887
8,NPNXN,162,2,643,Correct,8,903
8,KVKVK,223,1,786,Correct,8,792
8,NVNFN,222,2,700,Correct,8,802
8,XNXNX,151,1,659,Correct,8,918
8,YZYMY,112,[2][3],[541][637],Correct,8,738
8,PFPFP,13,1,509,Correct,8,808
8,ZWZWZ,195,1,646,Correct,8,702
8,PCPZP,16,2,450,Correct,8,930
8,LRLPL,162,2,773,Correct,8,895
8,CZCZC,151,1,563,Correct,8,703
8,NZNZN,152,1,470,Correct,8,801
8,CVCXC,161,2,536,Correct,8,857
8,XCXCX,151,1,480,Correct,8,739
8,YWYWY,196,1,509,Correct,8,688
8,NLNLN,15,1,511,Correct,8,847
8,VNVNV,152,1,452,Correct,8,778
8,ZMZMZ,12,[1][3],[503][759],Correct,8,897
9,S,5,3,4395,New Target,9,671
9,NZNZN,151,1,656,Correct,9,800
9,KVKZK,161,2,539,Correct,9,926
9,LZLZL,151,1,586,Correct,9,864
9,XLXLX,152,2,443,Incorrect,9,829
9,ZXZXZ,153,2,597,Incorrect,9,733
9,KNKZK,161,2,612,Correct,9,868
9,NRNYN,162,2,609,Correct,9,868
9,CLCVC,163,2,550,Correct,9,670
9,ZCZFZ,164,2,568,Correct,9,795
9,NSNSN,7,[1][3],[641][769],Correct,9,916
9,VZVZV,13,1,700,Correct,9,741
9,NVNCN,161,2,575,Correct,9,658
9,VMVMV,191,2,562,Incorrect,9,818
9,CVCXC,16,2,626,Correct,9,876
9,ZYZRZ,162,2,736,Correct,9,842
9,XNXZX,163,2,620,Correct,9,819
9,PXPXP,151,1,576,Correct,9,671
9,VCVSV,82,[2][3],[726][822],Correct,9,685
9,PRPCP,14,2,605,Correct,9,651
9,ZMZMZ,192,1,508,Incorrect,9,821
9,ZFZFZ,15,1,607,Correct,9,815
9,FCFCF,152,1,620,Correct,9,901
9,YLYZY,161,2,640,Correct,9,727
9,KNKVK,162,2,685,Correct,9,883
9,SFPCP,231,2,806,Correct,9,869
9,RPRPR,113,1,876,Correct,9,828
9,XMXMX,193,1,707,Correct,9,827
9,KFKFK,15,1,563,Correct,9,759
9,VSVSV,9,[1][3],[666][794],Correct,9,662
9,YVSVY,223,2,1046,Incorrect,9,921
9,VPVPV,113,1,808,Correct,9,737
9,XZXZX,152,1,581,Correct,9,677
9,KZKXK,161,2,636,Correct,9,693
9,RFRPR,162,2,863,Correct,9,767
9,NVNVS,225,1,998,Correct,9,766
9,ZXZXZ,113,1,594,Correct,9,908
9,SRVRV,221,1,899,Correct,9,811
9,YCYCY,113,1,551,Correct,9,795
9,KMKZK,174,2,1155,Correct,9,860
9,FZSVF,233,2,894,Correct,9,714
9,VYVYV,113,1,560,Correct,9,892
9,LVLVL,152,1,521,Correct,9,836
9,YFYFY,153,1,654,Correct,9,721
9,NXNSN,102,[2][3],[592][754],Correct,9,791
9,FNFCF,14,2,596,Correct,9,938
9,KVKVK,151,1,676,Correct,9,716
9,VZVCV,161,2,618,Correct,9,789
9,ZYZMZ,185,2,519,Correct,9,771
9,VXVZV,16,2,552,Correct,9,774
9,VPVPV,151,1,487,Correct,9,738
9,RVRNS,235,2,506,Correct,9,720
9,YZYZY,113,1,535,Correct,9,863
9,ZSZSZ,11,[1][3],[578][691],Correct,9,650
9,FRFRF,13,1,527,Correct,9,714
9,ZMZMZ,196,1,542,Correct,9,817
9,NZNXN,16,2,474,Correct,9,788
9,LSLFL,121,[2][3],[611][1220],Correct,9,696
10,Q,5,3,1312,New Target,10,784
10,ZVZPZ,161,2,498,Correct,10,874
10,RZRZR,151,1,530,Correct,10,740
10,ZFZFZ,152,1,685,Correct,10,883
10,RZRZR,153,1,674,Correct,10,886
10,PZPXP,161,2,620,Correct,10,790
10,VFQPV,233,2,1196,Correct,10,675
10,ZPZRZ,222,2,861,Correct,10,894
10,CYCVC,162,2,766,Correct,10,853
10,CPCPC,151,1,520,Correct,10,716
10,YZYQY,72,[2][3],[690][802],Correct,10,790
10,FVFXF,14,2,567,Correct,10,737
10,YNYNQ,225,2,734,Incorrect,10,666
10,ZYZYZ,113,1,639,Correct,10,907
10,FRFSF,181,2,780,Incorrect,10,844
10,XNXPX,16,2,737,Correct,10,839
10,NXNXN,151,1,668,Correct,10,671
10,PVPZP,161,2,613,Correct,10,827
10,XVXPX,162,2,557,Correct,10,900
10,FXFVF,163,2,459,Correct,10,758
10,NSNKN,172,2,489,Incorrect,10,766
10,VXVNV,16,2,535,Correct,10,939
10,XZXZX,151,1,511,Correct,10,876
10,VQVQV,8,[1][3],[623][736],Correct,10,761
10,ZYZPZ,14,1,614,Incorrect,10,677
10,PZPSP,183,2,819,Correct,10,783
10,YVYVY,15,1,660,Correct,10,817
10,NCNQN,92,[2][3],[783][896],Correct,10,681
10,FCFVF,14,1,566,Incorrect,10,923
10,ZFZFZ,151,1,576,Correct,10,915
10,NSNSN,194,1,647,Correct,10,899
10,YPYFY,16,2,927,Correct,10,832
10,ZKZKZ,151,1,607,Correct,10,841
10,QZRCR,231,2,833,Correct,10,662
10,YPYVY,222,2,552,Correct,10,658
10,ZNZNZ,151,1,565,Correct,10,875
10,VQVQV,10,[1][3],[573][702],Correct,10,821
10,RVRZR,14,2,483,Correct,10,729
10,KRKSK,185,2,564,Correct,10,683
10,NPNPN,15,1,789,Correct,10,845
10,YPYPY,152,1,510,Correct,10,675
10,VCVYV,161,2,843,Correct,10,869
10,FPFNF,162,2,679,Correct,10,902
10,QVXVX,221,2,701,Incorrect,10,885
10,ZVZRZ,222,2,701,Correct,10,668
10,LFLFL,151,1,615,Correct,10,740
10,VLVLV,152,1,551,Correct,10,740
10,KXQXK,223,2,630,Incorrect,10,653
10,YQYQY,11,[1][3],[636][765],Correct,10,723
10,YCYCY,13,1,711,Correct,10,745
10,PZPYP,161,2,656,Correct,10,828
10,LPLFL,162,1,486,Incorrect,10,822
10,VSVSV,196,1,805,Correct,10,873
10,VFVYQ,235,2,884,Correct,10,912
10,CZCXC,222,2,919,Correct,10,711
10,PVPCP,162,2,1082,Correct,10,729
10,CXCXC,151,1,898,Correct,10,812
10,NZNZN,152,1,706,Correct,10,765
10,YPYCY,161,2,592,Correct,10,708
10,ZQZQZ,12,[1][3],[540][701],Correct,10,744
11,T,5,3,1176,New Target,11,877
11,KFKFK,151,1,969,Correct,11,816
11,LZLZL,152,1,582,Correct,11,842
11,PFPVP,161,2,660,Correct,11,696
11,FRFPF,162,2,659,Correct,11,743
11,FZFZF,151,1,617,Correct,11,873
11,VTVTV,7,[1],[1235],Incorrect,11,828
11,KYKCK,14,2,612,Correct,11,781
11,VPVPV,151,1,565,Correct,11,699
11,XQXQX,191,1,742,Correct,11,660
11,PZPYP,16,2,668,Correct,11,834
11,KXKLK,162,2,646,Correct,11,660
11,TCNCN,221,1,757,Correct,11,711
11,PZPNP,222,2,526,Correct,11,807
11,RCRPR,162,2,838,Correct,11,920
11,PZPRT,235,2,844,Correct,11,680
11,XFXVX,222,2,503,Correct,11,655
11,LTLVL,81,[2],[752],Incorrect,11,875
11,ZCZPZ,14,2,662,Correct,11,744
11,NCNQN,182,2,738,Correct,11,680
11,XZXNX,16,2,539,Correct,11,763
11,ZPZPZ,151,1,671,Correct,11,657
11,CFCFC,152,1,620,Correct,11,678
11,VXTRV,233,2,693,Correct,11,937
11,CFCVC,222,2,624,Correct,11,700
11,PYPYP,151,1,511,Correct,11,767
11,FQFYF,173,2,523,Correct,11,836
11,CNCFC,16,2,586,Correct,11,836
11,PTPTP,9,[1][3],[565][1078],Correct,11,905
11,ZCZCZ,13,1,563,Correct,11,849
11,KZKZK,152,1,524,Correct,11,912
11,RLRVR,161,2,684,Correct,11,693
11,ZRZKZ,162,2,634,Correct,11,680
11,KLKLT,225,1,752,Correct,11,877
11,ZQZQZ,194,1,599,Correct,11,820
11,VZVZV,15,1,635,Correct,11,707
11,RVRZR,161,2,688,Correct,11,803
11,ZPZCZ,162,2,551,Correct,11,935
11,VYVYV,151,1,564,Correct,11,840
11,RVRVR,152,1,514,Correct,11,748
11,PTPTP,10,[1][3],[540][636],Correct,11,744
11,PXPXP,13,1,566,Correct,11,818
11,KCKCK,152,1,467,Correct,11,879
11,YVYVY,153,1,455,Correct,11,684
11,CYCYC,154,1,542,Correct,11,736
11,XCXCX,155,1,573,Correct,11,752
11,CYCQC,185,2,750,Correct,11,803
11,KCKNK,16,2,878,Correct,11,873
11,VPVPV,151,1,539,Correct,11,914
11,TXFZF,231,2,548,Correct,11,929
11,NYNVN,222,2,743,Correct,11,775
11,VQVXV,176,2,531,Correct,11,723
11,ZRZRZ,15,2,659,Incorrect,11,758
11,VTVZV,111,[1][2],[643][1538],Incorrect,11,774
11,PXPVP,14,2,580,Correct,11,670
11,FVFVF,151,1,655,Correct,11,933
11,VRVLV,161,2,512,Correct,11,928
11,YCYCY,151,1,629,Correct,11,656
11,XZTZX,223,2,638,Incorrect,11,849
11,VTVTV,12,[1][3],[511][736],Correct,11,761
12,O,5,3,259,New Target,12,950
12,VXVLV,161,2,744,Correct,12,838
12,KVKCK,162,2,658,Correct,12,752
12,VLVLV,151,1,693,Correct,12,893
12,ZCZVZ,161,2,586,Correct,12,815
12,KFKFK,151,1,517,Correct,12,827
12,XKXKX,152,1,969,Correct,12,742
12,YXYXY,153,1,792,Correct,12,823
12,FVFVF,154,1,491,Correct,12,791
12,PVPOP,72,[2][3],[706][818],Correct,12,652
12,ZXZYZ,14,2,589,Correct,12,815
12,PXPVP,162,2,526,Correct,12,707
12,ZTZTZ,191,1,578,Correct,12,734
12,CVCKC,16,2,828,Correct,12,783
12,CKCKC,151,1,640,Correct,12,835
12,NPNPN,152,1,699,Correct,12,700
12,ZRZNZ,161,2,513,Correct,12,943
12,OZCZC,221,1,864,Correct,12,710
12,LFLFL,113,1,512,Correct,12,871
12,CXCXC,152,1,703,Correct,12,821
12,KPKPK,153,1,426,Correct,12,669
12,FRFKF,161,2,594,Correct,12,726
12,FOFOF,8,[1][3],[1165][1324],Correct,12,868
12,ZFZFZ,13,1,568,Correct,12,733
12,LKLZO,235,2,848,Correct,12,930
12,KLKZK,222,2,683,Correct,12,939
12,YXYCY,162,2,612,Correct,12,790
12,LOLOL,9,[2],[566],Incorrect,12,811
12,XLXLX,13,1,1312,Correct,12,732
12,XVXVX,152,,,Incorrect,12,763
12,FTFTF,192,1,837,Correct,12,892
12,OXNZN,231,2,863,Correct,12,662
12,CZCZC,113,1,611,Correct,12,666
12,LZLZL,152,1,574,Correct,12,850
12,VLVPV,161,2,636,Correct,12,802
12,VYVYO,225,1,803,Correct,12,867
12,XKXKX,113,1,808,Correct,12,856
12,RTRTR,193,1,665,Correct,12,888
12,KVKCK,16,2,520,Correct,12,665
12,ROROR,101,[1][3],[543][703],Correct,12,703
12,PRPRP,13,1,652,Correct,12,747
12,LYLVL,161,2,682,Correct,12,683
12,PLPLP,151,1,487,Correct,12,723
12,CTCTC,194,1,551,Correct,12,772
12,XZXYX,16,2,555,Correct,12,682
12,NKNKN,151,1,742,Correct,12,788
12,VLVZV,161,2,531,Correct,12,713
12,YOYOY,11,[1][3],[666][825],Correct,12,658
12,PZOZP,223,2,880,Incorrect,12,917
12,FYFYF,113,1,483,Correct,12,786
12,ZXZVZ,161,2,588,Correct,12,942
12,VKVZV,162,2,643,Correct,12,921
12,ZTZTZ,195,1,495,Correct,12,652
12,LKLZL,16,2,509,Correct,12,867
12,KCKVK,162,2,527,Correct,12,682
12,PXPKP,163,2,544,Correct,12,787
12,KCOZK,233,2,648,Correct,12,921
12,FKFKF,113,1,673,Correct,12,841
12,CTCRC,176,,,Incorrect,12,695
12,NXNXN,15,2,497,Incorrect,12,823
12,KXKVK,161,2,980,Correct,12,753
12,CPCOC,122,[2][3],[770][913],Correct,12,802
13,H,5,3,7544,New Target,13,744
13,VFVNV,151,2,681,Incorrect,13,857
13,YVYVY,152,1,573,Correct,13,930
13,XVXVX,153,1,509,Correct,13,814
13,NRNXN,161,2,495,Correct,13,703
13,PZPKP,162,2,525,Correct,13,760
13,HLVLV,221,2,686,Incorrect,13,760
13,CXCZC,222,2,1365,Correct,13,870
13,LHLYL,71,[2][3],[910][1024],Correct,13,870
13,YKYFY,14,2,729,Correct,13,674
13,YOYRY,171,2,480,Correct,13,871
13,ZKZYZ,16,2,656,Correct,13,799
13,RZRZR,151,1,525,Correct,13,760
13,NFNYN,161,2,465,Correct,13,677
13,KVKFK,162,2,450,Correct,13,771
13,XFXYX,163,2,565,Correct,13,786
13,LKLVL,164,2,600,Correct,13,715
13,NLNLN,151,1,690,Correct,13,788
13,XCXOX,182,2,711,Correct,13,861
13,FXFXF,15,1,725,Correct,13,657
13,VHVHV,8,[1][3],[549][692],Correct,13,681
13,PVPVP,13,1,552,Correct,13,657
13,CRCXC,161,2,533,Correct,13,827
13,NXNXN,151,1,545,Correct,13,800
13,XRXRX,152,1,480,Correct,13,836
13,YFYXY,161,2,525,Correct,13,849
13,ZOZOZ,193,1,655,Correct,13,716
13,RZRZR,15,1,509,Correct,13,724
13,FKFKF,152,1,518,Correct,13,910
13,PFPFP,153,1,526,Correct,13,656
13,XYXHX,92,[2][3],[1030][1189],Correct,13,875
13,RZRKR,14,2,582,Correct,13,787
13,FLFLH,225,1,736,Correct,13,927
13,KRKRK,113,1,452,Correct,13,779
13,ZVZNZ,161,2,602,Correct,13,746
13,ZOZOZ,194,1,655,Correct,13,927
13,FZFZF,15,1,486,Correct,13,879
13,FHFKF,101,[2][3],[661][853],Correct,13,872
13,ZXHLZ,233,2,967,Correct,13,667
13,FKFXF,222,2,806,Correct,13,730
13,CFCYC,162,2,734,Correct,13,700
13,ZXZVZ,163,2,496,Correct,13,934
13,KCKOK,185,2,484,Correct,13,716
13,ZXZVH,235,2,553,Correct,13,672
13,CKCKC,113,1,570,Correct,13,746
13,ZXZCZ,161,2,472,Correct,13,770
13,YVYVY,151,2,431,Incorrect,13,711
13,RVHVR,223,1,1003,Correct,13,812
13,ZRZRZ,113,1,536,Correct,13,842
13,ZHZHZ,11,[1][3],[835][980],Correct,13,856
13,VZVZV,13,1,634,Correct,13,862
13,HZVRV,231,2,710,Correct,13,800
13,FVFVF,113,1,519,Correct,13,880
13,RNRCR,161,2,570,Correct,13,689
13,COCOC,196,1,915,Correct,13,873
13,VNVXV,16,2,517,Correct,13,779
13,XHXHX,12,[1][3],[586][714],Correct,13,854
14,G,5,3,252,New Target,14,947
14,FZFZF,151,1,631,Correct,14,651
14,RPRVR,161,2,460,Correct,14,927
14,XCXCX,151,1,570,Correct,14,880
14,YXYXY,152,1,625,Correct,14,947
14,KZKZK,153,1,556,Correct,14,869
14,RYRKR,161,2,587,Correct,14,745
14,FYFNF,162,2,708,Correct,14,818
14,VKVKV,151,1,507,Correct,14,804
14,KPGPK,223,2,497,Incorrect,14,714
14,YNYNY,113,1,592,Correct,14,726
14,VYVYV,152,1,481,Correct,14,674
14,YCYXY,161,2,472,Correct,14,652
14,LKLGL,72,[2][3],[710][856],Correct,14,722
14,VXVXV,13,1,648,Correct,14,758
14,KCKVK,161,2,583,Correct,14,672
14,YKYKY,151,1,531,Correct,14,843
14,RHRXR,171,2,503,Correct,14,654
14,FVFCF,16,2,464,Correct,14,848
14,YXYGY,82,[2][3],[749][924],Correct,14,950
14,CLCLC,13,1,627,Correct,14,850
14,ZXZCZ,161,2,545,Correct,14,774
14,VLVFV,162,1,575,Incorrect,14,781
14,CPCPG,225,1,686,Correct,14,705
14,KHKNK,172,2,557,Correct,14,673
14,ZKZVZ,16,2,583,Correct,14,819
14,YKYLY,162,2,688,Correct,14,915
14,CNCNC,151,1,580,Correct,14,861
14,PGPGP,9,[1][3],[619][827],Correct,14,843
14,VPVPV,13,1,525,Correct,14,792
14,FXGRF,233,2,800,Correct,14,697
14,CYCVC,222,2,705,Correct,14,811
14,FNFNF,151,1,580,Correct,14,939
14,KFKCK,161,2,672,Correct,14,727
14,ZFZHZ,183,2,611,Correct,14,655
14,NXNXN,15,2,608,Incorrect,14,710
14,FNFNF,152,1,562,Correct,14,652
14,LXLNG,235,2,900,Correct,14,676
14,XKXVX,222,2,585,Correct,14,700
14,ZHZHZ,194,1,632,Correct,14,781
14,PFPFP,15,1,608,Correct,14,893
14,ZYZYZ,152,1,550,Correct,14,892
14,XPXVX,161,2,718,Correct,14,918
14,YCYCY,151,2,571,Incorrect,14,668
14,RGRGR,10,[1][3],[609][771],Correct,14,950
14,VRVRV,13,1,647,Correct,14,719
14,PKPNP,161,2,560,Correct,14,829
14,XGXGX,11,[1][3],[679][790],Correct,14,899
14,GZYVY,231,2,609,Correct,14,947
14,VCVNV,222,2,616,Correct,14,934
14,VHVHV,195,1,738,Correct,14,831
14,LXLNL,16,2,573,Correct,14,685
14,GKPKP,221,1,620,Correct,14,664
14,XRXPX,222,1,502,Incorrect,14,920
14,XNXNX,151,1,674,Correct,14,852
14,KHKNK,176,2,653,Incorrect,14,679
14,RZRZR,15,1,604,Correct,14,780
14,CGCFC,121,[2][3],[843][969],Correct,14,791
15,A,5,3,214,New Target,15,899
15,XRXFX,161,2,572,Correct,15,686
15,RXRKR,162,2,1146,Correct,15,819
15,YRYRY,151,1,541,Correct,15,890
15,XPXPX,152,1,468,Correct,15,925
15,RPRPR,153,1,442,Correct,15,682
15,NCNCN,154,1,525,Correct,15,739
15,RXRZR,161,2,519,Correct,15,893
15,NANAN,7,[1],[843],Incorrect,15,711
15,KCKYK,14,2,1016,Correct,15,843
15,XKXFX,162,2,642,Correct,15,918
15,ZLZKZ,163,2,449,Correct,15,727
15,VCVZV,164,2,584,Correct,15,702
15,XCXVX,165,1,558,Incorrect,15,897
15,LKLZA,235,2,761,Correct,15,869
15,NCNCN,113,1,890,Correct,15,893
15,YGYGY,191,2,721,Incorrect,15,680
15,VLVLV,15,1,521,Correct,15,809
15,XRXRX,152,1,523,Correct,15,671
15,KAKPK,81,[1][2],[627][1009],Incorrect,15,948
15,YZAZY,233,1,905,Incorrect,15,912
15,CFCFC,113,1,602,Correct,15,807
15,VNVLV,161,2,663,Correct,15,820
15,KPKVK,162,2,544,Correct,15,740
15,NCNRN,163,2,668,Correct,15,920
15,FGFGF,192,1,591,Correct,15,908
15,RCRYR,16,2,438,Correct,15,922
15,KRKCK,162,2,587,Correct,15,746
15,CRCRC,151,2,665,Incorrect,15,695
15,XPAPX,223,1,473,Correct,15,891
15,LPLXL,222,2,531,Correct,15,682
15,CGCVC,173,2,706,Correct,15,765
15,FKFZF,16,2,747,Correct,15,803
15,CACAC,9,[1][3],[724][898],Correct,15,928
15,XCXCX,13,1,643,Correct,15,892
15,AXRXR,221,2,557,Incorrect,15,812
15,NKNRN,222,2,524,Correct,15,724
15,KNKFK,162,2,621,Correct,15,823
15,KAKAK,10,[1][3],[663][792],Correct,15,794
15,ZCZRZ,14,2,546,Correct,15,886
15,RPRPR,151,1,1055,Correct,15,789
15,NCNCN,152,1,681,Correct,15,806
15,RYRGR,184,2,512,Correct,15,877
15,VPVPV,15,1,608,Correct,15,843
15,RCRCA,225,1,734,Correct,15,765
15,KXKPK,222,2,549,Correct,15,837
15,NPNPN,151,1,482,Correct,15,779
15,YCYCY,152,1,441,Correct,15,664
15,PXPAP,112,[2][3],[544][1057],Correct,15,665
15,ZCZNZ,14,2,556,Correct,15,927
15,KYKGK,185,2,487,Correct,15,885
15,ANLPL,231,2,549,Correct,15,843
15,CXCPC,222,2,533,Correct,15,722
15,YRYRY,151,2,580,Incorrect,15,753
15,LGLGL,196,1,578,Correct,15,866
15,VYVLV,16,2,626,Correct,15,666
15,KVKVK,151,1,659,Correct,15,715
15,RKRKR,152,1,648,Correct,15,870
15,VXVXV,153,1,672,Correct,15,845
15,XAXAX,12,[1][3],[706][884],Correct,15,766
