Trial No,Stimulus,Trigger,Response,Response Time(ms),Correct,Block,Fixation Duration
Practice
OT Practice
1,SKSKS,15,,,False,0,936
1,DLDUD,16,,,False,0,868
1,PDPGP,16,1,989,False,0,831
1,MWMWM,15,1,1120,Correct,0,726
1,FTFTF,15,1,1077,Correct,0,915
1,AXAMA,16,2,860,Correct,0,936
1,RYRGR,16,2,770,Correct,0,764
1,DODOD,15,1,793,Correct,0,821
1,QTQAQ,16,2,929,Correct,0,787
1,YEYEY,15,1,687,Correct,0,889
2,GYGDG,16,2,745,Correct,0,739
2,SWSWS,15,1,583,Correct,0,688
2,HLHUH,16,2,651,Correct,0,710
2,DEDED,15,1,552,Correct,0,731
2,ZPZOZ,16,2,502,Correct,0,785
2,ATATA,15,1,679,Correct,0,760
2,QOQOQ,15,2,541,False,0,893
2,FPFGF,16,2,765,Correct,0,756
2,TRTET,16,2,746,Correct,0,672
2,DQDQD,15,2,787,False,0,770
4,PLPLP,15,1,603,Correct,0,706
4,ATAIA,16,2,598,Correct,0,889
4,SKSGS,16,2,737,Correct,0,899
4,ZYZYZ,15,1,874,Correct,0,806
4,QSQSQ,15,1,582,Correct,0,949
4,TZTDT,16,2,713,Correct,0,676
4,JYJGJ,16,2,591,Correct,0,836
4,DYDYD,15,1,666,Correct,0,894
4,LTLCL,16,2,657,Correct,0,872
4,FQFEF,16,2,674,Correct,0,704
AT Practice
1,TKTKT,15,,,False,0,940
1,SLSUS,16,,,False,0,747
1,VZVGV,7,3,1013,Correct,0,856
1,XWXZX,7,3,749,Correct,0,941
1,ATATA,15,,,False,0,776
1,HXZMH,16,3,600,False,0,858
1,TZTZT,7,3,548,Correct,0,923
1,UOUOU,15,,,False,0,915
1,ZTWAW,16,,,False,0,909
1,RZRER,7,3,748,Correct,0,752
2,JYJDJ,16,2,795,Correct,0,691
2,DWDWD,15,1,726,Correct,0,729
2,GNGNG,7,3,802,Correct,0,698
2,NEZEZ,16,1,630,Correct,0,866
2,RNROR,7,3,768,Correct,0,866
2,QTQNQ,7,3,825,Correct,0,688
2,HOHON,15,2,767,False,0,769
2,KPKGK,16,2,954,Correct,0,767
2,DRDED,16,1,606,False,0,650
2,LNLNL,7,3,657,Correct,0,684
Trials
1,D,5,3,7608,New Target,1,675
1,ZNZYZ,161,2,904,Correct,1,922
1,FZFZF,151,2,996,Incorrect,1,660
1,RKRKR,152,1,567,Correct,1,769
1,RXRNR,161,2,629,Correct,1,861
1,CNCFC,162,2,595,Correct,1,832
1,PDPDP,7,1,854,Incorrect,1,788
1,CPCFC,14,2,744,Correct,1,909
1,VLVNV,162,2,535,Correct,1,758
1,KFKFK,151,1,521,Correct,1,804
1,ZNZNZ,152,1,593,Correct,1,680
1,KCKPD,235,2,542,Correct,1,884
1,ZKZFZ,222,2,630,Correct,1,669
1,NRNZN,162,2,529,Correct,1,923
1,KXKRK,163,2,565,Correct,1,781
1,YPYZY,164,2,564,Correct,1,860
1,FKDKF,223,2,629,Incorrect,1,895
1,RPRPR,113,1,677,Correct,1,785
1,VRVKV,161,2,502,Correct,1,711
1,RFRPR,162,2,653,Correct,1,747
1,KVKVK,151,1,594,Correct,1,726
1,YKYVY,161,2,575,Correct,1,909
1,VDVDV,8,1,459,Incorrect,1,940
1,DVZVZ,221,1,676,Correct,1,786
1,YFYFY,113,1,512,Correct,1,903
1,ZYZYZ,152,1,504,Correct,1,752
1,VLVXV,161,2,466,Correct,1,675
1,DPXZX,231,2,552,Correct,1,768
1,RYRYR,113,1,678,Correct,1,931
1,PDPNP,91,2,582,Incorrect,1,798
1,KXKXK,13,1,533,Correct,1,834
1,ZYZYZ,152,1,491,Correct,1,722
1,VKVKV,153,1,677,Correct,1,712
1,YZYZY,154,1,489,Correct,1,688
1,NLNZN,161,2,574,Correct,1,833
1,ZNDYZ,233,2,595,Correct,1,742
1,PCPXP,222,2,533,Correct,1,798
1,ZVZFZ,162,2,653,Correct,1,689
1,RCRZR,163,2,635,Correct,1,823
1,LRLRL,151,1,539,Correct,1,805
1,ZDZDZ,10,1,461,Incorrect,1,821
1,RNRZR,14,2,617,Correct,1,667
1,CXCYC,162,2,696,Correct,1,779
1,RCRLR,163,2,551,Correct,1,812
1,FRFRF,151,1,696,Correct,1,809
1,XFXFX,152,1,593,Correct,1,938
1,RPRLR,161,2,579,Correct,1,746
1,YXYRY,162,2,550,Correct,1,747
1,FYFYF,151,1,616,Correct,1,784
1,YZYVY,161,2,546,Correct,1,946
1,YKYKY,151,1,599,Correct,1,808
1,XRXRX,152,1,637,Correct,1,667
1,XVXZX,161,2,527,Correct,1,762
1,PDPDP,11,1,646,Incorrect,1,691
1,ZFZFZ,13,1,523,Correct,1,662
1,PXPXP,152,1,568,Correct,1,932
1,LYLYL,153,1,702,Correct,1,739
1,NKNKD,225,1,683,Correct,1,787
1,ZNZNZ,113,1,474,Correct,1,801
1,PYPZP,161,2,596,Correct,1,734
1,XPXPX,151,1,613,Correct,1,858
1,VLVLV,152,1,498,Correct,1,853
1,PKPXP,161,2,725,Correct,1,798
1,FZFZF,151,1,574,Correct,1,935
1,LDLDL,12,1,559,Incorrect,1,808
2,U,5,3,6480,New Target,2,834
2,ZVZFZ,161,2,677,Correct,2,753
2,FZFZF,151,1,817,Correct,2,911
2,RFRFR,152,1,631,Correct,2,852
2,NZNKN,161,2,599,Correct,2,781
2,FZFNF,162,2,735,Correct,2,661
2,RXRXR,151,2,620,Incorrect,2,755
2,KRKYK,161,2,625,Correct,2,706
2,NZNPN,162,2,690,Correct,2,801
2,XPXPX,151,1,691,Correct,2,769
2,CUCUC,7,3,642,Correct,2,719
2,RFRFR,13,2,459,Incorrect,2,936
2,VYVXV,161,2,660,Correct,2,705
2,VDVDV,191,1,640,Correct,2,854
2,ZKZRZ,15,2,639,Correct,2,824
2,XCXCX,151,1,769,Correct,2,712
2,CNCUC,82,3,666,Correct,2,845
2,RCRCR,13,2,568,Incorrect,2,875
2,ZPZXZ,161,2,682,Correct,2,713
2,FKFYF,162,2,662,Correct,2,910
2,ZFZYZ,163,2,679,Correct,2,679
2,PXPXP,151,1,659,Correct,2,892
2,URCKC,231,2,609,Correct,2,811
2,PCPCP,113,1,627,Correct,2,785
2,XNXNX,152,3,739,Incorrect,2,773
2,RCRZR,161,2,577,Correct,2,734
2,XVXVX,151,1,718,Correct,2,892
2,NRNRN,152,1,776,Correct,2,860
2,FPFPF,225,1,593,Correct,2,815
2,XVXFX,222,2,628,Correct,2,750
2,PRPRP,151,1,640,Correct,2,928
2,FYFCF,161,2,634,Correct,2,909
2,XUXFX,91,3,589,Correct,2,720
2,CYCVC,14,2,669,Correct,2,819
2,VDVKV,172,2,570,Correct,2,921
2,YCYCY,15,1,652,Correct,2,726
2,NKNLN,161,2,681,Correct,2,853
2,XPUKX,233,3,952,Incorrect,2,794
2,ZPZPZ,113,1,725,Correct,2,934
2,KRKRK,152,2,765,Incorrect,2,899
2,XKXKX,153,1,731,Correct,2,735
2,YUYVY,101,2,610,Incorrect,2,894
2,XKXFU,235,2,780,Correct,2,917
2,NFNFN,113,1,809,Correct,2,780
2,KDKDK,193,1,656,Correct,2,814
2,XYXKX,16,2,625,Correct,2,760
2,YZUZY,223,3,701,Incorrect,2,867
2,KFKVK,222,2,652,Correct,2,718
2,LYLYL,151,1,958,Correct,2,764
2,CXCDC,184,2,622,Incorrect,2,850
2,XZXNX,16,2,608,Correct,2,687
2,PXPXP,151,1,718,Correct,2,891
2,ZRZYZ,161,2,587,Correct,2,741
2,PUPYP,111,3,668,Correct,2,794
2,RNRNR,14,1,928,Correct,2,714
2,KDKDK,195,1,610,Correct,2,894
2,KNKNK,15,1,770,Correct,2,831
2,PRPKP,161,2,720,Correct,2,693
2,UNYNY,221,2,1226,Incorrect,2,918
2,NYNYN,113,1,853,Correct,2,750
2,YXYXY,152,1,955,Incorrect,2,797
2,RDRDR,196,1,689,Correct,2,795
2,FCFCF,15,1,660,Correct,2,675
2,ZKZKZ,152,1,681,Correct,2,696
2,ZUZUZ,12,3,653,Correct,2,672
3,E,5,3,6508,New Target,3,650
3,YZYZY,151,1,731,Correct,3,782
3,VFVNV,161,2,795,Correct,3,683
3,KYKYK,151,2,857,Incorrect,3,686
3,NKNKN,152,3,765,Incorrect,3,834
3,XVXNX,161,2,663,Correct,3,823
3,RERFR,71,3,871,Correct,3,797
3,XNXNX,13,1,782,Correct,3,803
3,NXNXN,152,1,716,Correct,3,679
3,ZLZNZ,161,2,633,Correct,3,837
3,CUCNC,171,2,990,Correct,3,651
3,FYFRF,16,2,709,Correct,3,668
3,ZLZLZ,151,2,595,Incorrect,3,757
3,YZYZY,152,1,681,Correct,3,700
3,CYCYC,153,1,587,Correct,3,671
3,VUVUV,192,1,623,Correct,3,742
3,PXPRP,16,2,650,Correct,3,882
3,YPYPY,151,1,692,Correct,3,922
3,CECEC,8,3,693,Correct,3,773
3,VNENV,223,2,785,Incorrect,3,776
3,KRKFK,222,2,805,Correct,3,920
3,XLXLE,225,1,720,Correct,3,683
3,RFRUR,183,2,872,Correct,3,890
3,XRXLX,16,2,668,Correct,3,836
3,NZNPN,162,2,653,Correct,3,755
3,XZXZX,151,1,653,Correct,3,822
3,FZFZF,152,1,640,Correct,3,681
3,PFPFP,153,1,563,Correct,3,753
3,YZYXY,161,2,689,Correct,3,904
3,KEKEK,9,3,723,Correct,3,689
3,CXCPC,14,2,723,Correct,3,731
3,VXVXV,151,1,820,Correct,3,681
3,NUNZN,174,2,972,Correct,3,847
3,RKRVR,16,2,684,Correct,3,853
3,XRXRX,151,1,605,Correct,3,738
3,ERNFN,231,2,861,Incorrect,3,831
3,YRYNY,222,2,833,Correct,3,835
3,PZPEP,102,3,748,Correct,3,772
3,ZYZXZ,14,2,742,Correct,3,788
3,RZRVR,162,2,651,Correct,3,948
3,XRXRX,151,1,679,Correct,3,818
3,KUKFK,175,2,742,Correct,3,765
3,RKRKR,15,1,784,Correct,3,883
3,ZFZFZ,152,1,716,Correct,3,710
3,YZYVY,161,2,789,Correct,3,902
3,XPXNX,162,2,698,Correct,3,949
3,YRYRY,151,1,663,Correct,3,824
3,EPVPV,221,2,807,Incorrect,3,813
3,CRCEC,112,3,1101,Correct,3,873
3,RFRCR,14,2,696,Correct,3,832
3,CPCVC,162,2,761,Correct,3,761
3,RXRCR,163,2,862,Correct,3,944
3,VNVLV,164,2,757,Correct,3,791
3,ZXZXZ,151,1,767,Correct,3,893
3,ZCZCZ,152,1,777,Correct,3,847
3,PYPUP,186,2,647,Correct,3,704
3,YKYPY,16,2,723,Correct,3,877
3,YREXY,233,2,930,Correct,3,756
3,ZKZKZ,113,1,771,Correct,3,836
3,XLXNX,161,2,808,Correct,3,922
3,KFKRE,235,2,830,Correct,3,891
3,RXRLR,222,2,772,Correct,3,875
3,RERXR,121,3,961,Correct,3,775
4,J,5,3,3265,New Target,4,835
4,CYCVC,161,2,752,Correct,4,660
4,RXRCR,162,2,600,Correct,4,866
4,FPFVF,163,2,782,Correct,4,698
4,LZLZL,151,1,756,Correct,4,927
4,PLPLP,152,1,651,Correct,4,899
4,NPNPN,153,1,712,Correct,4,861
4,XZXZX,161,1,665,Incorrect,4,723
4,CNCKC,162,2,740,Correct,4,843
4,PCPYJ,235,2,1038,Correct,4,838
4,VYVYV,113,1,655,Correct,4,806
4,RLRLR,152,1,770,Correct,4,679
4,CJCJC,7,3,781,Correct,4,781
4,ZLZLZ,13,1,742,Correct,4,845
4,FZFZF,152,1,616,Correct,4,696
4,CFCFC,153,1,615,Correct,4,846
4,PZPZP,154,1,654,Correct,4,657
4,XEXEX,191,1,1123,Correct,4,675
4,NVNFN,16,2,665,Correct,4,936
4,KYKYK,151,1,713,Correct,4,778
4,ZNZVZ,161,2,694,Correct,4,812
4,YVJXY,233,2,642,Correct,4,793
4,XFXFX,113,1,641,Correct,4,798
4,XNXNX,152,1,686,Correct,4,884
4,FJFKF,81,3,961,Correct,4,655
4,CZCYC,14,2,664,Correct,4,688
4,ZXZCZ,162,2,711,Correct,4,805
4,RYRYJ,225,1,836,Correct,4,805
4,FPFZF,222,2,823,Correct,4,949
4,XRXRX,151,1,811,Correct,4,948
4,YPYEY,182,2,756,Correct,4,780
4,XRXRX,15,1,593,Correct,4,781
4,XZXPX,161,2,659,Correct,4,768
4,CJCJC,9,3,735,Correct,4,866
4,ZXZVZ,14,2,749,Correct,4,744
4,VKVKV,151,1,708,Correct,4,892
4,VEVNV,173,2,782,Correct,4,944
4,ZKZVZ,16,2,756,Correct,4,891
4,XVXJX,102,3,704,Correct,4,735
4,RXRVR,14,2,713,Correct,4,887
4,LRLRL,151,1,684,Correct,4,677
4,YNJNY,223,1,859,Correct,4,819
4,NPNJN,222,3,678,Incorrect,4,704
4,ZEZEZ,194,1,807,Correct,4,676
4,ZNZNZ,15,1,703,Correct,4,835
4,YZYZY,152,1,587,Correct,4,872
4,XYXYX,153,1,844,Correct,4,837
4,ZXZXZ,221,1,616,Correct,4,741
4,LYLZL,222,2,841,Correct,4,716
4,CYCNC,162,2,849,Correct,4,792
4,XEXEX,195,1,722,Correct,4,914
4,CVCXC,16,2,602,Correct,4,874
4,ZPZXZ,162,2,782,Correct,4,685
4,FZFZF,151,1,683,Correct,4,769
4,RXRJR,112,3,853,Correct,4,836
4,PRPFP,14,2,682,Correct,4,839
4,PKPEP,186,2,652,Correct,4,705
4,XZXPX,16,2,716,Correct,4,818
4,JCZVZ,231,2,1225,Correct,4,806
4,RXRLR,222,2,544,Correct,4,774
4,VZVZV,151,1,627,Correct,4,839
4,XJXJX,12,3,630,Correct,4,706
5,I,5,3,1610,New Target,5,718
5,PCPCP,151,1,671,Correct,5,680
5,XYXYX,152,1,1025,Correct,5,694
5,VXVXV,153,1,784,Correct,5,823
5,XVXVX,154,1,659,Correct,5,943
5,ZRZXZ,161,2,692,Correct,5,763
5,FPFZF,162,2,756,Correct,5,781
5,ZYZYZ,151,1,637,Correct,5,852
5,RVRZR,161,2,722,Correct,5,656
5,CICIC,7,3,690,Correct,5,751
5,XLXLX,13,1,603,Correct,5,867
5,YVYVY,152,1,650,Correct,5,836
5,CJCJC,191,2,1028,Incorrect,5,924
5,FNFCF,16,2,692,Correct,5,875
5,PVPRP,162,2,696,Correct,5,655
5,FZFZF,151,1,659,Correct,5,835
5,NVIVN,223,1,804,Correct,5,795
5,CVCIC,82,3,795,Correct,5,880
5,ZXZXZ,13,1,689,Correct,5,889
5,FCFZF,161,2,963,Correct,5,659
5,IXRXR,221,3,890,Incorrect,5,712
5,ZPZNZ,222,2,1274,Correct,5,932
5,VZVZV,151,1,670,Correct,5,916
5,YRYNY,161,2,666,Correct,5,905
5,VNVPV,162,2,731,Correct,5,718
5,RVRJR,182,2,758,Correct,5,817
5,VRVRV,15,1,1100,Correct,5,920
5,VIVIV,9,3,520,Correct,5,867
5,CXCVC,14,2,811,Correct,5,875
5,PZPZP,151,1,822,Correct,5,790
5,IXVKV,231,2,795,Correct,5,912
5,YJYCY,173,2,896,Incorrect,5,932
5,VYVYV,15,1,626,Correct,5,927
5,YVYVY,152,1,612,Correct,5,768
5,NVNVN,153,1,724,Correct,5,857
5,XYXVX,161,2,780,Correct,5,885
5,NJNCN,174,2,1155,Correct,5,927
5,NXNYN,16,2,645,Correct,5,657
5,VXVCV,162,2,661,Correct,5,793
5,ZKZKZ,151,1,883,Correct,5,828
5,XRXYX,161,2,1069,Correct,5,691
5,ZCZXZ,162,2,812,Correct,5,764
5,KVKYI,235,2,1074,Correct,5,841
5,CNCNC,113,1,774,Correct,5,713
5,RIRIR,10,3,859,Correct,5,928
5,VYVXV,14,2,677,Correct,5,697
5,FXIRF,233,2,804,Correct,5,896
5,PFPFP,113,1,680,Correct,5,853
5,VPVPV,152,1,778,Correct,5,752
5,ZJZJZ,195,1,1205,Correct,5,800
5,ZVZNZ,16,2,719,Correct,5,848
5,YVYXY,162,2,696,Correct,5,836
5,PRPRP,151,1,859,Correct,5,698
5,YPYPY,152,1,645,Correct,5,700
5,ZIZPZ,111,2,921,Incorrect,5,732
5,NKNXN,14,2,959,Correct,5,802
5,RZRXR,162,2,629,Correct,5,689
5,RXRXR,151,1,641,Correct,5,933
5,ZJZJZ,196,1,1005,Correct,5,918
5,CVCVI,225,1,924,Incorrect,5,867
5,NKNKN,113,1,719,Correct,5,840
5,NRNZN,161,2,841,Correct,5,904
5,CNCNC,151,1,676,Correct,5,723
5,RFRIR,122,3,735,Correct,5,869
6,B,5,3,4372,New Target,6,928
6,YKYZY,161,2,638,Correct,6,924
6,VCVRV,162,2,754,Correct,6,692
6,XVXVX,151,1,702,Correct,6,796
6,KZKRK,161,2,696,Correct,6,841
6,ZVZXZ,162,2,760,Correct,6,712
6,RCRNR,163,2,670,Correct,6,889
6,CXCRC,164,2,1025,Correct,6,723
6,VNBCV,233,2,630,Correct,6,734
6,CXCVC,222,2,795,Correct,6,654
6,RFRFR,151,1,843,Correct,6,688
6,XPXRX,161,1,814,Incorrect,6,909
6,RYRBR,72,3,795,Correct,6,658
6,ZKZKZ,13,1,674,Correct,6,858
6,FIFRF,171,2,1040,Correct,6,837
6,VZVLV,16,2,588,Correct,6,901
6,RPRVR,162,2,796,Correct,6,839
6,YBYBY,8,3,793,Correct,6,758
6,PYPVP,14,2,757,Correct,6,770
6,NININ,192,2,1019,Incorrect,6,818
6,RNRNR,15,1,667,Correct,6,833
6,NXNVN,161,2,682,Correct,6,802
6,RNRNR,151,1,665,Correct,6,756
6,FRFVF,161,2,685,Correct,6,677
6,YVYFB,235,2,981,Incorrect,6,917
6,ZRZXZ,222,2,654,Correct,6,662
6,VNVIV,193,2,913,Incorrect,6,729
6,PXPNP,16,2,855,Correct,6,827
6,ZXZPZ,162,2,784,Correct,6,793
6,VBVBV,9,3,776,Correct,6,934
6,CXCXC,13,1,917,Correct,6,745
6,PCPFP,161,2,583,Correct,6,863
6,KNKNK,151,1,887,Correct,6,885
6,XIXIX,194,1,849,Correct,6,675
6,CYCYC,15,1,759,Correct,6,895
6,FVFYF,161,2,1155,Correct,6,742
6,YNYRY,162,2,755,Correct,6,758
6,BVPXP,231,2,1356,Correct,6,788
6,NXNXN,113,1,934,Correct,6,651
6,FRFRF,152,1,925,Correct,6,761
6,YVYVY,153,1,894,Correct,6,917
6,ZKZCZ,161,,,Incorrect,6,754
6,VIVXV,175,2,720,Correct,6,751
6,PRBRP,223,1,993,Correct,6,724
6,YZYBY,102,2,602,Incorrect,6,650
6,CXCVC,14,2,747,Correct,6,831
6,FYFYF,151,1,691,Correct,6,939
6,VKVXV,161,2,555,Correct,6,909
6,ZBZBZ,11,3,624,Correct,6,714
6,FPFNF,14,2,625,Correct,6,787
6,CXCXC,151,1,612,Correct,6,694
6,YCYCY,152,1,561,Correct,6,946
6,FPFPF,153,1,535,Correct,6,748
6,CVCVB,225,1,617,Correct,6,858
6,ZCZCZ,113,1,622,Correct,6,674
6,CZCNC,161,2,762,Correct,6,921
6,KIKFK,176,2,740,Correct,6,834
6,PXPXP,15,1,643,Correct,6,724
6,RYRYR,152,1,582,Correct,6,708
6,ZRZCZ,161,2,763,Correct,6,687
6,RVRVR,151,1,653,Correct,6,658
6,XYXNX,161,2,911,Correct,6,709
6,BVKVK,221,2,822,Incorrect,6,843
6,CBCBC,12,3,747,Correct,6,886
7,W,5,3,2703,New Target,7,850
7,RKRKR,151,1,694,Correct,7,705
7,CVCRC,161,2,661,Correct,7,719
7,PKPKP,151,1,707,Correct,7,859
7,FPFPF,152,1,579,Correct,7,716
7,VRVPV,161,2,959,Correct,7,930
7,ZKZYZ,162,2,927,Correct,7,878
7,PVPCP,233,2,676,Correct,7,780
7,KVKVK,113,1,705,Correct,7,858
7,YXYVY,161,2,845,Correct,7,879
7,FNFNF,151,1,945,Correct,7,864
7,YWYWY,7,3,885,Correct,7,768
7,ZYZYZ,13,1,888,Correct,7,912
7,PYPYP,152,1,585,Correct,7,882
7,XRXRX,153,1,540,Correct,7,716
7,PXPXP,154,1,579,Correct,7,731
7,FCFBF,181,2,645,Correct,7,785
7,FVFVF,15,1,817,Correct,7,912
7,CYCZC,161,2,736,Correct,7,666
7,XZXVX,162,2,728,Correct,7,869
7,PFPFP,151,1,1351,Correct,7,755
7,RVRLR,161,2,720,Correct,7,734
7,ZBZBZ,192,1,942,Correct,7,730
7,VCVNV,16,2,720,Correct,7,849
7,NWNWN,8,3,793,Correct,7,865
7,XNXVX,14,2,1152,Correct,7,928
7,CXCNC,162,,,Incorrect,7,766
7,YVYVW,225,1,961,Correct,7,936
7,VFVFV,113,1,679,Correct,7,766
7,VFWFV,223,1,580,Correct,7,817
7,CVCFC,222,2,707,Correct,7,921
7,YBYBY,193,1,1072,Correct,7,811
7,PYPYP,15,1,575,Correct,7,854
7,NKNWN,91,3,848,Correct,7,804
7,VNVNV,13,1,812,Correct,7,678
7,RVRVR,152,1,1057,Correct,7,895
7,FVFBF,184,,,Incorrect,7,826
7,VZVKV,16,2,1382,Correct,7,909
7,VPVCV,162,2,683,Correct,7,799
7,WYZCZ,231,2,830,Correct,7,687
7,PFPFP,113,1,668,Correct,7,651
7,PRPRP,152,1,792,Correct,7,823
7,NWNWN,10,3,625,Correct,7,783
7,VKVCV,14,2,800,Correct,7,838
7,WPYPY,221,1,644,Correct,7,917
7,VBVBV,195,1,688,Correct,7,868
7,ZKZYZ,16,,,Incorrect,7,726
7,XYXYX,151,1,1072,Correct,7,747
7,FZFXF,161,2,816,Correct,7,817
7,XKXKX,151,1,1050,Correct,7,786
7,XPXPX,152,1,563,Correct,7,917
7,FWFWF,11,3,758,Correct,7,767
7,FNFBF,186,2,1410,Correct,7,817
7,ZVZYZ,16,2,994,Correct,7,856
7,FZFZF,151,1,1433,Correct,7,693
7,NPNFW,235,2,795,Correct,7,841
7,PCPCP,113,1,613,Correct,7,783
7,NKNWN,122,3,689,Correct,7,925
8,M,5,3,1756,New Target,8,839
8,VYVNV,161,2,767,Correct,8,750
8,KLKNK,162,2,683,Correct,8,790
8,NRNRN,151,1,577,Correct,8,932
8,VNVFV,161,2,739,Correct,8,783
8,XNXNM,225,1,1122,Correct,8,755
8,CXCVC,222,2,734,Correct,8,819
8,KRKZK,162,2,765,Correct,8,714
8,NMNFN,71,3,836,Correct,8,867
8,ZFZFZ,13,1,761,Correct,8,833
8,YPYCY,161,2,1093,Correct,8,846
8,KCKCK,151,1,741,Correct,8,730
8,VNVNV,152,,,Incorrect,8,699
8,LXLXL,153,1,733,Correct,8,715
8,CLCLC,154,1,566,Correct,8,852
8,NYNYN,155,1,642,Correct,8,946
8,LCMYL,233,2,823,Correct,8,693
8,NCNCN,113,1,1098,Correct,8,949
8,ZVZRZ,161,2,687,Correct,8,660
8,ZVZVZ,151,1,648,Correct,8,902
8,PZPVP,161,2,723,Correct,8,887
8,PWPNP,171,2,1294,Correct,8,877
8,KLKCM,235,2,890,Correct,8,669
8,XMXMX,8,,,Incorrect,8,743
8,PRPXP,14,,,Incorrect,8,927
8,CVCYC,162,,,Incorrect,8,780
8,PXPMP,92,,,Incorrect,8,891
8,ZCZLZ,14,2,712,Correct,8,866
8,XWXWX,192,1,1077,Correct,8,810
8,ZCZLZ,16,2,670,Correct,8,935
8,MNCYC,231,2,858,Correct,8,913
8,ZXZXZ,113,1,581,Correct,8,663
8,YRYNY,161,2,653,Correct,8,654
8,ZLZPZ,162,2,636,Correct,8,785
8,VZVZV,151,1,632,Correct,8,849
8,MXPXP,221,1,869,Correct,8,877
8,VWVWV,193,1,870,Correct,8,909
8,PYPYP,16,1,591,Incorrect,8,744
8,XPXVX,162,2,669,Correct,8,912
8,XLXLX,151,1,668,Correct,8,812
8,YMYMY,10,3,751,Correct,8,698
8,VYVYV,13,1,620,Correct,8,741
8,PWPZP,174,2,875,Correct,8,835
8,PYPKP,16,2,758,Correct,8,743
8,NPNXN,162,2,690,Correct,8,745
8,KVKVK,223,1,723,Correct,8,708
8,NVNFN,222,2,636,Correct,8,848
8,XNXNX,151,1,1117,Correct,8,788
8,YZYMY,112,3,891,Correct,8,816
8,PFPFP,13,1,755,Correct,8,720
8,ZWZWZ,195,1,770,Correct,8,704
8,PCPZP,16,2,761,Correct,8,889
8,LRLPL,162,1,643,Incorrect,8,824
8,CZCZC,151,1,606,Correct,8,933
8,NZNZN,152,1,611,Correct,8,691
8,CVCXC,161,2,617,Correct,8,698
8,XCXCX,151,1,980,Correct,8,900
8,YWYWY,196,1,692,Correct,8,909
8,NLNLN,15,1,656,Correct,8,815
8,VNVNV,152,1,631,Correct,8,667
8,ZMZMZ,12,3,792,Correct,8,702
9,S,5,3,2760,New Target,9,851
9,NZNZN,151,1,638,Correct,9,687
9,KVKZK,161,2,640,Correct,9,728
9,LZLZL,151,1,565,Correct,9,684
9,XLXLX,152,1,570,Correct,9,744
9,ZXZXZ,153,1,743,Correct,9,884
9,KNKZK,161,2,702,Correct,9,922
9,NRNYN,162,2,705,Correct,9,671
9,CLCVC,163,2,735,Correct,9,761
9,ZCZFZ,164,2,696,Correct,9,922
9,NSNSN,7,3,711,Correct,9,726
9,VZVZV,13,1,628,Correct,9,758
9,NVNCN,161,2,596,Correct,9,844
9,VMVMV,191,2,1157,Incorrect,9,851
9,CVCXC,16,2,712,Correct,9,662
9,ZYZRZ,162,2,615,Correct,9,712
9,XNXZX,163,2,682,Correct,9,742
9,PXPXP,151,1,729,Correct,9,807
9,VCVSV,82,3,979,Correct,9,848
9,PRPCP,14,2,832,Correct,9,932
9,ZMZMZ,192,1,999,Incorrect,9,844
9,ZFZFZ,15,1,723,Correct,9,917
9,FCFCF,152,1,545,Correct,9,782
9,YLYZY,161,2,644,Correct,9,859
9,KNKVK,162,2,676,Correct,9,760
9,SFPCP,231,2,607,Correct,9,906
9,RPRPR,113,1,721,Correct,9,738
9,XMXMX,193,1,939,Correct,9,819
9,KFKFK,15,1,575,Correct,9,810
9,VSVSV,9,3,977,Correct,9,771
9,YVSVY,223,1,711,Correct,9,753
9,VPVPV,113,1,681,Correct,9,666
9,XZXZX,152,1,633,Correct,9,782
9,KZKXK,161,2,772,Correct,9,845
9,RFRPR,162,2,1425,Correct,9,666
9,NVNVS,225,1,750,Correct,9,908
9,ZXZXZ,113,1,702,Correct,9,690
9,SRVRV,221,,,Incorrect,9,892
9,YCYCY,113,1,577,Correct,9,803
9,KMKZK,174,2,629,Correct,9,793
9,FZSVF,233,2,656,Correct,9,938
9,VYVYV,113,1,624,Correct,9,763
9,LVLVL,152,1,671,Correct,9,844
9,YFYFY,153,1,1195,Correct,9,856
9,NXNSN,102,3,615,Correct,9,804
9,FNFCF,14,2,552,Correct,9,819
9,KVKVK,151,1,637,Correct,9,741
9,VZVCV,161,2,896,Correct,9,750
9,ZYZMZ,185,2,1528,Correct,9,723
9,VXVZV,16,2,629,Correct,9,801
9,VPVPV,151,1,585,Correct,9,687
9,RVRNS,235,2,621,Correct,9,766
9,YZYZY,113,1,1079,Correct,9,888
9,ZSZSZ,11,3,668,Correct,9,709
9,FRFRF,13,1,857,Correct,9,788
9,ZMZMZ,196,1,1174,Correct,9,689
9,NZNXN,16,2,747,Correct,9,942
9,LSLFL,121,,,Incorrect,9,903
10,Q,5,3,19034,New Target,10,908
10,ZVZPZ,161,2,820,Correct,10,938
10,RZRZR,151,1,653,Correct,10,787
10,ZFZFZ,152,1,584,Correct,10,939
10,RZRZR,153,1,694,Correct,10,895
10,PZPXP,161,2,623,Correct,10,868
10,VFQPV,233,2,858,Correct,10,932
10,ZPZRZ,222,2,719,Correct,10,835
10,CYCVC,162,2,670,Correct,10,779
10,CPCPC,151,1,579,Correct,10,663
10,YZYQY,72,1,713,Incorrect,10,704
10,FVFXF,14,2,613,Correct,10,907
10,YNYNQ,225,1,735,Correct,10,916
10,ZYZYZ,113,1,811,Correct,10,788
10,FRFSF,181,2,1003,Incorrect,10,669
10,XNXPX,16,2,782,Correct,10,807
10,NXNXN,151,1,1047,Correct,10,797
10,PVPZP,161,2,728,Correct,10,747
10,XVXPX,162,2,694,Correct,10,749
10,FXFVF,163,2,800,Correct,10,882
10,NSNKN,172,2,631,Incorrect,10,779
10,VXVNV,16,2,731,Correct,10,691
10,XZXZX,151,1,646,Correct,10,793
10,VQVQV,8,3,743,Correct,10,769
10,ZYZPZ,14,2,642,Correct,10,778
10,PZPSP,183,2,943,Correct,10,882
10,YVYVY,15,1,735,Correct,10,894
10,NCNQN,92,3,828,Correct,10,756
10,FCFVF,14,2,662,Correct,10,804
10,ZFZFZ,151,1,1065,Correct,10,690
10,NSNSN,194,1,789,Correct,10,827
10,YPYFY,16,2,736,Correct,10,745
10,ZKZKZ,151,1,815,Correct,10,741
10,QZRCR,231,2,664,Correct,10,862
10,YPYVY,222,2,1049,Correct,10,712
10,ZNZNZ,151,1,1278,Correct,10,666
10,VQVQV,10,3,506,Correct,10,728
10,RVRZR,14,2,849,Correct,10,750
10,KRKSK,185,2,716,Correct,10,717
10,NPNPN,15,1,1174,Correct,10,891
10,YPYPY,152,1,1200,Correct,10,838
10,VCVYV,161,2,731,Correct,10,769
10,FPFNF,162,2,737,Correct,10,917
10,QVXVX,221,1,1056,Correct,10,719
10,ZVZRZ,222,2,610,Correct,10,663
10,LFLFL,151,1,677,Correct,10,703
10,VLVLV,152,1,520,Correct,10,692
10,KXQXK,223,1,865,Correct,10,651
10,YQYQY,11,3,598,Correct,10,788
10,YCYCY,13,1,578,Correct,10,933
10,PZPYP,161,2,679,Correct,10,787
10,LPLFL,162,2,681,Correct,10,731
10,VSVSV,196,1,826,Correct,10,711
10,VFVYQ,235,2,598,Correct,10,759
10,CZCXC,222,2,643,Correct,10,858
10,PVPCP,162,2,629,Correct,10,733
10,CXCXC,151,1,625,Correct,10,904
10,NZNZN,152,1,798,Correct,10,898
10,YPYCY,161,2,682,Correct,10,719
10,ZQZQZ,12,3,722,Correct,10,948
11,T,5,3,1192,New Target,11,699
11,KFKFK,151,1,828,Correct,11,821
11,LZLZL,152,1,616,Correct,11,719
11,PFPVP,161,2,678,Correct,11,891
11,FRFPF,162,2,740,Correct,11,773
11,FZFZF,151,1,698,Correct,11,926
11,VTVTV,7,3,781,Correct,11,680
11,KYKCK,14,2,636,Correct,11,693
11,VPVPV,151,1,616,Correct,11,860
11,XQXQX,191,1,1100,Correct,11,652
11,PZPYP,16,2,692,Correct,11,941
11,KXKLK,162,2,847,Correct,11,880
11,TCNCN,221,1,898,Correct,11,935
11,PZPNP,222,2,818,Correct,11,908
11,RCRPR,162,2,712,Correct,11,904
11,PZPRT,235,2,635,Correct,11,676
11,XFXVX,222,2,661,Correct,11,943
11,LTLVL,81,2,546,Incorrect,11,840
11,ZCZPZ,14,2,979,Correct,11,865
11,NCNQN,182,2,678,Correct,11,848
11,XZXNX,16,2,630,Correct,11,756
11,ZPZPZ,151,1,698,Correct,11,735
11,CFCFC,152,1,740,Correct,11,930
11,VXTRV,233,2,651,Correct,11,878
11,CFCVC,222,2,750,Correct,11,674
11,PYPYP,151,1,828,Correct,11,747
11,FQFYF,173,2,774,Correct,11,832
11,CNCFC,16,2,804,Correct,11,664
11,PTPTP,9,3,653,Correct,11,766
11,ZCZCZ,13,1,604,Correct,11,794
11,KZKZK,152,1,736,Correct,11,759
11,RLRVR,161,2,700,Correct,11,748
11,ZRZKZ,162,2,788,Correct,11,889
11,KLKLT,225,2,1072,Incorrect,11,762
11,ZQZQZ,194,1,847,Correct,11,828
11,VZVZV,15,1,683,Correct,11,667
11,RVRZR,161,2,781,Correct,11,683
11,ZPZCZ,162,2,728,Correct,11,753
11,VYVYV,151,1,728,Correct,11,786
11,RVRVR,152,1,707,Correct,11,822
11,PTPTP,10,3,882,Correct,11,835
11,PXPXP,13,1,691,Correct,11,847
11,KCKCK,152,1,639,Correct,11,912
11,YVYVY,153,1,706,Correct,11,731
11,CYCYC,154,1,706,Correct,11,777
11,XCXCX,155,1,784,Correct,11,778
11,CYCQC,185,,,Incorrect,11,950
11,KCKNK,16,,,Incorrect,11,800
11,VPVPV,151,1,1037,Correct,11,735
11,TXFZF,231,2,703,Correct,11,738
11,NYNVN,222,2,728,Correct,11,870
11,VQVXV,176,2,600,Correct,11,653
11,ZRZRZ,15,1,810,Correct,11,829
11,VTVZV,111,3,770,Correct,11,839
11,PXPVP,14,2,602,Correct,11,890
11,FVFVF,151,1,833,Correct,11,667
11,VRVLV,161,2,662,Correct,11,905
11,YCYCY,151,1,608,Correct,11,933
11,XZTZX,223,1,686,Correct,11,924
11,VTVTV,12,3,686,Correct,11,734
12,O,5,3,1411,New Target,12,706
12,VXVLV,161,2,769,Correct,12,855
12,KVKCK,162,2,752,Correct,12,713
12,VLVLV,151,1,607,Correct,12,747
12,ZCZVZ,161,2,589,Correct,12,792
12,KFKFK,151,1,622,Correct,12,761
12,XKXKX,152,1,851,Correct,12,661
12,YXYXY,153,1,1152,Correct,12,670
12,FVFVF,154,,,Incorrect,12,915
12,PVPOP,72,3,846,Correct,12,911
12,ZXZYZ,14,2,922,Correct,12,651
12,PXPVP,162,2,666,Correct,12,928
12,ZTZTZ,191,1,1000,Correct,12,803
12,CVCKC,16,2,759,Correct,12,900
12,CKCKC,151,1,707,Correct,12,819
12,NPNPN,152,1,737,Correct,12,793
12,ZRZNZ,161,2,844,Correct,12,799
12,OZCZC,221,1,816,Correct,12,883
12,LFLFL,113,1,705,Correct,12,947
12,CXCXC,152,1,767,Correct,12,725
12,KPKPK,153,1,694,Correct,12,921
12,FRFKF,161,2,1553,Correct,12,886
12,FOFOF,8,3,655,Correct,12,796
12,ZFZFZ,13,1,663,Correct,12,917
12,LKLZO,235,2,611,Correct,12,892
12,KLKZK,222,2,761,Correct,12,701
12,YXYCY,162,2,547,Correct,12,873
12,LOLOL,9,1,716,Incorrect,12,674
12,XLXLX,13,1,942,Correct,12,710
12,XVXVX,152,1,1094,Correct,12,717
12,FTFTF,192,1,998,Correct,12,748
12,OXNZN,231,2,1350,Correct,12,819
12,CZCZC,113,1,1192,Correct,12,811
12,LZLZL,152,1,1140,Correct,12,773
12,VLVPV,161,2,916,Correct,12,668
12,VYVYO,225,,,Incorrect,12,756
12,XKXKX,113,1,707,Correct,12,856
12,RTRTR,193,1,673,Correct,12,733
12,KVKCK,16,2,682,Correct,12,909
12,ROROR,101,3,535,Correct,12,876
12,PRPRP,13,1,574,Correct,12,717
12,LYLVL,161,2,658,Correct,12,730
12,PLPLP,151,1,655,Correct,12,891
12,CTCTC,194,1,747,Correct,12,858
12,XZXYX,16,2,760,Correct,12,738
12,NKNKN,151,1,656,Correct,12,915
12,VLVZV,161,,,Incorrect,12,831
12,YOYOY,11,3,657,Correct,12,947
12,PZOZP,223,2,1230,Incorrect,12,913
12,FYFYF,113,1,748,Correct,12,656
12,ZXZVZ,161,2,758,Correct,12,801
12,VKVZV,162,2,642,Correct,12,786
12,ZTZTZ,195,1,686,Correct,12,946
12,LKLZL,16,2,781,Correct,12,778
12,KCKVK,162,2,1020,Correct,12,684
12,PXPKP,163,,,Incorrect,12,801
12,KCOZK,233,,,Incorrect,12,868
12,FKFKF,113,1,703,Correct,12,790
12,CTCRC,176,2,699,Correct,12,796
12,NXNXN,15,1,838,Correct,12,875
12,KXKVK,161,2,735,Correct,12,798
12,CPCOC,122,3,660,Correct,12,925
13,H,5,3,6722,New Target,13,737
13,VFVNV,151,2,794,Incorrect,13,819
13,YVYVY,152,1,693,Correct,13,709
13,XVXVX,153,1,1235,Correct,13,797
13,NRNXN,161,2,827,Correct,13,851
13,PZPKP,162,2,678,Correct,13,750
13,HLVLV,221,1,770,Correct,13,837
13,CXCZC,222,2,673,Correct,13,672
13,LHLYL,71,3,755,Correct,13,671
13,YKYFY,14,2,818,Correct,13,657
13,YOYRY,171,2,887,Correct,13,872
13,ZKZYZ,16,2,706,Correct,13,680
13,RZRZR,151,1,766,Correct,13,847
13,NFNYN,161,2,973,Correct,13,736
13,KVKFK,162,,,Incorrect,13,709
13,XFXYX,163,2,686,Correct,13,700
13,LKLVL,164,2,600,Correct,13,889
13,NLNLN,151,1,963,Correct,13,914
13,XCXOX,182,2,955,Correct,13,673
13,FXFXF,15,1,577,Correct,13,779
13,VHVHV,8,3,676,Correct,13,747
13,PVPVP,13,1,786,Correct,13,777
13,CRCXC,161,2,666,Correct,13,799
13,NXNXN,151,1,803,Correct,13,922
13,XRXRX,152,1,621,Correct,13,813
13,YFYXY,161,2,638,Correct,13,808
13,ZOZOZ,193,1,897,Correct,13,731
13,RZRZR,15,1,744,Correct,13,773
13,FKFKF,152,1,834,Correct,13,832
13,PFPFP,153,1,574,Correct,13,674
13,XYXHX,92,3,1195,Correct,13,904
13,RZRKR,14,2,1192,Correct,13,719
13,FLFLH,225,1,958,Correct,13,908
13,KRKRK,113,1,604,Correct,13,926
13,ZVZNZ,161,2,736,Correct,13,773
13,ZOZOZ,194,1,975,Correct,13,676
13,FZFZF,15,1,774,Correct,13,655
13,FHFKF,101,3,832,Correct,13,821
13,ZXHLZ,233,2,1458,Correct,13,939
13,FKFXF,222,2,1074,Correct,13,845
13,CFCYC,162,2,657,Correct,13,851
13,ZXZVZ,163,2,656,Correct,13,774
13,KCKOK,185,2,698,Correct,13,862
13,ZXZVH,235,2,920,Correct,13,760
13,CKCKC,113,1,666,Correct,13,860
13,ZXZCZ,161,2,635,Correct,13,687
13,YVYVY,151,1,889,Correct,13,827
13,RVHVR,223,2,1213,Incorrect,13,827
13,ZRZRZ,113,1,614,Correct,13,823
13,ZHZHZ,11,3,793,Correct,13,767
13,VZVZV,13,1,744,Correct,13,701
13,HZVRV,231,2,842,Correct,13,668
13,FVFVF,113,1,839,Correct,13,714
13,RNRCR,161,2,755,Correct,13,709
13,COCOC,196,1,969,Correct,13,852
13,VNVXV,16,2,666,Correct,13,850
13,XHXHX,12,3,708,Correct,13,888
14,G,5,3,24562,New Target,14,774
14,FZFZF,151,20,705,Incorrect,14,675
14,RPRVR,161,1,723,Incorrect,14,675
14,XCXCX,151,20,625,Incorrect,14,779
14,YXYXY,152,20,643,Incorrect,14,785
14,KZKZK,153,20,640,Incorrect,14,839
14,RYRKR,161,1,815,Incorrect,14,844
14,FYFNF,162,1,778,Incorrect,14,793
14,VKVKV,151,20,692,Incorrect,14,808
14,KPGPK,223,20,832,Incorrect,14,800
14,YNYNY,113,,,Incorrect,14,949
14,VYVYV,152,20,917,Incorrect,14,657
14,YCYXY,161,1,671,Incorrect,14,706
14,LKLGL,72,3,1081,Correct,14,918
14,VXVXV,13,20,789,Incorrect,14,872
14,KCKVK,161,1,856,Incorrect,14,899
14,YKYKY,151,20,636,Incorrect,14,918
14,RHRXR,171,1,968,Incorrect,14,885
14,FVFCF,16,1,732,Incorrect,14,795
14,YXYGY,82,3,787,Correct,14,934
14,CLCLC,13,20,716,Incorrect,14,834
14,ZXZCZ,161,1,652,Incorrect,14,724
14,VLVFV,162,1,710,Incorrect,14,885
14,CPCPG,225,20,813,Incorrect,14,899
14,KHKNK,172,1,1212,Incorrect,14,662
14,ZKZVZ,16,1,1432,Incorrect,14,784
14,YKYLY,162,,,Incorrect,14,744
14,CNCNC,151,1,1196,Correct,14,673
14,PGPGP,9,3,888,Correct,14,740
14,VPVPV,13,20,834,Incorrect,14,720
14,FXGRF,233,1,634,Incorrect,14,808
14,CYCVC,222,1,955,Incorrect,14,783
14,FNFNF,151,20,758,Incorrect,14,664
14,KFKCK,161,1,1134,Incorrect,14,910
14,ZFZHZ,183,1,831,Incorrect,14,702
14,NXNXN,15,,,Incorrect,14,853
14,FNFNF,152,20,677,Incorrect,14,690
14,LXLNG,235,1,591,Incorrect,14,902
14,XKXVX,222,1,770,Incorrect,14,727
14,ZHZHZ,194,20,1070,Incorrect,14,778
14,PFPFP,15,20,694,Incorrect,14,950
14,ZYZYZ,152,20,725,Incorrect,14,815
14,XPXVX,161,1,980,Incorrect,14,712
14,YCYCY,151,20,683,Incorrect,14,675
14,RGRGR,10,3,743,Correct,14,858
14,VRVRV,13,20,790,Incorrect,14,691
14,PKPNP,161,1,643,Incorrect,14,737
14,XGXGX,11,3,807,Correct,14,747
14,GZYVY,231,1,1236,Incorrect,14,714
14,VCVNV,222,,,Incorrect,14,887
14,VHVHV,195,20,873,Incorrect,14,694
14,LXLNL,16,1,653,Incorrect,14,877
14,GKPKP,221,20,1054,Incorrect,14,788
14,XRXPX,222,,,Incorrect,14,808
14,XNXNX,151,20,566,Incorrect,14,850
14,KHKNK,176,1,731,Correct,14,685
14,RZRZR,15,20,652,Incorrect,14,717
14,CGCFC,121,3,1118,Correct,14,713
15,A,5,3,2356,New Target,15,677
15,XRXFX,161,2,947,Correct,15,757
15,RXRKR,162,2,754,Correct,15,886
15,YRYRY,151,1,697,Correct,15,878
15,XPXPX,152,1,683,Correct,15,697
15,RPRPR,153,1,575,Correct,15,651
15,NCNCN,154,1,576,Correct,15,854
15,RXRZR,161,2,594,Correct,15,748
15,NANAN,7,3,564,Correct,15,825
15,KCKYK,14,2,1268,Correct,15,791
15,XKXFX,162,2,977,Correct,15,691
15,ZLZKZ,163,2,917,Correct,15,794
15,VCVZV,164,2,820,Correct,15,926
15,XCXVX,165,2,774,Correct,15,933
15,LKLZA,235,2,624,Correct,15,852
15,NCNCN,113,1,839,Correct,15,655
15,YGYGY,191,3,822,Incorrect,15,666
15,VLVLV,15,1,619,Correct,15,861
15,XRXRX,152,1,636,Correct,15,770
15,KAKPK,81,3,764,Correct,15,771
15,YZAZY,233,2,979,Correct,15,871
15,CFCFC,113,1,600,Correct,15,748
15,VNVLV,161,2,694,Correct,15,825
15,KPKVK,162,2,1120,Correct,15,945
15,NCNRN,163,2,666,Correct,15,861
15,FGFGF,192,1,1065,Correct,15,838
15,RCRYR,16,2,565,Correct,15,900
15,KRKCK,162,2,740,Correct,15,928
15,CRCRC,151,1,926,Correct,15,884
15,XPAPX,223,1,1217,Correct,15,807
15,LPLXL,222,2,1006,Correct,15,679
15,CGCVC,173,2,1518,Correct,15,863
15,FKFZF,16,2,793,Correct,15,852
15,CACAC,9,3,751,Correct,15,920
15,XCXCX,13,1,1272,Correct,15,854
15,AXRXR,221,1,800,Correct,15,777
15,NKNRN,222,2,712,Correct,15,854
15,KNKFK,162,,,Incorrect,15,930
15,KAKAK,10,,,Incorrect,15,704
15,ZCZRZ,14,,,Incorrect,15,825
15,RPRPR,151,,,Incorrect,15,770
15,NCNCN,152,1,763,Correct,15,929
15,RYRGR,184,2,615,Correct,15,784
15,VPVPV,15,1,580,Correct,15,932
15,RCRCA,225,1,683,Correct,15,696
15,KXKPK,222,2,823,Correct,15,877
15,NPNPN,151,1,594,Correct,15,699
15,YCYCY,152,1,592,Correct,15,925
15,PXPAP,112,3,879,Correct,15,845
15,ZCZNZ,14,2,924,Correct,15,680
15,KYKGK,185,2,925,Correct,15,905
15,ANLPL,231,2,1267,Correct,15,744
15,CXCPC,222,2,605,Correct,15,711
15,YRYRY,151,1,1065,Correct,15,927
15,LGLGL,196,1,907,Correct,15,728
15,VYVLV,16,2,721,Correct,15,828
15,KVKVK,151,1,846,Correct,15,795
15,RKRKR,152,,,Incorrect,15,760
15,VXVXV,153,1,751,Correct,15,798
15,XAXAX,12,3,829,Correct,15,677
