Trial No,Stimulus,Trigger,Response,Response Time(ms),Correct,Block,Fixation Duration
Practice
OT Practice
1,SKSKS,15,1,692,Correct,0,651
1,DLDUD,16,2,832,Correct,0,732
1,PDPGP,16,2,884,Correct,0,866
1,MWMWM,15,1,613,Correct,0,874
1,FTFTF,15,1,708,Correct,0,725
1,AXAMA,16,2,689,Correct,0,736
1,RYRGR,16,2,654,Correct,0,687
1,DODOD,15,1,648,Correct,0,833
1,QTQAQ,16,2,760,Correct,0,667
1,YEYEY,15,1,755,Correct,0,679
2,GYGDG,16,2,687,Correct,0,733
2,SWSWS,15,1,484,Correct,0,943
2,HLHUH,16,2,640,Correct,0,888
2,DEDED,15,1,494,Correct,0,794
2,ZPZOZ,16,2,588,Correct,0,895
2,ATATA,15,1,677,Correct,0,907
2,QOQOQ,15,1,635,Correct,0,898
2,FPFGF,16,2,537,Correct,0,760
2,TRTET,16,2,688,Correct,0,660
2,DQDQD,15,1,641,Correct,0,652
AT Practice
1,TKTKT,15,2,624,False,0,751
1,SLSUS,16,2,750,Correct,0,762
1,VZVGV,7,3,817,Correct,0,859
1,XWXZX,7,3,562,Correct,0,928
1,ATATA,15,1,693,Correct,0,723
1,HXZMH,16,2,1220,Correct,0,663
1,TZTZT,7,3,777,Correct,0,840
1,UOUOU,15,1,1080,Correct,0,949
1,ZTWAW,16,2,649,Correct,0,747
1,RZRER,7,3,724,Correct,0,794
2,JYJDJ,16,2,1120,Correct,0,805
2,DWDWD,15,2,814,False,0,724
2,GNGNG,7,3,951,Correct,0,664
2,NEZEZ,16,1,701,Correct,0,707
2,RNROR,7,3,678,Correct,0,820
2,QTQNQ,7,3,866,Correct,0,782
2,HOHON,15,1,630,Correct,0,782
2,KPKGK,16,2,866,Correct,0,831
2,DRDED,16,2,818,Correct,0,908
2,LNLNL,7,3,720,Correct,0,934
4,GLGLG,15,1,1208,Correct,0,920
4,DTDID,16,2,688,Correct,0,698
4,SMSGS,16,2,663,Correct,0,916
4,ZFZYZ,7,3,818,Correct,0,773
4,TSTFT,7,3,780,Correct,0,714
4,OFOFO,7,3,817,Correct,0,945
4,WYFGW,16,2,1199,Correct,0,926
4,WYWYW,15,1,998,Correct,0,770
4,MFMCM,7,3,709,Correct,0,812
4,HQHEH,16,2,787,Correct,0,665
Trials
1,D,5,3,14198,New Target,1,769
1,ZNZYZ,161,2,1140,Correct,1,838
1,FZFZF,151,1,861,Correct,1,866
1,RKRKR,152,1,707,Correct,1,851
1,RXRNR,161,2,656,Correct,1,813
1,CNCFC,162,2,831,Correct,1,784
1,PDPDP,7,3,843,Correct,1,724
1,CPCFC,14,2,569,Correct,1,658
1,VLVNV,162,2,738,Correct,1,659
1,KFKFK,151,1,1377,Correct,1,756
1,ZNZNZ,152,3,755,Incorrect,1,873
1,KCKPD,235,2,859,Correct,1,868
1,ZKZFZ,222,2,659,Correct,1,787
1,NRNZN,162,2,1316,Correct,1,724
1,KXKRK,163,2,724,Correct,1,931
1,YPYZY,164,2,802,Correct,1,743
1,FKDKF,223,1,690,Correct,1,681
1,RPRPR,113,1,805,Correct,1,669
1,VRVKV,161,2,766,Correct,1,758
1,RFRPR,162,2,613,Correct,1,834
1,KVKVK,151,2,692,Incorrect,1,825
1,YKYVY,161,2,644,Correct,1,708
1,VDVDV,8,3,673,Correct,1,923
1,DVZVZ,221,1,785,Correct,1,702
1,YFYFY,113,1,642,Correct,1,677
1,ZYZYZ,152,1,867,Correct,1,790
1,VLVXV,161,2,654,Correct,1,722
1,DPXZX,231,2,1357,Correct,1,804
1,RYRYR,113,1,913,Correct,1,824
1,PDPNP,91,3,957,Correct,1,663
1,KXKXK,13,1,956,Correct,1,905
1,ZYZYZ,152,1,816,Correct,1,792
1,VKVKV,153,1,662,Correct,1,890
1,YZYZY,154,1,694,Correct,1,765
1,NLNZN,161,2,677,Correct,1,704
1,ZNDYZ,233,2,1296,Correct,1,924
1,PCPXP,222,2,791,Correct,1,767
1,ZVZFZ,162,2,1004,Correct,1,865
1,RCRZR,163,2,779,Correct,1,921
1,LRLRL,151,1,627,Correct,1,895
1,ZDZDZ,10,3,516,Correct,1,802
1,RNRZR,14,2,669,Correct,1,689
1,CXCYC,162,2,689,Correct,1,660
1,RCRLR,163,2,650,Correct,1,896
1,FRFRF,151,1,590,Correct,1,689
1,XFXFX,152,1,603,Correct,1,950
1,RPRLR,161,2,616,Correct,1,923
1,YXYRY,162,2,709,Correct,1,825
1,FYFYF,151,1,615,Correct,1,695
1,YZYVY,161,2,570,Correct,1,743
1,YKYKY,151,1,584,Correct,1,912
1,XRXRX,152,1,556,Correct,1,774
1,XVXZX,161,2,577,Correct,1,748
1,PDPDP,11,3,694,Correct,1,792
1,ZFZFZ,13,1,642,Correct,1,855
1,PXPXP,152,1,784,Correct,1,847
1,LYLYL,153,1,627,Correct,1,950
1,NKNKD,225,1,813,Correct,1,944
1,ZNZNZ,113,1,1399,Correct,1,824
1,PYPZP,161,2,692,Correct,1,941
1,XPXPX,151,1,802,Correct,1,726
1,VLVLV,152,1,701,Correct,1,764
1,PKPXP,161,,,Incorrect,1,918
1,FZFZF,151,1,737,Correct,1,827
1,LDLDL,12,3,683,Correct,1,876
2,U,5,3,7075,New Target,2,792
2,ZVZFZ,161,2,719,Correct,2,881
2,FZFZF,151,1,641,Correct,2,692
2,RFRFR,152,1,799,Correct,2,814
2,NZNKN,161,2,613,Correct,2,887
2,FZFNF,162,2,676,Correct,2,803
2,RXRXR,151,1,979,Correct,2,816
2,KRKYK,161,2,561,Correct,2,898
2,NZNPN,162,2,803,Correct,2,849
2,XPXPX,151,1,815,Correct,2,721
2,CUCUC,7,3,610,Correct,2,906
2,RFRFR,13,1,659,Correct,2,769
2,VYVXV,161,2,601,Correct,2,664
2,VDVDV,191,1,894,Correct,2,738
2,ZKZRZ,15,2,778,Correct,2,694
2,XCXCX,151,1,613,Correct,2,789
2,CNCUC,82,3,744,Correct,2,761
2,RCRCR,13,1,704,Correct,2,879
2,ZPZXZ,161,2,550,Correct,2,946
2,FKFYF,162,2,603,Correct,2,774
2,ZFZYZ,163,2,616,Correct,2,880
2,PXPXP,151,2,775,Incorrect,2,802
2,URCKC,231,2,931,Correct,2,735
2,PCPCP,113,1,643,Correct,2,917
2,XNXNX,152,1,625,Correct,2,900
2,RCRZR,161,2,640,Correct,2,784
2,XVXVX,151,1,558,Correct,2,846
2,NRNRN,152,1,656,Correct,2,878
2,FPFPF,225,1,563,Correct,2,724
2,XVXFX,222,2,978,Correct,2,906
2,PRPRP,151,1,704,Correct,2,912
2,FYFCF,161,2,718,Correct,2,756
2,XUXFX,91,3,493,Correct,2,760
2,CYCVC,14,2,623,Correct,2,914
2,VDVKV,172,1,782,Incorrect,2,866
2,YCYCY,15,1,621,Correct,2,672
2,NKNLN,161,2,646,Correct,2,931
2,XPUKX,233,2,566,Correct,2,826
2,ZPZPZ,113,1,756,Correct,2,859
2,KRKRK,152,1,563,Correct,2,670
2,XKXKX,153,1,684,Correct,2,659
2,YUYVY,101,3,757,Correct,2,914
2,XKXFU,235,2,691,Correct,2,731
2,NFNFN,113,1,578,Correct,2,783
2,KDKDK,193,1,819,Correct,2,797
2,XYXKX,16,2,703,Correct,2,704
2,YZUZY,223,,,Incorrect,2,799
2,KFKVK,222,2,540,Correct,2,660
2,LYLYL,151,1,754,Correct,2,760
2,CXCDC,184,2,749,Incorrect,2,835
2,XZXNX,16,2,535,Correct,2,804
2,PXPXP,151,2,553,Incorrect,2,892
2,ZRZYZ,161,2,604,Correct,2,791
2,PUPYP,111,1,575,Incorrect,2,716
2,RNRNR,14,1,946,Correct,2,790
2,KDKDK,195,1,857,Correct,2,697
2,KNKNK,15,1,643,Correct,2,720
2,PRPKP,161,2,760,Correct,2,663
2,UNYNY,221,2,1204,Incorrect,2,724
2,NYNYN,113,1,1359,Correct,2,827
2,YXYXY,152,1,596,Incorrect,2,824
2,RDRDR,196,1,737,Correct,2,880
2,FCFCF,15,1,790,Correct,2,947
2,ZKZKZ,152,1,719,Correct,2,839
2,ZUZUZ,12,3,675,Correct,2,665
3,E,5,3,2720,New Target,3,911
3,YZYZY,151,1,888,Correct,3,653
3,VFVNV,161,2,639,Correct,3,759
3,KYKYK,151,1,666,Correct,3,887
3,NKNKN,152,1,875,Correct,3,733
3,XVXNX,161,2,613,Correct,3,719
3,RERFR,71,3,694,Correct,3,760
3,XNXNX,13,1,715,Correct,3,662
3,NXNXN,152,2,635,Incorrect,3,726
3,ZLZNZ,161,2,769,Correct,3,665
3,CUCNC,171,3,922,Incorrect,3,837
3,FYFRF,16,2,885,Correct,3,705
3,ZLZLZ,151,1,913,Correct,3,673
3,YZYZY,152,1,805,Correct,3,887
3,CYCYC,153,1,609,Correct,3,727
3,VUVUV,192,2,1198,Incorrect,3,950
3,PXPRP,16,2,679,Correct,3,833
3,YPYPY,151,1,694,Correct,3,715
3,CECEC,8,3,825,Correct,3,706
3,VNENV,223,1,1485,Correct,3,897
3,KRKFK,222,2,844,Correct,3,757
3,XLXLE,225,1,689,Correct,3,876
3,RFRUR,183,2,703,Correct,3,845
3,XRXLX,16,2,655,Correct,3,760
3,NZNPN,162,2,652,Correct,3,891
3,XZXZX,151,1,1048,Correct,3,893
3,FZFZF,152,1,696,Correct,3,768
3,PFPFP,153,1,1063,Correct,3,782
3,YZYXY,161,1,1060,Incorrect,3,885
3,KEKEK,9,3,832,Correct,3,866
3,CXCPC,14,2,663,Correct,3,893
3,VXVXV,151,1,694,Correct,3,816
3,NUNZN,174,3,1009,Incorrect,3,880
3,RKRVR,16,2,1319,Correct,3,653
3,XRXRX,151,1,1007,Correct,3,755
3,ERNFN,231,2,1346,Incorrect,3,805
3,YRYNY,222,2,1558,Correct,3,751
3,PZPEP,102,3,722,Correct,3,810
3,ZYZXZ,14,2,718,Correct,3,787
3,RZRVR,162,2,801,Correct,3,684
3,XRXRX,151,1,715,Correct,3,785
3,KUKFK,175,2,1316,Correct,3,857
3,RKRKR,15,1,869,Correct,3,912
3,ZFZFZ,152,1,700,Correct,3,811
3,YZYVY,161,2,924,Correct,3,736
3,XPXNX,162,2,704,Correct,3,818
3,YRYRY,151,1,818,Correct,3,678
3,EPVPV,221,1,816,Correct,3,684
3,CRCEC,112,3,1034,Correct,3,786
3,RFRCR,14,2,1048,Correct,3,817
3,CPCVC,162,2,904,Correct,3,815
3,RXRCR,163,2,686,Correct,3,826
3,VNVLV,164,2,1456,Correct,3,692
3,ZXZXZ,151,1,673,Correct,3,743
3,ZCZCZ,152,1,718,Correct,3,818
3,PYPUP,186,2,939,Correct,3,791
3,YKYPY,16,2,672,Correct,3,760
3,YREXY,233,2,735,Correct,3,780
3,ZKZKZ,113,1,796,Correct,3,738
3,XLXNX,161,2,680,Correct,3,703
3,KFKRE,235,2,1298,Correct,3,898
3,RXRLR,222,2,642,Correct,3,931
3,RERXR,121,3,864,Correct,3,852
4,J,5,3,1305,New Target,4,933
4,CYCVC,161,2,896,Correct,4,680
4,RXRCR,162,2,708,Correct,4,840
4,FPFVF,163,2,726,Correct,4,676
4,LZLZL,151,1,612,Correct,4,803
4,PLPLP,152,1,666,Correct,4,691
4,NPNPN,153,1,968,Correct,4,795
4,XZXZX,161,1,639,Incorrect,4,728
4,CNCKC,162,2,849,Correct,4,707
4,PCPYJ,235,2,750,Correct,4,669
4,VYVYV,113,1,599,Correct,4,881
4,RLRLR,152,1,629,Correct,4,856
4,CJCJC,7,3,785,Correct,4,898
4,ZLZLZ,13,1,798,Correct,4,762
4,FZFZF,152,1,697,Correct,4,798
4,CFCFC,153,1,672,Correct,4,890
4,PZPZP,154,1,623,Correct,4,756
4,XEXEX,191,1,1170,Correct,4,770
4,NVNFN,16,2,707,Correct,4,691
4,KYKYK,151,1,1314,Correct,4,760
4,ZNZVZ,161,2,1004,Correct,4,669
4,YVJXY,233,2,769,Correct,4,690
4,XFXFX,113,1,757,Correct,4,935
4,XNXNX,152,1,676,Correct,4,747
4,FJFKF,81,3,542,Correct,4,934
4,CZCYC,14,2,641,Correct,4,779
4,ZXZCZ,162,2,630,Correct,4,661
4,RYRYJ,225,1,777,Correct,4,747
4,FPFZF,222,2,819,Correct,4,842
4,XRXRX,151,1,668,Correct,4,783
4,YPYEY,182,2,1206,Correct,4,911
4,XRXRX,15,1,677,Correct,4,692
4,XZXPX,161,2,628,Correct,4,757
4,CJCJC,9,1,599,Incorrect,4,768
4,ZXZVZ,14,2,636,Correct,4,659
4,VKVKV,151,1,891,Correct,4,808
4,VEVNV,173,2,911,Correct,4,833
4,ZKZVZ,16,2,901,Correct,4,754
4,XVXJX,102,3,719,Correct,4,707
4,RXRVR,14,2,696,Correct,4,937
4,LRLRL,151,1,651,Correct,4,710
4,YNJNY,223,1,970,Correct,4,759
4,NPNJN,222,3,875,Incorrect,4,896
4,ZEZEZ,194,1,594,Correct,4,765
4,ZNZNZ,15,1,613,Correct,4,791
4,YZYZY,152,1,650,Correct,4,735
4,XYXYX,153,1,639,Correct,4,675
4,ZXZXZ,221,1,638,Correct,4,813
4,LYLZL,222,2,642,Correct,4,666
4,CYCNC,162,2,644,Correct,4,757
4,XEXEX,195,1,695,Correct,4,715
4,CVCXC,16,2,568,Correct,4,716
4,ZPZXZ,162,2,751,Correct,4,670
4,FZFZF,151,1,677,Correct,4,948
4,RXRJR,112,3,857,Correct,4,679
4,PRPFP,14,2,638,Correct,4,799
4,PKPEP,186,2,745,Correct,4,918
4,XZXPX,16,2,663,Correct,4,741
4,JCZVZ,231,2,1353,Correct,4,655
4,RXRLR,222,2,817,Correct,4,700
4,VZVZV,151,1,781,Correct,4,744
4,XJXJX,12,3,691,Correct,4,941
5,I,5,3,1725,New Target,5,877
5,PCPCP,151,1,630,Correct,5,799
5,XYXYX,152,1,692,Correct,5,880
5,VXVXV,153,1,705,Correct,5,824
5,XVXVX,154,1,591,Correct,5,759
5,ZRZXZ,161,2,640,Correct,5,758
5,FPFZF,162,2,645,Correct,5,681
5,ZYZYZ,151,1,695,Correct,5,779
5,RVRZR,161,2,658,Correct,5,881
5,CICIC,7,3,804,Correct,5,698
5,XLXLX,13,1,689,Correct,5,804
5,YVYVY,152,1,628,Correct,5,669
5,CJCJC,191,1,801,Correct,5,821
5,FNFCF,16,2,603,Correct,5,808
5,PVPRP,162,2,668,Correct,5,797
5,FZFZF,151,1,716,Correct,5,725
5,NVIVN,223,,,Incorrect,5,882
5,CVCIC,82,2,577,Incorrect,5,759
5,ZXZXZ,13,1,850,Correct,5,887
5,FCFZF,161,2,535,Correct,5,831
5,IXRXR,221,1,616,Correct,5,808
5,ZPZNZ,222,2,811,Correct,5,768
5,VZVZV,151,1,936,Correct,5,701
5,YRYNY,161,2,730,Correct,5,803
5,VNVPV,162,2,663,Correct,5,827
5,RVRJR,182,1,872,Incorrect,5,787
5,VRVRV,15,1,739,Correct,5,687
5,VIVIV,9,3,660,Correct,5,706
5,CXCVC,14,2,579,Correct,5,807
5,PZPZP,151,1,683,Correct,5,746
5,IXVKV,231,2,1234,Correct,5,885
5,YJYCY,173,2,774,Incorrect,5,950
5,VYVYV,15,1,836,Correct,5,725
5,YVYVY,152,1,684,Correct,5,773
5,NVNVN,153,1,855,Correct,5,869
5,XYXVX,161,2,682,Correct,5,921
5,NJNCN,174,2,934,Correct,5,850
5,NXNYN,16,2,909,Correct,5,703
5,VXVCV,162,2,845,Correct,5,924
5,ZKZKZ,151,1,704,Correct,5,950
5,XRXYX,161,2,703,Correct,5,812
5,ZCZXZ,162,2,1005,Correct,5,746
5,KVKYI,235,2,929,Correct,5,702
5,CNCNC,113,1,660,Correct,5,832
5,RIRIR,10,3,614,Correct,5,738
5,VYVXV,14,2,634,Correct,5,747
5,FXIRF,233,2,1192,Correct,5,866
5,PFPFP,113,1,741,Correct,5,742
5,VPVPV,152,1,753,Correct,5,808
5,ZJZJZ,195,1,1430,Correct,5,919
5,ZVZNZ,16,2,665,Correct,5,725
5,YVYXY,162,2,1129,Correct,5,682
5,PRPRP,151,1,755,Correct,5,944
5,YPYPY,152,1,748,Correct,5,861
5,ZIZPZ,111,3,870,Correct,5,828
5,NKNXN,14,2,759,Correct,5,913
5,RZRXR,162,2,765,Correct,5,914
5,RXRXR,151,1,759,Correct,5,771
5,ZJZJZ,196,1,1030,Correct,5,690
5,CVCVI,225,1,1020,Incorrect,5,665
5,NKNKN,113,,,Incorrect,5,695
5,NRNZN,161,2,871,Correct,5,940
5,CNCNC,151,1,661,Correct,5,652
5,RFRIR,122,3,942,Correct,5,933
6,B,5,3,1589,New Target,6,809
6,YKYZY,161,2,677,Correct,6,716
6,VCVRV,162,2,631,Correct,6,748
6,XVXVX,151,1,711,Correct,6,824
6,KZKRK,161,2,608,Correct,6,874
6,ZVZXZ,162,2,612,Correct,6,702
6,RCRNR,163,2,595,Correct,6,821
6,CXCRC,164,2,618,Correct,6,661
6,VNBCV,233,2,955,Correct,6,796
6,CXCVC,222,2,885,Correct,6,662
6,RFRFR,151,1,633,Correct,6,832
6,XPXRX,161,2,675,Correct,6,907
6,RYRBR,72,3,736,Correct,6,798
6,ZKZKZ,13,1,728,Correct,6,903
6,FIFRF,171,2,820,Correct,6,803
6,VZVLV,16,2,692,Correct,6,658
6,RPRVR,162,2,622,Correct,6,910
6,YBYBY,8,3,737,Correct,6,725
6,PYPVP,14,2,794,Correct,6,947
6,NININ,192,1,722,Correct,6,863
6,RNRNR,15,1,643,Correct,6,665
6,NXNVN,161,2,552,Correct,6,660
6,RNRNR,151,1,684,Correct,6,725
6,FRFVF,161,2,588,Correct,6,785
6,YVYFB,235,2,655,Incorrect,6,743
6,ZRZXZ,222,2,619,Correct,6,831
6,VNVIV,193,2,746,Incorrect,6,790
6,PXPNP,16,2,649,Correct,6,755
6,ZXZPZ,162,2,566,Correct,6,884
6,VBVBV,9,3,646,Correct,6,816
6,CXCXC,13,1,776,Correct,6,700
6,PCPFP,161,2,647,Correct,6,704
6,KNKNK,151,1,613,Correct,6,874
6,XIXIX,194,1,1181,Correct,6,659
6,CYCYC,15,1,725,Correct,6,905
6,FVFYF,161,2,798,Correct,6,878
6,YNYRY,162,2,770,Correct,6,923
6,BVPXP,231,2,1070,Correct,6,761
6,NXNXN,113,1,747,Correct,6,905
6,FRFRF,152,1,825,Correct,6,707
6,YVYVY,153,1,725,Correct,6,739
6,ZKZCZ,161,2,783,Correct,6,911
6,VIVXV,175,2,733,Correct,6,655
6,PRBRP,223,1,758,Correct,6,836
6,YZYBY,102,3,767,Correct,6,854
6,CXCVC,14,2,862,Correct,6,760
6,FYFYF,151,1,658,Correct,6,867
6,VKVXV,161,2,610,Correct,6,779
6,ZBZBZ,11,3,698,Correct,6,665
6,FPFNF,14,2,649,Correct,6,717
6,CXCXC,151,1,675,Correct,6,870
6,YCYCY,152,1,625,Correct,6,834
6,FPFPF,153,1,661,Correct,6,766
6,CVCVB,225,1,1094,Correct,6,690
6,ZCZCZ,113,1,610,Correct,6,898
6,CZCNC,161,2,884,Correct,6,748
6,KIKFK,176,2,697,Correct,6,835
6,PXPXP,15,1,675,Correct,6,862
6,RYRYR,152,1,638,Correct,6,904
6,ZRZCZ,161,2,787,Correct,6,663
6,RVRVR,151,1,672,Correct,6,739
6,XYXNX,161,2,698,Correct,6,911
6,BVKVK,221,1,852,Correct,6,890
6,CBCBC,12,3,541,Correct,6,746
7,W,5,3,2231,New Target,7,785
7,RKRKR,151,1,846,Correct,7,854
7,CVCRC,161,2,599,Correct,7,777
7,PKPKP,151,1,604,Correct,7,713
7,FPFPF,152,1,653,Correct,7,750
7,VRVPV,161,2,729,Correct,7,885
7,ZKZYZ,162,2,678,Correct,7,800
7,PVPCP,233,2,759,Correct,7,758
7,KVKVK,113,1,565,Correct,7,709
7,YXYVY,161,2,598,Correct,7,805
7,FNFNF,151,1,599,Correct,7,802
7,YWYWY,7,1,600,Incorrect,7,804
7,ZYZYZ,13,1,522,Correct,7,712
7,PYPYP,152,1,545,Correct,7,708
7,XRXRX,153,1,659,Correct,7,856
7,PXPXP,154,1,610,Correct,7,791
7,FCFBF,181,3,752,Incorrect,7,918
7,FVFVF,15,,,Incorrect,7,726
7,CYCZC,161,2,1107,Correct,7,926
7,XZXVX,162,2,1042,Correct,7,729
7,PFPFP,151,1,978,Correct,7,857
7,RVRLR,161,2,905,Correct,7,681
7,ZBZBZ,192,2,928,Incorrect,7,818
7,VCVNV,16,2,1294,Correct,7,902
7,NWNWN,8,3,596,Correct,7,807
7,XNXVX,14,2,661,Correct,7,830
7,CXCNC,162,2,880,Correct,7,864
7,YVYVW,225,1,1446,Correct,7,854
7,VFVFV,113,1,864,Correct,7,947
7,VFWFV,223,1,1176,Correct,7,724
7,CVCFC,222,2,721,Correct,7,854
7,YBYBY,193,1,1113,Correct,7,873
7,PYPYP,15,1,586,Correct,7,675
7,NKNWN,91,3,748,Correct,7,814
7,VNVNV,13,1,769,Correct,7,934
7,RVRVR,152,1,637,Correct,7,786
7,FVFBF,184,2,649,Incorrect,7,915
7,VZVKV,16,2,968,Correct,7,815
7,VPVCV,162,2,582,Correct,7,893
7,WYZCZ,231,2,628,Correct,7,850
7,PFPFP,113,1,715,Correct,7,654
7,PRPRP,152,1,836,Correct,7,901
7,NWNWN,10,3,1191,Correct,7,887
7,VKVCV,14,2,653,Correct,7,892
7,WPYPY,221,1,639,Correct,7,725
7,VBVBV,195,1,1033,Correct,7,890
7,ZKZYZ,16,2,684,Correct,7,789
7,XYXYX,151,1,1157,Correct,7,890
7,FZFXF,161,2,1201,Correct,7,767
7,XKXKX,151,1,938,Correct,7,772
7,XPXPX,152,2,672,Incorrect,7,806
7,FWFWF,11,3,830,Correct,7,856
7,FNFBF,186,2,770,Correct,7,881
7,ZVZYZ,16,2,974,Correct,7,707
7,FZFZF,151,1,658,Correct,7,806
7,NPNFW,235,2,1220,Correct,7,671
7,PCPCP,113,1,651,Correct,7,867
7,NKNWN,122,3,711,Correct,7,881
8,M,5,3,1047,New Target,8,759
8,VYVNV,161,2,672,Correct,8,844
8,KLKNK,162,2,589,Correct,8,870
8,NRNRN,151,1,891,Correct,8,843
8,VNVFV,161,2,708,Correct,8,711
8,XNXNM,225,2,691,Incorrect,8,745
8,CXCVC,222,2,651,Correct,8,919
8,KRKZK,162,2,602,Correct,8,790
8,NMNFN,71,3,647,Correct,8,905
8,ZFZFZ,13,1,690,Correct,8,916
8,YPYCY,161,2,513,Correct,8,750
8,KCKCK,151,1,699,Correct,8,653
8,VNVNV,152,3,678,Incorrect,8,884
8,LXLXL,153,1,1208,Correct,8,702
8,CLCLC,154,1,976,Correct,8,833
8,NYNYN,155,1,888,Correct,8,650
8,LCMYL,233,2,1276,Correct,8,879
8,NCNCN,113,1,616,Correct,8,722
8,ZVZRZ,161,2,583,Correct,8,787
8,ZVZVZ,151,1,1211,Correct,8,756
8,PZPVP,161,2,725,Correct,8,843
8,PWPNP,171,2,1086,Correct,8,869
8,KLKCM,235,2,1016,Correct,8,925
8,XMXMX,8,3,539,Correct,8,771
8,PRPXP,14,2,608,Correct,8,779
8,CVCYC,162,2,766,Correct,8,895
8,PXPMP,92,3,746,Correct,8,777
8,ZCZLZ,14,2,533,Correct,8,810
8,XWXWX,192,2,946,Incorrect,8,928
8,ZCZLZ,16,2,544,Correct,8,935
8,MNCYC,231,2,887,Correct,8,704
8,ZXZXZ,113,1,701,Correct,8,753
8,YRYNY,161,2,635,Correct,8,785
8,ZLZPZ,162,2,654,Correct,8,749
8,VZVZV,151,1,669,Correct,8,814
8,MXPXP,221,1,656,Correct,8,670
8,VWVWV,193,1,1178,Correct,8,872
8,PYPYP,16,1,675,Incorrect,8,900
8,XPXVX,162,2,650,Correct,8,948
8,XLXLX,151,1,553,Correct,8,815
8,YMYMY,10,3,792,Correct,8,885
8,VYVYV,13,1,641,Correct,8,796
8,PWPZP,174,2,704,Correct,8,820
8,PYPKP,16,2,526,Correct,8,809
8,NPNXN,162,2,1078,Correct,8,705
8,KVKVK,223,1,844,Correct,8,708
8,NVNFN,222,2,999,Correct,8,653
8,XNXNX,151,1,632,Correct,8,822
8,YZYMY,112,3,538,Correct,8,731
8,PFPFP,13,1,701,Correct,8,827
8,ZWZWZ,195,1,1036,Correct,8,793
8,PCPZP,16,2,808,Correct,8,919
8,LRLPL,162,2,739,Correct,8,789
8,CZCZC,151,1,639,Correct,8,842
8,NZNZN,152,1,750,Correct,8,778
8,CVCXC,161,2,605,Correct,8,736
8,XCXCX,151,1,562,Correct,8,713
8,YWYWY,196,2,936,Incorrect,8,679
8,NLNLN,15,1,680,Correct,8,898
8,VNVNV,152,1,641,Correct,8,919
8,ZMZMZ,12,3,738,Correct,8,756
9,S,5,3,1682,New Target,9,892
9,NZNZN,151,1,699,Correct,9,876
9,KVKZK,161,2,524,Correct,9,750
9,LZLZL,151,1,634,Correct,9,949
9,XLXLX,152,1,811,Correct,9,743
9,ZXZXZ,153,1,997,Correct,9,769
9,KNKZK,161,2,563,Correct,9,882
9,NRNYN,162,2,631,Correct,9,774
9,CLCVC,163,2,866,Correct,9,910
9,ZCZFZ,164,2,567,Correct,9,819
9,NSNSN,7,3,777,Correct,9,845
9,VZVZV,13,1,592,Correct,9,910
9,NVNCN,161,2,688,Correct,9,803
9,VMVMV,191,1,1346,Correct,9,701
9,CVCXC,16,2,519,Correct,9,755
9,ZYZRZ,162,2,624,Correct,9,675
9,XNXZX,163,2,578,Correct,9,745
9,PXPXP,151,1,647,Correct,9,760
9,VCVSV,82,3,755,Correct,9,923
9,PRPCP,14,2,825,Correct,9,921
9,ZMZMZ,192,1,1061,Incorrect,9,683
9,ZFZFZ,15,1,659,Correct,9,851
9,FCFCF,152,1,568,Correct,9,651
9,YLYZY,161,2,599,Correct,9,859
9,KNKVK,162,2,679,Correct,9,838
9,SFPCP,231,2,1270,Correct,9,745
9,RPRPR,113,1,686,Correct,9,782
9,XMXMX,193,1,1088,Correct,9,685
9,KFKFK,15,1,732,Correct,9,867
9,VSVSV,9,3,731,Correct,9,691
9,YVSVY,223,1,810,Correct,9,702
9,VPVPV,113,1,595,Correct,9,763
9,XZXZX,152,1,586,Correct,9,698
9,KZKXK,161,2,653,Correct,9,764
9,RFRPR,162,2,792,Correct,9,863
9,NVNVS,225,1,911,Correct,9,863
9,ZXZXZ,113,1,787,Correct,9,800
9,SRVRV,221,1,879,Correct,9,807
9,YCYCY,113,1,562,Correct,9,874
9,KMKZK,174,2,561,Correct,9,837
9,FZSVF,233,2,671,Correct,9,921
9,VYVYV,113,1,635,Correct,9,870
9,LVLVL,152,1,630,Correct,9,907
9,YFYFY,153,1,683,Correct,9,650
9,NXNSN,102,3,742,Correct,9,830
9,FNFCF,14,2,656,Correct,9,809
9,KVKVK,151,1,668,Correct,9,914
9,VZVCV,161,2,736,Correct,9,700
9,ZYZMZ,185,2,683,Correct,9,857
9,VXVZV,16,2,550,Correct,9,915
9,VPVPV,151,1,629,Correct,9,889
9,RVRNS,235,2,680,Correct,9,745
9,YZYZY,113,1,801,Correct,9,936
9,ZSZSZ,11,3,585,Correct,9,841
9,FRFRF,13,1,843,Correct,9,743
9,ZMZMZ,196,1,782,Correct,9,867
9,NZNXN,16,2,589,Correct,9,669
9,LSLFL,121,2,643,Incorrect,9,723
10,Q,5,3,1769,New Target,10,933
10,ZVZPZ,161,2,524,Correct,10,915
10,RZRZR,151,1,704,Correct,10,831
10,ZFZFZ,152,1,956,Correct,10,822
10,RZRZR,153,1,1438,Correct,10,804
10,PZPXP,161,2,638,Correct,10,792
10,VFQPV,233,2,606,Correct,10,808
10,ZPZRZ,222,2,1217,Correct,10,757
10,CYCVC,162,2,791,Correct,10,888
10,CPCPC,151,1,886,Correct,10,696
10,YZYQY,72,3,824,Correct,10,911
10,FVFXF,14,2,564,Correct,10,676
10,YNYNQ,225,1,642,Correct,10,903
10,ZYZYZ,113,1,664,Correct,10,663
10,FRFSF,181,2,674,Incorrect,10,914
10,XNXPX,16,2,565,Correct,10,670
10,NXNXN,151,1,681,Correct,10,738
10,PVPZP,161,2,572,Correct,10,706
10,XVXPX,162,2,992,Correct,10,694
10,FXFVF,163,2,901,Correct,10,715
10,NSNKN,172,2,753,Incorrect,10,674
10,VXVNV,16,2,587,Correct,10,803
10,XZXZX,151,1,785,Correct,10,668
10,VQVQV,8,3,651,Correct,10,731
10,ZYZPZ,14,2,676,Correct,10,936
10,PZPSP,183,2,886,Correct,10,688
10,YVYVY,15,1,1310,Correct,10,751
10,NCNQN,92,3,606,Correct,10,938
10,FCFVF,14,2,690,Correct,10,711
10,ZFZFZ,151,1,619,Correct,10,929
10,NSNSN,194,1,1021,Correct,10,705
10,YPYFY,16,2,621,Correct,10,826
10,ZKZKZ,151,1,651,Correct,10,850
10,QZRCR,231,2,617,Correct,10,789
10,YPYVY,222,2,858,Correct,10,754
10,ZNZNZ,151,1,615,Correct,10,652
10,VQVQV,10,3,726,Correct,10,868
10,RVRZR,14,2,785,Correct,10,851
10,KRKSK,185,2,653,Correct,10,734
10,NPNPN,15,1,814,Correct,10,774
10,YPYPY,152,1,568,Correct,10,717
10,VCVYV,161,2,589,Correct,10,751
10,FPFNF,162,2,542,Correct,10,762
10,QVXVX,221,1,1189,Correct,10,755
10,ZVZRZ,222,2,562,Correct,10,730
10,LFLFL,151,1,850,Correct,10,863
10,VLVLV,152,1,633,Correct,10,766
10,KXQXK,223,1,820,Correct,10,941
10,YQYQY,11,3,706,Correct,10,692
10,YCYCY,13,1,636,Correct,10,921
10,PZPYP,161,2,711,Correct,10,897
10,LPLFL,162,2,739,Correct,10,804
10,VSVSV,196,1,1070,Correct,10,845
10,VFVYQ,235,2,652,Correct,10,915
10,CZCXC,222,2,708,Correct,10,944
10,PVPCP,162,2,631,Correct,10,667
10,CXCXC,151,1,885,Correct,10,889
10,NZNZN,152,1,650,Correct,10,740
10,YPYCY,161,2,748,Correct,10,686
10,ZQZQZ,12,3,778,Correct,10,807
11,T,5,3,1380,New Target,11,886
11,KFKFK,151,1,1069,Correct,11,674
11,LZLZL,152,1,657,Correct,11,716
11,PFPVP,161,2,636,Correct,11,915
11,FRFPF,162,2,637,Correct,11,811
11,FZFZF,151,1,615,Correct,11,937
11,VTVTV,7,3,838,Correct,11,884
11,KYKCK,14,2,506,Correct,11,865
11,VPVPV,151,1,658,Correct,11,697
11,XQXQX,191,2,1250,Incorrect,11,764
11,PZPYP,16,2,686,Correct,11,685
11,KXKLK,162,2,1381,Correct,11,941
11,TCNCN,221,1,618,Correct,11,739
11,PZPNP,222,2,599,Correct,11,895
11,RCRPR,162,2,684,Correct,11,703
11,PZPRT,235,2,588,Correct,11,726
11,XFXVX,222,2,669,Correct,11,757
11,LTLVL,81,3,835,Correct,11,657
11,ZCZPZ,14,2,670,Correct,11,705
11,NCNQN,182,2,770,Correct,11,657
11,XZXNX,16,2,538,Correct,11,808
11,ZPZPZ,151,1,586,Correct,11,903
11,CFCFC,152,1,622,Correct,11,728
11,VXTRV,233,2,547,Correct,11,713
11,CFCVC,222,2,1238,Correct,11,815
11,PYPYP,151,1,626,Correct,11,690
11,FQFYF,173,2,622,Correct,11,868
11,CNCFC,16,2,797,Correct,11,862
11,PTPTP,9,3,619,Correct,11,677
11,ZCZCZ,13,1,944,Correct,11,684
11,KZKZK,152,1,1284,Correct,11,822
11,RLRVR,161,2,556,Correct,11,737
11,ZRZKZ,162,2,660,Correct,11,663
11,KLKLT,225,1,622,Correct,11,914
11,ZQZQZ,194,1,1004,Correct,11,853
11,VZVZV,15,1,673,Correct,11,689
11,RVRZR,161,2,661,Correct,11,657
11,ZPZCZ,162,2,742,Correct,11,785
11,VYVYV,151,1,548,Correct,11,762
11,RVRVR,152,1,615,Correct,11,787
11,PTPTP,10,3,915,Correct,11,942
11,PXPXP,13,1,1139,Correct,11,925
11,KCKCK,152,1,626,Correct,11,775
11,YVYVY,153,1,660,Correct,11,759
11,CYCYC,154,1,707,Correct,11,757
11,XCXCX,155,1,1565,Correct,11,895
11,CYCQC,185,2,666,Correct,11,754
11,KCKNK,16,2,669,Correct,11,677
11,VPVPV,151,1,602,Correct,11,815
11,TXFZF,231,2,698,Correct,11,855
11,NYNVN,222,2,538,Correct,11,702
11,VQVXV,176,2,580,Correct,11,659
11,ZRZRZ,15,1,817,Correct,11,864
11,VTVZV,111,3,731,Correct,11,847
11,PXPVP,14,2,611,Correct,11,897
11,FVFVF,151,1,586,Correct,11,658
11,VRVLV,161,2,584,Correct,11,878
11,YCYCY,151,1,620,Correct,11,769
11,XZTZX,223,1,600,Correct,11,905
11,VTVTV,12,3,809,Correct,11,819
12,O,5,3,2481,New Target,12,913
12,VXVLV,161,2,550,Correct,12,928
12,KVKCK,162,2,829,Correct,12,653
12,VLVLV,151,1,661,Correct,12,763
12,ZCZVZ,161,2,547,Correct,12,800
12,KFKFK,151,1,610,Correct,12,890
12,XKXKX,152,1,583,Correct,12,652
12,YXYXY,153,1,699,Correct,12,741
12,FVFVF,154,1,637,Correct,12,713
12,PVPOP,72,2,557,Incorrect,12,769
12,ZXZYZ,14,2,754,Correct,12,730
12,PXPVP,162,2,679,Correct,12,946
12,ZTZTZ,191,1,1127,Correct,12,749
12,CVCKC,16,2,931,Correct,12,889
12,CKCKC,151,1,1266,Correct,12,942
12,NPNPN,152,1,699,Correct,12,780
12,ZRZNZ,161,2,644,Correct,12,891
12,OZCZC,221,1,805,Correct,12,822
12,LFLFL,113,1,738,Correct,12,738
12,CXCXC,152,1,1278,Correct,12,890
12,KPKPK,153,1,659,Correct,12,871
12,FRFKF,161,2,623,Correct,12,876
12,FOFOF,8,3,609,Correct,12,743
12,ZFZFZ,13,1,621,Correct,12,948
12,LKLZO,235,2,654,Correct,12,763
12,KLKZK,222,2,712,Correct,12,926
12,YXYCY,162,2,696,Correct,12,756
12,LOLOL,9,3,642,Correct,12,915
12,XLXLX,13,1,649,Correct,12,662
12,XVXVX,152,1,635,Correct,12,813
12,FTFTF,192,1,1003,Correct,12,736
12,OXNZN,231,1,1457,Incorrect,12,730
12,CZCZC,113,1,578,Correct,12,753
12,LZLZL,152,1,582,Correct,12,778
12,VLVPV,161,2,519,Correct,12,751
12,VYVYO,225,1,573,Correct,12,725
12,XKXKX,113,1,730,Correct,12,942
12,RTRTR,193,1,724,Correct,12,809
12,KVKCK,16,2,550,Correct,12,689
12,ROROR,101,3,586,Correct,12,715
12,PRPRP,13,1,716,Correct,12,841
12,LYLVL,161,2,645,Correct,12,920
12,PLPLP,151,1,621,Correct,12,940
12,CTCTC,194,1,898,Correct,12,666
12,XZXYX,16,2,589,Correct,12,700
12,NKNKN,151,1,762,Correct,12,923
12,VLVZV,161,2,737,Correct,12,868
12,YOYOY,11,3,651,Correct,12,848
12,PZOZP,223,1,1029,Correct,12,927
12,FYFYF,113,1,663,Correct,12,806
12,ZXZVZ,161,2,648,Correct,12,750
12,VKVZV,162,2,756,Correct,12,838
12,ZTZTZ,195,1,1010,Correct,12,720
12,LKLZL,16,2,576,Correct,12,893
12,KCKVK,162,2,550,Correct,12,722
12,PXPKP,163,2,1359,Correct,12,655
12,KCOZK,233,2,957,Correct,12,907
12,FKFKF,113,1,762,Correct,12,923
12,CTCRC,176,2,870,Correct,12,805
12,NXNXN,15,1,690,Correct,12,699
12,KXKVK,161,2,688,Correct,12,820
12,CPCOC,122,3,946,Correct,12,721
13,H,5,3,2707,New Target,13,703
13,VFVNV,151,2,703,Incorrect,13,931
13,YVYVY,152,1,695,Correct,13,942
13,XVXVX,153,1,623,Correct,13,871
13,NRNXN,161,2,542,Correct,13,823
13,PZPKP,162,2,550,Correct,13,650
13,HLVLV,221,1,810,Correct,13,750
13,CXCZC,222,2,648,Correct,13,676
13,LHLYL,71,3,716,Correct,13,717
13,YKYFY,14,2,519,Correct,13,856
13,YOYRY,171,1,840,Incorrect,13,871
13,ZKZYZ,16,1,654,Incorrect,13,865
13,RZRZR,151,1,798,Correct,13,812
13,NFNYN,161,2,587,Correct,13,716
13,KVKFK,162,2,616,Correct,13,859
13,XFXYX,163,2,488,Correct,13,768
13,LKLVL,164,2,454,Correct,13,949
13,NLNLN,151,1,600,Correct,13,851
13,XCXOX,182,2,742,Correct,13,852
13,FXFXF,15,1,685,Correct,13,910
13,VHVHV,8,3,634,Correct,13,813
13,PVPVP,13,1,1113,Correct,13,848
13,CRCXC,161,2,663,Correct,13,842
13,NXNXN,151,1,950,Correct,13,810
13,XRXRX,152,1,662,Correct,13,912
13,YFYXY,161,2,512,Correct,13,944
13,ZOZOZ,193,1,999,Correct,13,736
13,RZRZR,15,1,655,Correct,13,653
13,FKFKF,152,1,631,Correct,13,939
13,PFPFP,153,1,583,Correct,13,826
13,XYXHX,92,3,805,Correct,13,918
13,RZRKR,14,2,628,Correct,13,657
13,FLFLH,225,1,1061,Correct,13,792
13,KRKRK,113,1,642,Correct,13,828
13,ZVZNZ,161,2,696,Correct,13,672
13,ZOZOZ,194,1,883,Correct,13,873
13,FZFZF,15,1,569,Correct,13,759
13,FHFKF,101,3,896,Correct,13,671
13,ZXHLZ,233,2,902,Correct,13,775
13,FKFXF,222,2,608,Correct,13,699
13,CFCYC,162,2,630,Correct,13,718
13,ZXZVZ,163,2,644,Correct,13,777
13,KCKOK,185,2,682,Correct,13,674
13,ZXZVH,235,2,742,Correct,13,811
13,CKCKC,113,1,644,Correct,13,763
13,ZXZCZ,161,2,465,Correct,13,864
13,YVYVY,151,1,664,Correct,13,771
13,RVHVR,223,2,482,Incorrect,13,925
13,ZRZRZ,113,1,682,Correct,13,693
13,ZHZHZ,11,1,621,Incorrect,13,674
13,VZVZV,13,1,752,Correct,13,714
13,HZVRV,231,2,942,Correct,13,771
13,FVFVF,113,1,659,Correct,13,712
13,RNRCR,161,2,599,Correct,13,707
13,COCOC,196,1,950,Correct,13,794
13,VNVXV,16,2,722,Correct,13,948
13,XHXHX,12,3,658,Correct,13,691
14,G,5,3,1484,New Target,14,865
14,FZFZF,151,1,741,Correct,14,891
14,RPRVR,161,2,514,Correct,14,730
14,XCXCX,151,1,681,Correct,14,670
14,YXYXY,152,1,1219,Correct,14,899
14,KZKZK,153,1,753,Correct,14,695
14,RYRKR,161,2,591,Correct,14,764
14,FYFNF,162,2,678,Correct,14,650
14,VKVKV,151,1,690,Correct,14,855
14,KPGPK,223,1,671,Correct,14,747
14,YNYNY,113,1,567,Correct,14,948
14,VYVYV,152,1,584,Correct,14,776
14,YCYXY,161,2,477,Correct,14,698
14,LKLGL,72,3,584,Correct,14,698
14,VXVXV,13,1,680,Correct,14,808
14,KCKVK,161,2,466,Correct,14,887
14,YKYKY,151,1,700,Correct,14,706
14,RHRXR,171,2,552,Correct,14,835
14,FVFCF,16,2,556,Correct,14,751
14,YXYGY,82,3,676,Correct,14,678
14,CLCLC,13,1,673,Correct,14,903
14,ZXZCZ,161,2,525,Correct,14,795
14,VLVFV,162,2,560,Correct,14,812
14,CPCPG,225,1,757,Correct,14,769
14,KHKNK,172,2,595,Correct,14,745
14,ZKZVZ,16,2,633,Correct,14,687
14,YKYLY,162,2,566,Correct,14,892
14,CNCNC,151,1,994,Correct,14,908
14,PGPGP,9,3,758,Correct,14,782
14,VPVPV,13,1,787,Correct,14,777
14,FXGRF,233,2,618,Correct,14,871
14,CYCVC,222,2,701,Correct,14,704
14,FNFNF,151,1,750,Correct,14,722
14,KFKCK,161,2,573,Correct,14,675
14,ZFZHZ,183,2,555,Correct,14,865
14,NXNXN,15,1,909,Correct,14,842
14,FNFNF,152,1,591,Correct,14,930
14,LXLNG,235,2,625,Correct,14,736
14,XKXVX,222,2,722,Correct,14,770
14,ZHZHZ,194,1,1180,Correct,14,860
14,PFPFP,15,1,617,Correct,14,752
14,ZYZYZ,152,1,598,Correct,14,866
14,XPXVX,161,2,500,Correct,14,817
14,YCYCY,151,1,793,Correct,14,772
14,RGRGR,10,3,554,Correct,14,653
14,VRVRV,13,1,556,Correct,14,774
14,PKPNP,161,2,575,Correct,14,781
14,XGXGX,11,3,691,Correct,14,700
14,GZYVY,231,2,448,Correct,14,801
14,VCVNV,222,2,555,Correct,14,711
14,VHVHV,195,1,916,Correct,14,660
14,LXLNL,16,2,622,Correct,14,670
14,GKPKP,221,1,814,Correct,14,839
14,XRXPX,222,2,693,Correct,14,847
14,XNXNX,151,1,802,Correct,14,787
14,KHKNK,176,2,628,Incorrect,14,937
14,RZRZR,15,1,617,Correct,14,669
14,CGCFC,121,3,870,Correct,14,871
15,A,5,3,1191,New Target,15,730
15,XRXFX,161,2,599,Correct,15,666
15,RXRKR,162,2,555,Correct,15,779
15,YRYRY,151,3,1000,Incorrect,15,887
15,XPXPX,152,1,715,Correct,15,744
15,RPRPR,153,1,1017,Correct,15,765
15,NCNCN,154,1,525,Correct,15,717
15,RXRZR,161,2,547,Correct,15,713
15,NANAN,7,3,613,Correct,15,844
15,KCKYK,14,2,483,Correct,15,884
15,XKXFX,162,2,628,Correct,15,936
15,ZLZKZ,163,2,521,Correct,15,709
15,VCVZV,164,2,640,Correct,15,695
15,XCXVX,165,2,532,Correct,15,700
15,LKLZA,235,2,517,Correct,15,888
15,NCNCN,113,1,644,Correct,15,941
15,YGYGY,191,1,985,Correct,15,657
15,VLVLV,15,1,618,Correct,15,785
15,XRXRX,152,1,701,Correct,15,761
15,KAKPK,81,3,804,Correct,15,921
15,YZAZY,233,1,778,Incorrect,15,853
15,CFCFC,113,1,568,Correct,15,728
15,VNVLV,161,2,572,Correct,15,833
15,KPKVK,162,2,599,Correct,15,911
15,NCNRN,163,2,967,Correct,15,837
15,FGFGF,192,1,891,Correct,15,722
15,RCRYR,16,2,526,Correct,15,864
15,KRKCK,162,2,643,Correct,15,802
15,CRCRC,151,1,676,Correct,15,743
15,XPAPX,223,1,628,Correct,15,778
15,LPLXL,222,2,596,Correct,15,877
15,CGCVC,173,1,1238,Incorrect,15,767
15,FKFZF,16,2,539,Correct,15,878
15,CACAC,9,3,642,Correct,15,741
15,XCXCX,13,1,660,Correct,15,724
15,AXRXR,221,1,800,Correct,15,905
15,NKNRN,222,2,653,Correct,15,745
15,KNKFK,162,2,638,Correct,15,724
15,KAKAK,10,3,699,Correct,15,831
15,ZCZRZ,14,2,604,Correct,15,723
15,RPRPR,151,1,685,Correct,15,778
15,NCNCN,152,1,696,Correct,15,844
15,RYRGR,184,2,522,Correct,15,670
15,VPVPV,15,1,602,Correct,15,893
15,RCRCA,225,2,552,Incorrect,15,897
15,KXKPK,222,2,551,Correct,15,905
15,NPNPN,151,1,793,Correct,15,780
15,YCYCY,152,1,592,Correct,15,901
15,PXPAP,112,3,787,Correct,15,802
15,ZCZNZ,14,2,572,Correct,15,751
15,KYKGK,185,2,638,Correct,15,826
15,ANLPL,231,2,1049,Correct,15,850
15,CXCPC,222,2,1066,Correct,15,805
15,YRYRY,151,2,720,Incorrect,15,661
15,LGLGL,196,1,892,Correct,15,833
15,VYVLV,16,2,545,Correct,15,821
15,KVKVK,151,1,903,Correct,15,722
15,RKRKR,152,1,586,Correct,15,857
15,VXVXV,153,1,796,Correct,15,819
15,XAXAX,12,3,852,Correct,15,871
