Trial No,Stimulus,Trigger,Response,Response Time(ms),Correct,Block,Fixation Duration
Practice
OT Practice
1,SKSKS,15,,,False,0,763
1,DLDUD,16,2,911,Correct,0,901
1,PDPGP,16,1,662,False,0,664
1,MWMWM,15,1,868,Correct,0,706
1,FTFTF,15,1,918,Correct,0,837
1,AXAMA,16,2,762,Correct,0,712
1,RYRGR,16,2,692,Correct,0,735
1,DODOD,15,1,842,Correct,0,845
1,QTQAQ,16,2,636,Correct,0,853
1,YEYEY,15,1,713,Correct,0,761
2,GYGDG,16,2,725,Correct,0,650
2,SWSWS,15,1,703,Correct,0,791
2,HLHUH,16,2,950,Correct,0,868
2,DEDED,15,1,727,Correct,0,820
2,ZPZOZ,16,2,653,Correct,0,908
2,ATATA,15,1,682,Correct,0,793
2,QOQOQ,15,1,618,Correct,0,688
2,FPFGF,16,2,566,Correct,0,840
2,TRTET,16,2,647,Correct,0,733
2,DQDQD,15,1,881,Correct,0,840
4,PLPLP,15,1,806,Correct,0,739
4,ATAIA,16,2,625,Correct,0,701
4,SKSGS,16,2,703,Correct,0,789
4,ZYZYZ,15,1,825,Correct,0,778
4,QSQSQ,15,1,622,Correct,0,852
4,TZTDT,16,1,822,False,0,944
4,JYJGJ,16,2,778,Correct,0,880
4,DYDYD,15,1,854,Correct,0,683
4,LTLCL,16,2,748,Correct,0,816
4,FQFEF,16,2,609,Correct,0,815
1,SKSKS,15,1,828,Correct,0,749
1,DLDUD,16,2,636,Correct,0,918
1,PDPGP,16,2,807,Correct,0,803
1,MWMWM,15,1,665,Correct,0,854
1,FTFTF,15,1,903,Correct,0,701
1,AXAMA,16,2,663,Correct,0,823
1,RYRGR,16,2,703,Correct,0,851
1,DODOD,15,1,678,Correct,0,900
1,QTQAQ,16,2,717,Correct,0,898
1,YEYEY,15,1,758,Correct,0,777
DT Practice
1,TKTKT,15,,,False,0,950
1,SLSUS,16,2,1399,Correct,0,912
1,VZVGV,7,[2],[754],False,0,776
1,XWXZX,7,[2][3],[802][1154],Correct,0,655
1,ATATA,15,1,1144,Correct,0,922
1,HXZMH,16,2,1390,Correct,0,820
1,TZTZT,7,[1][3],[1263][1535],Correct,0,771
1,UOUOU,15,2,878,False,0,841
1,ZTWAW,16,2,1358,Correct,0,834
1,RZRER,7,[1][2],[764][1068],False,0,814
2,JYJDJ,16,2,757,Correct,0,899
2,DWDWD,15,1,827,Correct,0,886
2,GNGNG,7,[1][3],[1133][1357],Correct,0,939
2,NEZEZ,16,1,1056,Correct,0,901
2,RNROR,7,[2][3],[1120][1392],Correct,0,847
2,QTQNQ,7,[2][3],[918][1206],Correct,0,698
2,HOHON,15,1,850,Correct,0,944
2,KPKGK,16,2,945,Correct,0,929
2,DRDED,16,2,698,Correct,0,923
2,LNLNL,7,[1][3],[1028][1268],Correct,0,736
4,GLGLG,15,1,953,Correct,0,674
4,DTDID,16,2,807,Correct,0,831
4,SMSGS,16,2,665,Correct,0,867
4,ZFZYZ,7,[2][3],[1104][1296],Correct,0,697
4,TSTFT,7,[2][3],[958][1198],Correct,0,691
4,OFOFO,7,[1][3],[760][999],Correct,0,805
4,WYFGW,16,2,1319,Correct,0,684
4,WYWYW,15,1,1100,Correct,0,681
4,MFMCM,7,[2][3],[1089][1345],Correct,0,900
4,HQHEH,16,2,1044,Correct,0,679
Trials
1,D,5,3,4098,New Target,1,696
1,ZNZYZ,161,2,1025,Correct,1,675
1,FZFZF,151,1,845,Correct,1,881
1,RKRKR,152,1,679,Correct,1,805
1,RXRNR,161,2,856,Correct,1,770
1,CNCFC,162,2,717,Correct,1,896
1,PDPDP,7,[1][3],[821][997],Correct,1,911
1,CPCFC,14,2,780,Correct,1,894
1,VLVNV,162,2,662,Correct,1,845
1,KFKFK,151,1,741,Correct,1,841
1,ZNZNZ,152,1,987,Correct,1,928
1,KCKPD,235,2,778,Correct,1,927
1,ZKZFZ,222,2,809,Correct,1,661
1,NRNZN,162,2,805,Correct,1,762
1,KXKRK,163,2,657,Correct,1,712
1,YPYZY,164,2,573,Correct,1,852
1,FKDKF,223,2,956,Incorrect,1,939
1,RPRPR,113,1,736,Correct,1,830
1,VRVKV,161,2,878,Correct,1,732
1,RFRPR,162,2,1039,Correct,1,925
1,KVKVK,151,1,1027,Correct,1,663
1,YKYVY,161,2,694,Correct,1,756
1,VDVDV,8,[1][3],[709][1029],Correct,1,749
1,DVZVZ,221,1,846,Correct,1,855
1,YFYFY,113,1,829,Correct,1,675
1,ZYZYZ,152,1,771,Correct,1,840
1,VLVXV,161,2,711,Correct,1,936
1,DPXZX,231,2,800,Correct,1,865
1,RYRYR,113,1,725,Correct,1,897
1,PDPNP,91,[1][2],[855][1207],Incorrect,1,903
1,KXKXK,13,1,1074,Correct,1,720
1,ZYZYZ,152,1,867,Correct,1,699
1,VKVKV,153,1,1014,Correct,1,930
1,YZYZY,154,1,916,Correct,1,870
1,NLNZN,161,2,830,Correct,1,711
1,ZNDYZ,233,2,1180,Correct,1,677
1,PCPXP,222,2,908,Correct,1,681
1,ZVZFZ,162,2,869,Correct,1,736
1,RCRZR,163,2,1120,Correct,1,664
1,LRLRL,151,1,873,Correct,1,903
1,ZDZDZ,10,[1][3],[793][1097],Correct,1,701
1,RNRZR,14,2,780,Correct,1,830
1,CXCYC,162,2,774,Correct,1,815
1,RCRLR,163,2,708,Correct,1,659
1,FRFRF,151,1,742,Correct,1,651
1,XFXFX,152,1,753,Correct,1,822
1,RPRLR,161,2,712,Correct,1,924
1,YXYRY,162,2,710,Correct,1,782
1,FYFYF,151,1,725,Correct,1,698
1,YZYVY,161,2,687,Correct,1,926
1,YKYKY,151,1,811,Correct,1,850
1,XRXRX,152,1,775,Correct,1,770
1,XVXZX,161,2,1052,Correct,1,869
1,PDPDP,11,[1][3],[829][1149],Correct,1,763
1,ZFZFZ,13,1,816,Correct,1,837
1,PXPXP,152,1,782,Correct,1,715
1,LYLYL,153,1,639,Correct,1,674
1,NKNKD,225,1,700,Correct,1,792
1,ZNZNZ,113,1,633,Correct,1,798
1,PYPZP,161,2,628,Correct,1,873
1,XPXPX,151,1,848,Correct,1,924
1,VLVLV,152,1,684,Correct,1,675
1,PKPXP,161,2,713,Correct,1,768
1,FZFZF,151,1,746,Correct,1,691
1,LDLDL,12,[1][3],[713][1065],Correct,1,916
2,U,5,3,2472,New Target,2,670
2,ZVZFZ,161,2,994,Correct,2,797
2,FZFZF,151,1,688,Correct,2,932
2,RFRFR,152,1,968,Correct,2,907
2,NZNKN,161,2,735,Correct,2,696
2,FZFNF,162,2,714,Correct,2,785
2,RXRXR,151,1,854,Correct,2,807
2,KRKYK,161,2,669,Correct,2,792
2,NZNPN,162,2,859,Correct,2,759
2,XPXPX,151,1,595,Correct,2,829
2,CUCUC,7,[1][3],[1036][1324],Correct,2,700
2,RFRFR,13,1,808,Correct,2,726
2,VYVXV,161,2,752,Correct,2,876
2,VDVDV,191,1,1049,Correct,2,789
2,ZKZRZ,15,2,656,Correct,2,660
2,XCXCX,151,1,1002,Correct,2,903
2,CNCUC,82,[2][3],[854][1174],Correct,2,770
2,RCRCR,13,1,700,Correct,2,853
2,ZPZXZ,161,2,589,Correct,2,713
2,FKFYF,162,2,668,Correct,2,887
2,ZFZYZ,163,2,669,Correct,2,730
2,PXPXP,151,1,846,Correct,2,754
2,URCKC,231,2,751,Correct,2,934
2,PCPCP,113,1,667,Correct,2,778
2,XNXNX,152,1,949,Correct,2,932
2,RCRZR,161,2,723,Correct,2,914
2,XVXVX,151,1,642,Correct,2,675
2,NRNRN,152,1,885,Correct,2,742
2,FPFPF,225,1,696,Correct,2,904
2,XVXFX,222,2,633,Correct,2,730
2,PRPRP,151,1,639,Correct,2,673
2,FYFCF,161,2,592,Correct,2,758
2,XUXFX,91,[1][2],[800][1104],Incorrect,2,673
2,CYCVC,14,2,747,Correct,2,826
2,VDVKV,172,2,853,Correct,2,835
2,YCYCY,15,1,696,Correct,2,913
2,NKNLN,161,2,822,Correct,2,754
2,XPUKX,233,2,1172,Correct,2,687
2,ZPZPZ,113,1,736,Correct,2,735
2,KRKRK,152,1,1214,Correct,2,744
2,XKXKX,153,1,932,Correct,2,881
2,YUYVY,101,[2][3],[939][1195],Correct,2,681
2,XKXFU,235,2,1190,Correct,2,650
2,NFNFN,113,1,902,Correct,2,705
2,KDKDK,193,1,913,Correct,2,674
2,XYXKX,16,2,982,Correct,2,803
2,YZUZY,223,1,1095,Correct,2,785
2,KFKVK,222,2,1113,Correct,2,657
2,LYLYL,151,1,850,Correct,2,883
2,CXCDC,184,2,901,Incorrect,2,882
2,XZXNX,16,2,942,Correct,2,677
2,PXPXP,151,1,792,Correct,2,678
2,ZRZYZ,161,2,997,Correct,2,682
2,PUPYP,111,[2][3],[1183][1439],Correct,2,828
2,RNRNR,14,1,940,Correct,2,922
2,KDKDK,195,1,845,Correct,2,905
2,KNKNK,15,1,1347,Correct,2,855
2,PRPKP,161,2,786,Correct,2,929
2,UNYNY,221,1,909,Correct,2,765
2,NYNYN,113,1,1047,Correct,2,677
2,YXYXY,152,1,920,Incorrect,2,760
2,RDRDR,196,1,879,Correct,2,724
2,FCFCF,15,1,646,Correct,2,852
2,ZKZKZ,152,1,666,Correct,2,683
2,ZUZUZ,12,[1][3],[815][1215],Correct,2,829
3,E,5,3,6474,New Target,3,814
3,YZYZY,151,1,923,Correct,3,751
3,VFVNV,161,2,769,Correct,3,822
3,KYKYK,151,1,704,Correct,3,668
3,NKNKN,152,1,754,Correct,3,668
3,XVXNX,161,2,625,Correct,3,777
3,RERFR,71,[2][3],[1089][1345],Correct,3,718
3,XNXNX,13,1,671,Correct,3,836
3,NXNXN,152,1,938,Correct,3,856
3,ZLZNZ,161,2,1138,Correct,3,697
3,CUCNC,171,2,821,Correct,3,671
3,FYFRF,16,2,779,Correct,3,851
3,ZLZLZ,151,1,738,Correct,3,939
3,YZYZY,152,1,1148,Correct,3,786
3,CYCYC,153,1,955,Correct,3,734
3,VUVUV,192,1,830,Correct,3,847
3,PXPRP,16,2,712,Correct,3,777
3,YPYPY,151,1,679,Correct,3,761
3,CECEC,8,[1][3],[976][1312],Correct,3,838
3,VNENV,223,2,679,Incorrect,3,718
3,KRKFK,222,2,778,Correct,3,704
3,XLXLE,225,1,1178,Correct,3,681
3,RFRUR,183,2,1235,Correct,3,875
3,XRXLX,16,2,809,Correct,3,891
3,NZNPN,162,2,932,Correct,3,768
3,XZXZX,151,1,942,Correct,3,707
3,FZFZF,152,1,896,Correct,3,827
3,PFPFP,153,2,1207,Incorrect,3,739
3,YZYXY,161,2,796,Correct,3,929
3,KEKEK,9,[1][3],[918][1253],Correct,3,764
3,CXCPC,14,2,794,Correct,3,702
3,VXVXV,151,1,1011,Correct,3,829
3,NUNZN,174,2,936,Correct,3,738
3,RKRVR,16,2,814,Correct,3,682
3,XRXRX,151,1,821,Correct,3,892
3,ERNFN,231,2,1237,Incorrect,3,655
3,YRYNY,222,2,715,Correct,3,809
3,PZPEP,102,[2][3],[1036][1372],Correct,3,656
3,ZYZXZ,14,2,892,Correct,3,709
3,RZRVR,162,2,1126,Correct,3,732
3,XRXRX,151,1,738,Correct,3,857
3,KUKFK,175,2,782,Correct,3,845
3,RKRKR,15,1,807,Correct,3,862
3,ZFZFZ,152,1,1104,Correct,3,759
3,YZYVY,161,2,808,Correct,3,921
3,XPXNX,162,2,768,Correct,3,814
3,YRYRY,151,1,698,Correct,3,820
3,EPVPV,221,1,852,Correct,3,853
3,CRCEC,112,[2][3],[983][1335],Correct,3,872
3,RFRCR,14,2,937,Correct,3,752
3,CPCVC,162,2,682,Correct,3,855
3,RXRCR,163,2,675,Correct,3,901
3,VNVLV,164,2,759,Correct,3,701
3,ZXZXZ,151,1,737,Correct,3,778
3,ZCZCZ,152,1,691,Correct,3,689
3,PYPUP,186,2,625,Correct,3,769
3,YKYPY,16,2,867,Correct,3,766
3,YREXY,233,2,650,Correct,3,729
3,ZKZKZ,113,1,613,Correct,3,891
3,XLXNX,161,2,616,Correct,3,728
3,KFKRE,235,2,825,Correct,3,780
3,RXRLR,222,2,644,Correct,3,691
3,RERXR,121,[2][3],[1062][1334],Correct,3,700
4,J,5,3,2165,New Target,4,846
4,CYCVC,161,2,745,Correct,4,724
4,RXRCR,162,2,672,Correct,4,913
4,FPFVF,163,2,725,Correct,4,655
4,LZLZL,151,1,767,Correct,4,884
4,PLPLP,152,1,648,Correct,4,844
4,NPNPN,153,1,657,Correct,4,931
4,XZXZX,161,1,602,Incorrect,4,940
4,CNCKC,162,1,598,Incorrect,4,892
4,PCPYJ,235,2,744,Correct,4,761
4,VYVYV,113,1,660,Correct,4,761
4,RLRLR,152,1,673,Correct,4,842
4,CJCJC,7,[1][3],[1059][1347],Correct,4,870
4,ZLZLZ,13,1,729,Correct,4,877
4,FZFZF,152,1,705,Correct,4,902
4,CFCFC,153,1,628,Correct,4,683
4,PZPZP,154,1,647,Correct,4,686
4,XEXEX,191,1,742,Correct,4,777
4,NVNFN,16,2,638,Correct,4,858
4,KYKYK,151,1,785,Correct,4,718
4,ZNZVZ,161,2,681,Correct,4,835
4,YVJXY,233,2,1080,Correct,4,750
4,XFXFX,113,1,731,Correct,4,709
4,XNXNX,152,1,708,Correct,4,860
4,FJFKF,81,[2][3],[1037][1229],Correct,4,889
4,CZCYC,14,2,692,Correct,4,722
4,ZXZCZ,162,2,749,Correct,4,858
4,RYRYJ,225,1,923,Correct,4,751
4,FPFZF,222,2,897,Correct,4,748
4,XRXRX,151,1,900,Correct,4,872
4,YPYEY,182,2,729,Correct,4,853
4,XRXRX,15,1,1164,Correct,4,668
4,XZXPX,161,2,773,Correct,4,805
4,CJCJC,9,[1][3],[1028][1364],Correct,4,731
4,ZXZVZ,14,2,632,Correct,4,948
4,VKVKV,151,1,940,Correct,4,711
4,VEVNV,173,2,692,Correct,4,710
4,ZKZVZ,16,2,656,Correct,4,911
4,XVXJX,102,[2][3],[838][1142],Correct,4,867
4,RXRVR,14,2,1278,Correct,4,895
4,LRLRL,151,1,730,Correct,4,704
4,YNJNY,223,1,899,Correct,4,894
4,NPNJN,222,2,919,Correct,4,877
4,ZEZEZ,194,1,631,Correct,4,894
4,ZNZNZ,15,1,629,Correct,4,821
4,YZYZY,152,1,912,Correct,4,887
4,XYXYX,153,1,607,Correct,4,916
4,ZXZXZ,221,1,611,Correct,4,719
4,LYLZL,222,2,911,Correct,4,871
4,CYCNC,162,2,657,Correct,4,881
4,XEXEX,195,1,605,Correct,4,904
4,CVCXC,16,2,713,Correct,4,948
4,ZPZXZ,162,2,687,Correct,4,940
4,FZFZF,151,1,1039,Correct,4,691
4,RXRJR,112,[2][3],[915][1187],Correct,4,732
4,PRPFP,14,2,777,Correct,4,830
4,PKPEP,186,2,641,Correct,4,874
4,XZXPX,16,2,686,Correct,4,858
4,JCZVZ,231,2,668,Correct,4,791
4,RXRLR,222,2,632,Correct,4,815
4,VZVZV,151,1,675,Correct,4,925
4,XJXJX,12,[2][1],[857][1113],Incorrect,4,650
5,I,5,3,3011,New Target,5,665
5,PCPCP,151,1,1155,Correct,5,658
5,XYXYX,152,1,716,Correct,5,917
5,VXVXV,153,1,644,Correct,5,927
5,XVXVX,154,1,594,Correct,5,797
5,ZRZXZ,161,2,659,Correct,5,797
5,FPFZF,162,2,677,Correct,5,734
5,ZYZYZ,151,1,648,Correct,5,679
5,RVRZR,161,2,569,Correct,5,780
5,CICIC,7,[1][3],[979][1267],Correct,5,899
5,XLXLX,13,2,718,Incorrect,5,746
5,YVYVY,152,1,614,Correct,5,917
5,CJCJC,191,1,744,Correct,5,795
5,FNFCF,16,2,1392,Correct,5,937
5,PVPRP,162,2,725,Correct,5,744
5,FZFZF,151,1,783,Correct,5,876
5,NVIVN,223,1,1098,Correct,5,758
5,CVCIC,82,[2],[1450],Incorrect,5,743
5,ZXZXZ,13,1,782,Correct,5,830
5,FCFZF,161,2,772,Correct,5,888
5,IXRXR,221,1,939,Correct,5,898
5,ZPZNZ,222,2,693,Correct,5,688
5,VZVZV,151,1,640,Correct,5,826
5,YRYNY,161,2,668,Correct,5,884
5,VNVPV,162,2,662,Correct,5,936
5,RVRJR,182,2,1498,Correct,5,661
5,VRVRV,15,1,682,Correct,5,806
5,VIVIV,9,[1][3],[786][1090],Correct,5,774
5,CXCVC,14,2,662,Correct,5,662
5,PZPZP,151,1,612,Correct,5,833
5,IXVKV,231,2,980,Correct,5,835
5,YJYCY,173,2,958,Incorrect,5,651
5,VYVYV,15,1,740,Correct,5,721
5,YVYVY,152,1,686,Correct,5,895
5,NVNVN,153,1,1183,Correct,5,740
5,XYXVX,161,2,787,Correct,5,940
5,NJNCN,174,2,736,Correct,5,693
5,NXNYN,16,2,667,Correct,5,802
5,VXVCV,162,2,647,Correct,5,871
5,ZKZKZ,151,2,597,Incorrect,5,810
5,XRXYX,161,2,678,Correct,5,762
5,ZCZXZ,162,2,756,Correct,5,828
5,KVKYI,235,2,764,Correct,5,868
5,CNCNC,113,1,619,Correct,5,690
5,RIRIR,10,[1][3],[818][1106],Correct,5,842
5,VYVXV,14,2,717,Correct,5,932
5,FXIRF,233,2,770,Correct,5,950
5,PFPFP,113,1,734,Correct,5,752
5,VPVPV,152,1,675,Correct,5,933
5,ZJZJZ,195,1,783,Correct,5,908
5,ZVZNZ,16,2,748,Correct,5,742
5,YVYXY,162,2,790,Correct,5,837
5,PRPRP,151,1,707,Correct,5,766
5,YPYPY,152,1,667,Correct,5,896
5,ZIZPZ,111,[2][3],[1166][1422],Correct,5,735
5,NKNXN,14,2,942,Correct,5,680
5,RZRXR,162,2,644,Correct,5,741
5,RXRXR,151,1,817,Correct,5,843
5,ZJZJZ,196,1,1007,Correct,5,714
5,CVCVI,225,1,781,Incorrect,5,890
5,NKNKN,113,1,932,Correct,5,869
5,NRNZN,161,2,803,Correct,5,917
5,CNCNC,151,1,875,Correct,5,849
5,RFRIR,122,[2],[1415],Incorrect,5,682
6,B,5,3,13183,New Target,6,817
6,YKYZY,161,2,956,Correct,6,703
6,VCVRV,162,2,649,Correct,6,950
6,XVXVX,151,1,666,Correct,6,768
6,KZKRK,161,2,666,Correct,6,747
6,ZVZXZ,162,2,700,Correct,6,691
6,RCRNR,163,2,701,Correct,6,716
6,CXCRC,164,2,648,Correct,6,879
6,VNBCV,233,2,611,Correct,6,907
6,CXCVC,222,2,705,Correct,6,932
6,RFRFR,151,1,648,Correct,6,928
6,XPXRX,161,2,788,Correct,6,834
6,RYRBR,72,[2],[706],Incorrect,6,661
6,ZKZKZ,13,1,932,Correct,6,831
6,FIFRF,171,2,978,Correct,6,927
6,VZVLV,16,2,705,Correct,6,893
6,RPRVR,162,2,681,Correct,6,948
6,YBYBY,8,[1][3],[719][1023],Correct,6,661
6,PYPVP,14,2,1096,Correct,6,821
6,NININ,192,1,1138,Correct,6,886
6,RNRNR,15,1,820,Correct,6,709
6,NXNVN,161,2,796,Correct,6,854
6,RNRNR,151,1,808,Correct,6,698
6,FRFVF,161,2,819,Correct,6,792
6,YVYFB,235,2,688,Incorrect,6,656
6,ZRZXZ,222,2,624,Correct,6,699
6,VNVIV,193,2,703,Incorrect,6,848
6,PXPNP,16,2,830,Correct,6,758
6,ZXZPZ,162,2,690,Correct,6,891
6,VBVBV,9,[1][3],[829][1133],Correct,6,909
6,CXCXC,13,1,755,Correct,6,747
6,PCPFP,161,2,1283,Correct,6,669
6,KNKNK,151,1,856,Correct,6,821
6,XIXIX,194,1,789,Correct,6,696
6,CYCYC,15,1,666,Correct,6,921
6,FVFYF,161,2,857,Correct,6,816
6,YNYRY,162,2,713,Correct,6,930
6,BVPXP,231,2,691,Correct,6,837
6,NXNXN,113,1,1061,Correct,6,684
6,FRFRF,152,1,804,Correct,6,788
6,YVYVY,153,1,778,Correct,6,928
6,ZKZCZ,161,2,664,Correct,6,741
6,VIVXV,175,2,639,Correct,6,935
6,PRBRP,223,1,1091,Correct,6,677
6,YZYBY,102,[2][3],[972][1276],Correct,6,897
6,CXCVC,14,2,829,Correct,6,869
6,FYFYF,151,1,705,Correct,6,917
6,VKVXV,161,2,715,Correct,6,886
6,ZBZBZ,11,[1][3],[734][1038],Correct,6,754
6,FPFNF,14,2,706,Correct,6,823
6,CXCXC,151,1,1307,Correct,6,889
6,YCYCY,152,1,717,Correct,6,932
6,FPFPF,153,1,750,Correct,6,686
6,CVCVB,225,1,662,Correct,6,921
6,ZCZCZ,113,1,642,Correct,6,858
6,CZCNC,161,2,705,Correct,6,854
6,KIKFK,176,2,700,Correct,6,878
6,PXPXP,15,1,791,Correct,6,787
6,RYRYR,152,1,694,Correct,6,657
6,ZRZCZ,161,2,596,Correct,6,790
6,RVRVR,151,1,888,Correct,6,758
6,XYXNX,161,2,634,Correct,6,866
6,BVKVK,221,1,632,Correct,6,798
6,CBCBC,12,[1][3],[810][1114],Correct,6,821
7,W,5,3,17978,New Target,7,894
7,RKRKR,151,1,998,Correct,7,860
7,CVCRC,161,2,631,Correct,7,802
7,PKPKP,151,1,704,Correct,7,950
7,FPFPF,152,1,637,Correct,7,829
7,VRVPV,161,2,811,Correct,7,791
7,ZKZYZ,162,2,742,Correct,7,747
7,PVPCP,233,2,594,Correct,7,770
7,KVKVK,113,1,799,Correct,7,935
7,YXYVY,161,2,650,Correct,7,805
7,FNFNF,151,1,855,Correct,7,825
7,YWYWY,7,[1][3],[809][1273],Correct,7,940
7,ZYZYZ,13,1,634,Correct,7,810
7,PYPYP,152,1,813,Correct,7,713
7,XRXRX,153,1,980,Correct,7,784
7,PXPXP,154,1,971,Correct,7,736
7,FCFBF,181,2,575,Correct,7,715
7,FVFVF,15,1,580,Correct,7,723
7,CYCZC,161,2,671,Correct,7,948
7,XZXVX,162,2,815,Correct,7,679
7,PFPFP,151,1,822,Correct,7,846
7,RVRLR,161,2,848,Correct,7,871
7,ZBZBZ,192,1,935,Correct,7,782
7,VCVNV,16,2,760,Correct,7,897
7,NWNWN,8,[1][3],[811][1115],Correct,7,832
7,XNXVX,14,2,665,Correct,7,785
7,CXCNC,162,2,824,Correct,7,764
7,YVYVW,225,1,733,Correct,7,923
7,VFVFV,113,1,805,Correct,7,933
7,VFWFV,223,1,732,Correct,7,862
7,CVCFC,222,2,765,Correct,7,681
7,YBYBY,193,1,646,Correct,7,866
7,PYPYP,15,1,770,Correct,7,851
7,NKNWN,91,[2],[1240],Incorrect,7,924
7,VNVNV,13,1,806,Correct,7,939
7,RVRVR,152,1,896,Correct,7,752
7,FVFBF,184,2,1074,Incorrect,7,919
7,VZVKV,16,2,1071,Correct,7,811
7,VPVCV,162,2,655,Correct,7,747
7,WYZCZ,231,2,609,Correct,7,754
7,PFPFP,113,1,606,Correct,7,885
7,PRPRP,152,1,886,Correct,7,654
7,NWNWN,10,[1][3],[747][1019],Correct,7,722
7,VKVCV,14,2,742,Correct,7,902
7,WPYPY,221,1,680,Correct,7,679
7,VBVBV,195,1,672,Correct,7,942
7,ZKZYZ,16,2,597,Correct,7,652
7,XYXYX,151,1,805,Correct,7,858
7,FZFXF,161,2,642,Correct,7,677
7,XKXKX,151,1,1263,Correct,7,871
7,XPXPX,152,1,688,Correct,7,945
7,FWFWF,11,[1][3],[1008][1296],Correct,7,799
7,FNFBF,186,2,671,Correct,7,798
7,ZVZYZ,16,2,1097,Correct,7,918
7,FZFZF,151,1,662,Correct,7,824
7,NPNFW,235,2,839,Correct,7,709
7,PCPCP,113,1,673,Correct,7,741
7,NKNWN,122,[2][3],[939][1211],Correct,7,792
8,M,5,3,16598,New Target,8,677
8,VYVNV,161,2,1108,Correct,8,743
8,KLKNK,162,2,1085,Correct,8,904
8,NRNRN,151,1,734,Correct,8,715
8,VNVFV,161,2,634,Correct,8,751
8,XNXNM,225,1,909,Correct,8,743
8,CXCVC,222,2,662,Correct,8,676
8,KRKZK,162,2,709,Correct,8,753
8,NMNFN,71,[2][3],[985][1241],Correct,8,895
8,ZFZFZ,13,1,689,Correct,8,797
8,YPYCY,161,2,1355,Correct,8,914
8,KCKCK,151,,,Incorrect,8,897
8,VNVNV,152,1,698,Correct,8,755
8,LXLXL,153,1,640,Correct,8,943
8,CLCLC,154,1,623,Correct,8,867
8,NYNYN,155,1,603,Correct,8,921
8,LCMYL,233,2,584,Correct,8,912
8,NCNCN,113,1,621,Correct,8,666
8,ZVZRZ,161,2,567,Correct,8,950
8,ZVZVZ,151,1,900,Correct,8,887
8,PZPVP,161,2,618,Correct,8,733
8,PWPNP,171,2,635,Correct,8,827
8,KLKCM,235,2,598,Correct,8,891
8,XMXMX,8,[1][3],[962][1234],Correct,8,683
8,PRPXP,14,2,686,Correct,8,785
8,CVCYC,162,2,715,Correct,8,862
8,PXPMP,92,[2][3],[1001][1289],Correct,8,680
8,ZCZLZ,14,2,654,Correct,8,755
8,XWXWX,192,2,938,Incorrect,8,844
8,ZCZLZ,16,2,727,Correct,8,946
8,MNCYC,231,2,707,Correct,8,861
8,ZXZXZ,113,1,704,Correct,8,814
8,YRYNY,161,2,628,Correct,8,668
8,ZLZPZ,162,2,599,Correct,8,718
8,VZVZV,151,1,637,Correct,8,677
8,MXPXP,221,1,1274,Correct,8,903
8,VWVWV,193,1,916,Correct,8,779
8,PYPYP,16,1,645,Incorrect,8,887
8,XPXVX,162,2,772,Correct,8,798
8,XLXLX,151,1,1113,Correct,8,941
8,YMYMY,10,[1][3],[1017][1305],Correct,8,810
8,VYVYV,13,1,648,Correct,8,807
8,PWPZP,174,2,662,Correct,8,815
8,PYPKP,16,2,719,Correct,8,922
8,NPNXN,162,2,767,Correct,8,681
8,KVKVK,223,1,759,Correct,8,852
8,NVNFN,222,2,1077,Correct,8,741
8,XNXNX,151,1,817,Correct,8,841
8,YZYMY,112,[2][3],[894][1182],Correct,8,843
8,PFPFP,13,1,844,Correct,8,785
8,ZWZWZ,195,1,1077,Correct,8,739
8,PCPZP,16,2,705,Correct,8,864
8,LRLPL,162,2,1081,Correct,8,874
8,CZCZC,151,1,758,Correct,8,886
8,NZNZN,152,1,691,Correct,8,780
8,CVCXC,161,2,629,Correct,8,660
8,XCXCX,151,1,697,Correct,8,739
8,YWYWY,196,1,764,Correct,8,680
8,NLNLN,15,1,740,Correct,8,868
8,VNVNV,152,1,859,Correct,8,941
8,ZMZMZ,12,[1][3],[914][1314],Correct,8,677
9,S,5,3,3203,New Target,9,880
9,NZNZN,151,1,849,Correct,9,722
9,KVKZK,161,2,612,Correct,9,912
9,LZLZL,151,1,731,Correct,9,668
9,XLXLX,152,1,979,Correct,9,899
9,ZXZXZ,153,1,641,Correct,9,947
9,KNKZK,161,2,692,Correct,9,726
9,NRNYN,162,2,711,Correct,9,657
9,CLCVC,163,2,739,Correct,9,835
9,ZCZFZ,164,2,644,Correct,9,704
9,NSNSN,7,[1][3],[758][1126],Correct,9,706
9,VZVZV,13,1,568,Correct,9,918
9,NVNCN,161,2,600,Correct,9,880
9,VMVMV,191,1,714,Correct,9,721
9,CVCXC,16,2,549,Correct,9,829
9,ZYZRZ,162,2,548,Correct,9,924
9,XNXZX,163,2,647,Correct,9,719
9,PXPXP,151,2,580,Incorrect,9,878
9,VCVSV,82,[2][3],[818][1394],Correct,9,745
9,PRPCP,14,2,662,Correct,9,809
9,ZMZMZ,192,1,801,Incorrect,9,921
9,ZFZFZ,15,1,633,Correct,9,857
9,FCFCF,152,1,591,Correct,9,682
9,YLYZY,161,2,789,Correct,9,692
9,KNKVK,162,2,1222,Correct,9,651
9,SFPCP,231,2,880,Correct,9,821
9,RPRPR,113,1,1269,Correct,9,852
9,XMXMX,193,1,864,Correct,9,707
9,KFKFK,15,1,645,Correct,9,893
9,VSVSV,9,[1][3],[742][1013],Correct,9,827
9,YVSVY,223,1,607,Correct,9,799
9,VPVPV,113,1,554,Correct,9,950
9,XZXZX,152,1,589,Correct,9,769
9,KZKXK,161,2,786,Correct,9,672
9,RFRPR,162,2,1082,Correct,9,836
9,NVNVS,225,1,710,Correct,9,872
9,ZXZXZ,113,1,912,Correct,9,876
9,SRVRV,221,1,840,Correct,9,729
9,YCYCY,113,1,607,Correct,9,807
9,KMKZK,174,2,603,Correct,9,867
9,FZSVF,233,2,712,Correct,9,862
9,VYVYV,113,1,673,Correct,9,883
9,LVLVL,152,1,866,Correct,9,698
9,YFYFY,153,1,613,Correct,9,841
9,NXNSN,102,[2][3],[825][1145],Correct,9,680
9,FNFCF,14,2,608,Correct,9,777
9,KVKVK,151,1,628,Correct,9,711
9,VZVCV,161,2,699,Correct,9,659
9,ZYZMZ,185,2,670,Correct,9,695
9,VXVZV,16,2,693,Correct,9,950
9,VPVPV,151,1,709,Correct,9,731
9,RVRNS,235,2,626,Correct,9,799
9,YZYZY,113,1,662,Correct,9,668
9,ZSZSZ,11,[1][3],[967][1383],Correct,9,863
9,FRFRF,13,1,1131,Correct,9,929
9,ZMZMZ,196,1,1109,Correct,9,853
9,NZNXN,16,2,1045,Correct,9,787
9,LSLFL,121,[2][3],[1151][1439],Correct,9,744
10,Q,5,3,2479,New Target,10,695
10,ZVZPZ,161,2,853,Correct,10,875
10,RZRZR,151,1,649,Correct,10,843
10,ZFZFZ,152,1,631,Correct,10,781
10,RZRZR,153,1,541,Correct,10,671
10,PZPXP,161,2,541,Correct,10,897
10,VFQPV,233,2,1237,Correct,10,706
10,ZPZRZ,222,2,814,Correct,10,836
10,CYCVC,162,2,601,Correct,10,668
10,CPCPC,151,1,652,Correct,10,742
10,YZYQY,72,[2][3],[932][1172],Correct,10,950
10,FVFXF,14,2,606,Correct,10,707
10,YNYNQ,225,1,800,Correct,10,781
10,ZYZYZ,113,1,863,Correct,10,690
10,FRFSF,181,2,976,Incorrect,10,899
10,XNXPX,16,2,864,Correct,10,907
10,NXNXN,151,1,841,Correct,10,757
10,PVPZP,161,2,656,Correct,10,815
10,XVXPX,162,2,626,Correct,10,777
10,FXFVF,163,2,551,Correct,10,664
10,NSNKN,172,2,604,Incorrect,10,702
10,VXVNV,16,2,555,Correct,10,888
10,XZXZX,151,1,664,Correct,10,918
10,VQVQV,8,[1][3],[725][949],Correct,10,683
10,ZYZPZ,14,2,680,Correct,10,842
10,PZPSP,183,2,674,Correct,10,904
10,YVYVY,15,1,620,Correct,10,927
10,NCNQN,92,[2][3],[710][982],Correct,10,902
10,FCFVF,14,2,667,Correct,10,664
10,ZFZFZ,151,1,645,Correct,10,891
10,NSNSN,194,1,945,Correct,10,864
10,YPYFY,16,2,673,Correct,10,929
10,ZKZKZ,151,1,810,Correct,10,891
10,QZRCR,231,2,687,Correct,10,892
10,YPYVY,222,2,747,Correct,10,879
10,ZNZNZ,151,1,627,Correct,10,879
10,VQVQV,10,[1][3],[787][1059],Correct,10,728
10,RVRZR,14,2,781,Correct,10,858
10,KRKSK,185,2,699,Correct,10,729
10,NPNPN,15,1,645,Correct,10,858
10,YPYPY,152,1,537,Correct,10,665
10,VCVYV,161,2,538,Correct,10,856
10,FPFNF,162,2,622,Correct,10,841
10,QVXVX,221,1,786,Correct,10,726
10,ZVZRZ,222,2,556,Correct,10,820
10,LFLFL,151,1,721,Correct,10,747
10,VLVLV,152,1,573,Correct,10,802
10,KXQXK,223,1,725,Correct,10,668
10,YQYQY,11,[1][3],[721][977],Correct,10,734
10,YCYCY,13,1,619,Correct,10,885
10,PZPYP,161,2,646,Correct,10,938
10,LPLFL,162,2,724,Correct,10,845
10,VSVSV,196,1,1167,Correct,10,887
10,VFVYQ,235,2,728,Correct,10,795
10,CZCXC,222,2,584,Correct,10,712
10,PVPCP,162,2,557,Correct,10,716
10,CXCXC,151,1,672,Correct,10,824
10,NZNZN,152,1,603,Correct,10,890
10,YPYCY,161,2,641,Correct,10,685
10,ZQZQZ,12,[1][3],[718][1022],Correct,10,888
11,T,5,3,2403,New Target,11,666
11,KFKFK,151,1,878,Correct,11,941
11,LZLZL,152,1,579,Correct,11,804
11,PFPVP,161,2,576,Correct,11,942
11,FRFPF,162,2,748,Correct,11,934
11,FZFZF,151,1,589,Correct,11,658
11,VTVTV,7,[1][3],[966][1350],Correct,11,739
11,KYKCK,14,2,590,Correct,11,761
11,VPVPV,151,1,1285,Correct,11,678
11,XQXQX,191,1,873,Correct,11,873
11,PZPYP,16,2,672,Correct,11,790
11,KXKLK,162,2,1124,Correct,11,673
11,TCNCN,221,1,931,Correct,11,785
11,PZPNP,222,2,959,Correct,11,651
11,RCRPR,162,2,786,Correct,11,764
11,PZPRT,235,2,1145,Correct,11,883
11,XFXVX,222,2,746,Correct,11,694
11,LTLVL,81,[2][3],[1280][1520],Correct,11,865
11,ZCZPZ,14,2,747,Correct,11,773
11,NCNQN,182,2,690,Correct,11,950
11,XZXNX,16,2,768,Correct,11,768
11,ZPZPZ,151,1,695,Correct,11,933
11,CFCFC,152,1,682,Correct,11,676
11,VXTRV,233,2,696,Correct,11,849
11,CFCVC,222,2,617,Correct,11,679
11,PYPYP,151,2,618,Incorrect,11,779
11,FQFYF,173,2,617,Correct,11,853
11,CNCFC,16,2,621,Correct,11,764
11,PTPTP,9,[1][3],[888][1191],Correct,11,847
11,ZCZCZ,13,1,685,Correct,11,890
11,KZKZK,152,1,1150,Correct,11,676
11,RLRVR,161,2,654,Correct,11,674
11,ZRZKZ,162,2,633,Correct,11,874
11,KLKLT,225,1,713,Correct,11,838
11,ZQZQZ,194,1,759,Correct,11,745
11,VZVZV,15,1,655,Correct,11,844
11,RVRZR,161,2,812,Correct,11,863
11,ZPZCZ,162,2,689,Correct,11,864
11,VYVYV,151,1,605,Correct,11,843
11,RVRVR,152,1,590,Correct,11,789
11,PTPTP,10,[1][3],[683][1115],Correct,11,749
11,PXPXP,13,1,958,Correct,11,677
11,KCKCK,152,1,717,Correct,11,939
11,YVYVY,153,1,558,Correct,11,718
11,CYCYC,154,1,570,Correct,11,906
11,XCXCX,155,1,665,Correct,11,943
11,CYCQC,185,2,647,Correct,11,845
11,KCKNK,16,2,618,Correct,11,732
11,VPVPV,151,1,622,Correct,11,672
11,TXFZF,231,2,641,Correct,11,757
11,NYNVN,222,2,753,Correct,11,823
11,VQVXV,176,2,1186,Correct,11,677
11,ZRZRZ,15,1,1026,Correct,11,680
11,VTVZV,111,[2],[760],Incorrect,11,803
11,PXPVP,14,2,1124,Correct,11,856
11,FVFVF,151,1,735,Correct,11,807
11,VRVLV,161,2,1528,Correct,11,888
11,YCYCY,151,1,617,Correct,11,714
11,XZTZX,223,1,782,Correct,11,655
11,VTVTV,12,[1][3],[788][1060],Correct,11,722
12,O,5,3,2645,New Target,12,879
12,VXVLV,161,2,926,Correct,12,832
12,KVKCK,162,2,616,Correct,12,654
12,VLVLV,151,1,589,Correct,12,673
12,ZCZVZ,161,2,843,Correct,12,869
12,KFKFK,151,1,753,Correct,12,896
12,XKXKX,152,1,793,Correct,12,906
12,YXYXY,153,1,833,Correct,12,842
12,FVFVF,154,1,602,Correct,12,776
12,PVPOP,72,[2][3],[884][1220],Correct,12,675
12,ZXZYZ,14,2,691,Correct,12,719
12,PXPVP,162,2,605,Correct,12,883
12,ZTZTZ,191,1,636,Correct,12,861
12,CVCKC,16,2,752,Correct,12,695
12,CKCKC,151,1,685,Correct,12,731
12,NPNPN,152,1,1359,Correct,12,658
12,ZRZNZ,161,2,674,Correct,12,881
12,OZCZC,221,1,782,Correct,12,799
12,LFLFL,113,1,628,Correct,12,866
12,CXCXC,152,1,639,Correct,12,941
12,KPKPK,153,1,572,Correct,12,860
12,FRFKF,161,2,732,Correct,12,872
12,FOFOF,8,[1][3],[821][1205],Correct,12,767
12,ZFZFZ,13,1,594,Correct,12,747
12,LKLZO,235,2,981,Correct,12,730
12,KLKZK,222,2,650,Correct,12,740
12,YXYCY,162,2,600,Correct,12,807
12,LOLOL,9,[1][3],[723][1059],Correct,12,814
12,XLXLX,13,1,692,Correct,12,722
12,XVXVX,152,1,673,Correct,12,793
12,FTFTF,192,1,611,Correct,12,690
12,OXNZN,231,2,928,Correct,12,873
12,CZCZC,113,1,823,Correct,12,730
12,LZLZL,152,1,720,Correct,12,838
12,VLVPV,161,2,694,Correct,12,942
12,VYVYO,225,1,659,Correct,12,815
12,XKXKX,113,1,1201,Correct,12,827
12,RTRTR,193,1,680,Correct,12,896
12,KVKCK,16,2,632,Correct,12,719
12,ROROR,101,[1][3],[656][960],Correct,12,871
12,PRPRP,13,1,860,Correct,12,932
12,LYLVL,161,2,606,Correct,12,900
12,PLPLP,151,1,636,Correct,12,912
12,CTCTC,194,1,536,Correct,12,944
12,XZXYX,16,2,576,Correct,12,676
12,NKNKN,151,1,913,Correct,12,858
12,VLVZV,161,2,664,Correct,12,765
12,YOYOY,11,[1][3],[618][906],Correct,12,872
12,PZOZP,223,2,1234,Incorrect,12,865
12,FYFYF,113,1,795,Correct,12,821
12,ZXZVZ,161,2,646,Correct,12,774
12,VKVZV,162,2,642,Correct,12,861
12,ZTZTZ,195,1,696,Correct,12,707
12,LKLZL,16,2,720,Correct,12,884
12,KCKVK,162,2,766,Correct,12,756
12,PXPKP,163,2,651,Correct,12,773
12,KCOZK,233,2,759,Correct,12,900
12,FKFKF,113,1,837,Correct,12,706
12,CTCRC,176,2,570,Correct,12,748
12,NXNXN,15,1,903,Correct,12,775
12,KXKVK,161,2,1277,Correct,12,716
12,CPCOC,122,[2],[1349],Incorrect,12,658
13,H,5,3,3053,New Target,13,947
13,VFVNV,151,2,918,Incorrect,13,940
13,YVYVY,152,1,619,Correct,13,687
13,XVXVX,153,1,716,Correct,13,655
13,NRNXN,161,2,606,Correct,13,882
13,PZPKP,162,2,809,Correct,13,771
13,HLVLV,221,1,904,Correct,13,934
13,CXCZC,222,2,622,Correct,13,719
13,LHLYL,71,[2][3],[653][1213],Correct,13,777
13,YKYFY,14,2,837,Correct,13,872
13,YOYRY,171,2,743,Correct,13,844
13,ZKZYZ,16,2,651,Correct,13,893
13,RZRZR,151,1,680,Correct,13,678
13,NFNYN,161,2,1074,Correct,13,672
13,KVKFK,162,2,595,Correct,13,693
13,XFXYX,163,2,544,Correct,13,673
13,LKLVL,164,2,724,Correct,13,661
13,NLNLN,151,1,789,Correct,13,934
13,XCXOX,182,2,638,Correct,13,740
13,FXFXF,15,1,835,Correct,13,832
13,VHVHV,8,[1][3],[773][1077],Correct,13,662
13,PVPVP,13,1,669,Correct,13,933
13,CRCXC,161,2,568,Correct,13,751
13,NXNXN,151,1,681,Correct,13,697
13,XRXRX,152,1,607,Correct,13,838
13,YFYXY,161,2,762,Correct,13,835
13,ZOZOZ,193,1,623,Correct,13,799
13,RZRZR,15,1,658,Correct,13,715
13,FKFKF,152,1,619,Correct,13,763
13,PFPFP,153,1,561,Correct,13,875
13,XYXHX,92,[2][3],[844][1133],Correct,13,787
13,RZRKR,14,2,608,Correct,13,797
13,FLFLH,225,1,765,Correct,13,782
13,KRKRK,113,1,656,Correct,13,906
13,ZVZNZ,161,2,653,Correct,13,763
13,ZOZOZ,194,1,616,Correct,13,732
13,FZFZF,15,1,687,Correct,13,945
13,FHFKF,101,[2][3],[989][1343],Correct,13,824
13,ZXHLZ,233,2,727,Correct,13,671
13,FKFXF,222,2,1425,Correct,13,790
13,CFCYC,162,2,1170,Correct,13,652
13,ZXZVZ,163,2,699,Correct,13,741
13,KCKOK,185,2,741,Correct,13,680
13,ZXZVH,235,2,697,Correct,13,891
13,CKCKC,113,1,1073,Correct,13,742
13,ZXZCZ,161,2,614,Correct,13,896
13,YVYVY,151,1,675,Correct,13,835
13,RVHVR,223,1,728,Correct,13,950
13,ZRZRZ,113,1,676,Correct,13,684
13,ZHZHZ,11,[1][3],[951][1351],Correct,13,718
13,VZVZV,13,1,643,Correct,13,859
13,HZVRV,231,2,1128,Correct,13,939
13,FVFVF,113,1,678,Correct,13,675
13,RNRCR,161,2,605,Correct,13,911
13,COCOC,196,1,733,Correct,13,665
13,VNVXV,16,2,661,Correct,13,800
13,XHXHX,12,[1][3],[708][981],Correct,13,735
14,G,5,3,2352,New Target,14,934
14,FZFZF,151,1,732,Correct,14,864
14,RPRVR,161,2,688,Correct,14,876
14,XCXCX,151,1,586,Correct,14,744
14,YXYXY,152,1,687,Correct,14,664
14,KZKZK,153,1,580,Correct,14,916
14,RYRKR,161,2,676,Correct,14,726
14,FYFNF,162,2,693,Correct,14,665
14,VKVKV,151,1,859,Correct,14,826
14,KPGPK,223,1,668,Correct,14,813
14,YNYNY,113,1,613,Correct,14,806
14,VYVYV,152,1,609,Correct,14,856
14,YCYXY,161,2,660,Correct,14,701
14,LKLGL,72,[2][3],[1129][1513],Correct,14,939
14,VXVXV,13,1,597,Correct,14,842
14,KCKVK,161,2,638,Correct,14,906
14,YKYKY,151,1,860,Correct,14,693
14,RHRXR,171,2,1155,Correct,14,657
14,FVFCF,16,2,696,Correct,14,800
14,YXYGY,82,[2][3],[832][1153],Correct,14,784
14,CLCLC,13,1,591,Correct,14,859
14,ZXZCZ,161,2,1010,Correct,14,667
14,VLVFV,162,2,738,Correct,14,769
14,CPCPG,225,1,712,Correct,14,809
14,KHKNK,172,2,964,Correct,14,748
14,ZKZVZ,16,2,718,Correct,14,888
14,YKYLY,162,2,596,Correct,14,940
14,CNCNC,151,1,625,Correct,14,657
14,PGPGP,9,[1][3],[864][1182],Correct,14,945
14,VPVPV,13,1,650,Correct,14,711
14,FXGRF,233,2,1106,Correct,14,847
14,CYCVC,222,2,829,Correct,14,754
14,FNFNF,151,1,686,Correct,14,820
14,KFKCK,161,2,647,Correct,14,823
14,ZFZHZ,183,2,1034,Correct,14,868
14,NXNXN,15,1,769,Correct,14,949
14,FNFNF,152,1,647,Correct,14,717
14,LXLNG,235,2,669,Correct,14,931
14,XKXVX,222,2,658,Correct,14,888
14,ZHZHZ,194,1,1291,Correct,14,755
14,PFPFP,15,1,652,Correct,14,819
14,ZYZYZ,152,1,711,Correct,14,765
14,XPXVX,161,2,633,Correct,14,880
14,YCYCY,151,1,544,Correct,14,902
14,RGRGR,10,[1][3],[858][1276],Correct,14,785
14,VRVRV,13,1,588,Correct,14,821
14,PKPNP,161,2,829,Correct,14,668
14,XGXGX,11,[1][3],[726][1270],Correct,14,681
14,GZYVY,231,2,959,Correct,14,842
14,VCVNV,222,2,684,Correct,14,839
14,VHVHV,195,1,982,Correct,14,718
14,LXLNL,16,2,647,Correct,14,653
14,GKPKP,221,1,996,Correct,14,718
14,XRXPX,222,2,921,Correct,14,940
14,XNXNX,151,1,1011,Correct,14,889
14,KHKNK,176,2,673,Incorrect,14,786
14,RZRZR,15,1,632,Correct,14,917
14,CGCFC,121,[2][3],[1041][1473],Correct,14,741
15,A,5,3,1856,New Target,15,828
15,XRXFX,161,2,828,Correct,15,838
15,RXRKR,162,2,1010,Correct,15,689
15,YRYRY,151,1,765,Correct,15,920
15,XPXPX,152,1,659,Correct,15,824
15,RPRPR,153,1,974,Correct,15,684
15,NCNCN,154,1,559,Correct,15,705
15,RXRZR,161,2,657,Correct,15,734
15,NANAN,7,[1][3],[955][1403],Correct,15,764
15,KCKYK,14,2,597,Correct,15,821
15,XKXFX,162,2,591,Correct,15,802
15,ZLZKZ,163,2,604,Correct,15,817
15,VCVZV,164,2,682,Correct,15,744
15,XCXVX,165,2,500,Correct,15,779
15,LKLZA,235,2,598,Correct,15,777
15,NCNCN,113,1,639,Correct,15,909
15,YGYGY,191,1,1226,Correct,15,722
15,VLVLV,15,2,540,Incorrect,15,934
15,XRXRX,152,1,874,Correct,15,763
15,KAKPK,81,[2][3],[1084][1501],Correct,15,924
15,YZAZY,233,1,860,Incorrect,15,763
15,CFCFC,113,1,832,Correct,15,805
15,VNVLV,161,2,756,Correct,15,704
15,KPKVK,162,2,710,Correct,15,938
15,NCNRN,163,2,639,Correct,15,857
15,FGFGF,192,1,659,Correct,15,898
15,RCRYR,16,2,617,Correct,15,897
15,KRKCK,162,2,694,Correct,15,726
15,CRCRC,151,1,646,Correct,15,671
15,XPAPX,223,1,719,Correct,15,821
15,LPLXL,222,2,629,Correct,15,796
15,CGCVC,173,2,826,Correct,15,927
15,FKFZF,16,2,796,Correct,15,871
15,CACAC,9,[1][3],[735][1071],Correct,15,877
15,XCXCX,13,1,1325,Correct,15,868
15,AXRXR,221,1,968,Correct,15,854
15,NKNRN,222,2,729,Correct,15,823
15,KNKFK,162,2,739,Correct,15,708
15,KAKAK,10,[1][3],[736][1119],Correct,15,945
15,ZCZRZ,14,2,836,Correct,15,719
15,RPRPR,151,1,1099,Correct,15,715
15,NCNCN,152,1,994,Correct,15,852
15,RYRGR,184,2,1026,Correct,15,761
15,VPVPV,15,1,727,Correct,15,950
15,RCRCA,225,1,641,Correct,15,722
15,KXKPK,222,2,637,Correct,15,739
15,NPNPN,151,1,648,Correct,15,777
15,YCYCY,152,1,559,Correct,15,893
15,PXPAP,112,[2][3],[946][1313],Correct,15,885
15,ZCZNZ,14,2,641,Correct,15,828
15,KYKGK,185,2,1329,Correct,15,696
15,ANLPL,231,2,931,Correct,15,845
15,CXCPC,222,2,544,Correct,15,754
15,YRYRY,151,1,892,Correct,15,812
15,LGLGL,196,1,699,Correct,15,855
15,VYVLV,16,2,772,Correct,15,711
15,KVKVK,151,1,940,Correct,15,724
15,RKRKR,152,1,656,Correct,15,748
15,VXVXV,153,1,780,Correct,15,739
15,XAXAX,12,[1][3],[830][1229],Correct,15,683
