Trial No,Stimulus,Trigger,Response,Response Time(ms),Correct,Block,Fixation Duration
Practice
OT Practice
1,SKSKS,15,1,1117,Correct,0,734
1,DLDUD,16,1,888,False,0,791
1,PDPGP,16,2,856,Correct,0,824
1,MWMWM,15,1,1087,Correct,0,708
1,FTFTF,15,2,902,False,0,920
1,AXAMA,16,2,727,Correct,0,766
1,RYRGR,16,2,821,Correct,0,661
1,DODOD,15,1,743,Correct,0,910
1,QTQAQ,16,2,1102,Correct,0,829
1,YEYEY,15,1,741,Correct,0,892
2,GYGDG,16,2,898,Correct,0,907
2,SWSWS,15,1,808,Correct,0,688
2,HLHUH,16,2,1087,Correct,0,715
2,DEDED,15,1,776,Correct,0,867
2,ZPZOZ,16,2,692,Correct,0,778
2,ATATA,15,1,733,Correct,0,758
2,QOQOQ,15,2,1132,False,0,663
2,FPFGF,16,2,828,Correct,0,654
2,TRTET,16,2,1032,Correct,0,655
2,DQDQD,15,1,1146,Correct,0,710
4,PLPLP,15,1,1040,Correct,0,671
4,ATAIA,16,2,1180,Correct,0,851
4,SKSGS,16,2,1092,Correct,0,770
4,ZYZYZ,15,1,809,Correct,0,947
4,QSQSQ,15,1,925,Correct,0,891
4,TZTDT,16,2,811,Correct,0,871
4,JYJGJ,16,2,789,Correct,0,665
4,DYDYD,15,1,585,Correct,0,841
4,LTLCL,16,2,761,Correct,0,723
4,FQFEF,16,2,705,Correct,0,756
1,SKSKS,15,1,1147,Correct,0,668
1,DLDUD,16,2,804,Correct,0,781
1,PDPGP,16,2,1196,Correct,0,733
1,MWMWM,15,1,727,Correct,0,710
1,FTFTF,15,1,1173,Correct,0,700
1,AXAMA,16,2,961,Correct,0,709
1,RYRGR,16,2,770,Correct,0,756
1,DODOD,15,1,651,Correct,0,765
1,QTQAQ,16,2,759,Correct,0,817
1,YEYEY,15,1,659,Correct,0,686
2,GYGDG,16,2,1136,Correct,0,688
2,SWSWS,15,1,550,Correct,0,905
2,HLHUH,16,2,902,Correct,0,774
2,DEDED,15,1,648,Correct,0,833
2,ZPZOZ,16,2,838,Correct,0,769
2,ATATA,15,1,554,Correct,0,837
2,QOQOQ,15,1,777,Correct,0,826
2,FPFGF,16,2,626,Correct,0,763
2,TRTET,16,2,774,Correct,0,651
2,DQDQD,15,1,1112,Correct,0,909
DT Practice
1,TKTKT,15,1,824,Correct,0,907
1,SLSUS,16,1,832,False,0,685
1,VZVGV,7,[2],[759],False,0,939
1,XWXZX,7,[1],[1591],False,0,881
1,ATATA,15,1,1102,Correct,0,754
1,HXZMH,16,2,1528,Correct,0,825
1,TZTZT,7,[1],[1250],False,0,676
1,UOUOU,15,1,884,Correct,0,941
1,ZTWAW,16,,,False,0,831
1,RZRER,7,[2],[1563],False,0,946
2,JYJDJ,16,2,1303,Correct,0,830
2,DWDWD,15,2,778,False,0,731
2,GNGNG,7,[1],[1030],False,0,737
2,NEZEZ,16,1,1510,Correct,0,779
2,RNROR,7,[2],[1336],False,0,848
2,QTQNQ,7,[2][3],[1219][1571],Correct,0,680
2,HOHON,15,1,1284,Correct,0,874
2,KPKGK,16,2,892,Correct,0,704
2,DRDED,16,2,876,Correct,0,892
2,LNLNL,7,[1][3],[896][1200],Correct,0,866
4,GLGLG,15,1,1094,Correct,0,707
4,DTDID,16,2,818,Correct,0,825
4,SMSGS,16,2,877,Correct,0,737
4,ZFZYZ,7,,,False,0,662
4,TSTFT,7,[2],[1336],False,0,747
4,OFOFO,7,[1][3],[1000][1400],Correct,0,889
4,WYFGW,16,2,1299,Correct,0,676
4,WYWYW,15,1,1096,Correct,0,777
4,MFMCM,7,[2],[1479],False,0,745
4,HQHEH,16,2,980,Correct,0,803
1,TKTKT,15,1,840,Correct,0,703
1,SLSUS,16,2,687,Correct,0,779
1,VZVGV,7,[2][3],[1127][1351],Correct,0,828
1,XWXZX,7,[2][3],[975][1151],Correct,0,902
1,ATATA,15,1,739,Correct,0,687
1,HXZMH,16,2,1004,Correct,0,763
1,TZTZT,7,[1][3],[899][1059],Correct,0,742
1,UOUOU,15,1,879,Correct,0,849
1,ZTWAW,16,2,1128,Correct,0,655
1,RZRER,7,[1][3],[932][1108],False,0,757
2,JYJDJ,16,2,914,Correct,0,847
2,DWDWD,15,1,696,Correct,0,714
2,GNGNG,7,[1][3],[1052][1468],Correct,0,907
2,NEZEZ,16,1,1157,Correct,0,774
2,RNROR,7,[2],[1256],False,0,860
2,QTQNQ,7,[2][3],[1045][1269],Correct,0,896
2,HOHON,15,1,1275,Correct,0,681
2,KPKGK,16,2,846,Correct,0,862
2,DRDED,16,2,930,Correct,0,856
2,LNLNL,7,[1][3],[856][1192],Correct,0,934
4,GLGLG,15,1,1584,Correct,0,898
4,DTDID,16,2,746,Correct,0,764
4,SMSGS,16,2,896,Correct,0,802
4,ZFZYZ,7,[1][3],[891][1387],False,0,853
4,TSTFT,7,[2],[1253],False,0,732
4,OFOFO,7,[1][3],[1036][1420],Correct,0,699
4,WYFGW,16,2,1235,Correct,0,838
4,WYWYW,15,1,890,Correct,0,710
4,MFMCM,7,[2][3],[1221][1540],Correct,0,773
4,HQHEH,16,2,870,Correct,0,663
1,TKTKT,15,1,972,Correct,0,853
1,SLSUS,16,2,975,Correct,0,732
1,VZVGV,7,[2][3],[1208][1496],Correct,0,731
1,XWXZX,7,[2][3],[1235][1475],Correct,0,742
1,ATATA,15,1,891,Correct,0,880
1,HXZMH,16,2,1037,Correct,0,861
1,TZTZT,7,[1][3],[1022][1278],Correct,0,705
1,UOUOU,15,1,953,Correct,0,729
1,ZTWAW,16,2,1363,Correct,0,937
1,RZRER,7,[2][3],[1178][1450],Correct,0,655
2,JYJDJ,16,,,False,0,770
2,DWDWD,15,1,938,Correct,0,771
2,GNGNG,7,,,False,0,665
2,NEZEZ,16,1,1162,Correct,0,925
2,RNROR,7,[2][3],[1272][1496],Correct,0,849
2,QTQNQ,7,[2][3],[1092][1412],Correct,0,882
2,HOHON,15,1,949,Correct,0,905
2,KPKGK,16,2,1093,Correct,0,787
2,DRDED,16,2,1027,Correct,0,665
2,LNLNL,7,[1][3],[940][1244],Correct,0,845
4,GLGLG,15,1,754,Correct,0,902
4,DTDID,16,2,967,Correct,0,815
4,SMSGS,16,2,944,Correct,0,947
4,ZFZYZ,7,[2],[1552],False,0,795
4,TSTFT,7,[2][3],[1121][1393],Correct,0,866
4,OFOFO,7,[1][3],[965][1269],Correct,0,697
4,WYFGW,16,2,972,Correct,0,811
4,WYWYW,15,1,866,Correct,0,674
4,MFMCM,7,[2],[1328],False,0,931
4,HQHEH,16,2,1373,Correct,0,871
1,TKTKT,15,1,985,Correct,0,790
1,SLSUS,16,2,1283,Correct,0,948
1,VZVGV,7,[2][3],[1131][1419],Correct,0,781
1,XWXZX,7,[2][3],[1028][1332],Correct,0,807
1,ATATA,15,1,780,Correct,0,804
1,HXZMH,16,2,968,Correct,0,674
1,TZTZT,7,[1][3],[793][1081],Correct,0,877
1,UOUOU,15,1,837,Correct,0,900
1,ZTWAW,16,2,808,Correct,0,840
1,RZRER,7,[1][3],[835][1139],False,0,809
Trials
1,D,5,3,5995,New Target,1,864
1,ZNZYZ,161,2,1282,Correct,1,736
1,FZFZF,151,1,856,Correct,1,837
1,RKRKR,152,1,975,Correct,1,806
1,RXRNR,161,2,711,Correct,1,656
1,CNCFC,162,2,965,Correct,1,763
1,PDPDP,7,[1],[823],Incorrect,1,753
1,CPCFC,14,2,1168,Correct,1,790
1,VLVNV,162,2,876,Correct,1,733
1,KFKFK,151,1,783,Correct,1,933
1,ZNZNZ,152,2,1400,Incorrect,1,776
1,KCKPD,235,2,988,Correct,1,716
1,ZKZFZ,222,2,963,Correct,1,714
1,NRNZN,162,2,1112,Correct,1,721
1,KXKRK,163,2,856,Correct,1,761
1,YPYZY,164,2,766,Correct,1,830
1,FKDKF,223,1,1177,Correct,1,839
1,RPRPR,113,1,1107,Correct,1,766
1,VRVKV,161,2,739,Correct,1,778
1,RFRPR,162,2,1473,Correct,1,739
1,KVKVK,151,1,783,Correct,1,881
1,YKYVY,161,2,904,Correct,1,785
1,VDVDV,8,[1][3],[991][1375],Correct,1,875
1,DVZVZ,221,1,1017,Correct,1,784
1,YFYFY,113,1,838,Correct,1,933
1,ZYZYZ,152,1,898,Correct,1,654
1,VLVXV,161,2,1045,Correct,1,832
1,DPXZX,231,2,868,Correct,1,881
1,RYRYR,113,1,921,Correct,1,844
1,PDPNP,91,[2],[1321],Incorrect,1,922
1,KXKXK,13,1,1324,Correct,1,818
1,ZYZYZ,152,1,981,Correct,1,716
1,VKVKV,153,1,869,Correct,1,860
1,YZYZY,154,1,813,Correct,1,736
1,NLNZN,161,2,1170,Correct,1,887
1,ZNDYZ,233,2,928,Correct,1,751
1,PCPXP,222,2,690,Correct,1,926
1,ZVZFZ,162,2,770,Correct,1,766
1,RCRZR,163,2,649,Correct,1,937
1,LRLRL,151,1,699,Correct,1,735
1,ZDZDZ,10,[1][3],[957][1309],Correct,1,687
1,RNRZR,14,2,778,Correct,1,815
1,CXCYC,162,2,911,Correct,1,928
1,RCRLR,163,2,834,Correct,1,873
1,FRFRF,151,1,798,Correct,1,662
1,XFXFX,152,1,995,Correct,1,898
1,RPRLR,161,2,746,Correct,1,683
1,YXYRY,162,2,836,Correct,1,830
1,FYFYF,151,2,685,Incorrect,1,786
1,YZYVY,161,2,1118,Correct,1,662
1,YKYKY,151,1,767,Correct,1,737
1,XRXRX,152,1,796,Correct,1,691
1,XVXZX,161,2,626,Correct,1,865
1,PDPDP,11,[1][3],[925][1245],Correct,1,897
1,ZFZFZ,13,1,955,Correct,1,936
1,PXPXP,152,1,897,Correct,1,736
1,LYLYL,153,1,888,Correct,1,749
1,NKNKD,225,1,1003,Correct,1,844
1,ZNZNZ,113,1,774,Correct,1,948
1,PYPZP,161,2,845,Correct,1,852
1,XPXPX,151,2,928,Incorrect,1,891
1,VLVLV,152,1,970,Correct,1,729
1,PKPXP,161,2,993,Correct,1,680
1,FZFZF,151,1,870,Correct,1,712
1,LDLDL,12,[1][3],[912][1263],Correct,1,653
2,U,5,3,3752,New Target,2,889
2,ZVZFZ,161,2,1456,Correct,2,884
2,FZFZF,151,1,949,Correct,2,701
2,RFRFR,152,1,938,Correct,2,770
2,NZNKN,161,2,845,Correct,2,823
2,FZFNF,162,2,851,Correct,2,838
2,RXRXR,151,1,761,Correct,2,840
2,KRKYK,161,2,1416,Correct,2,786
2,NZNPN,162,2,729,Correct,2,745
2,XPXPX,151,1,693,Correct,2,763
2,CUCUC,7,[1][3],[984][1320],Correct,2,662
2,RFRFR,13,1,861,Correct,2,651
2,VYVXV,161,2,727,Correct,2,704
2,VDVDV,191,1,791,Correct,2,720
2,ZKZRZ,15,2,754,Correct,2,807
2,XCXCX,151,1,747,Correct,2,831
2,CNCUC,82,[1],[1255],Incorrect,2,898
2,RCRCR,13,1,1130,Correct,2,695
2,ZPZXZ,161,2,936,Correct,2,796
2,FKFYF,162,2,912,Correct,2,740
2,ZFZYZ,163,2,889,Correct,2,683
2,PXPXP,151,1,816,Correct,2,795
2,URCKC,231,2,787,Correct,2,874
2,PCPCP,113,1,570,Correct,2,878
2,XNXNX,152,1,765,Correct,2,821
2,RCRZR,161,2,692,Correct,2,854
2,XVXVX,151,1,579,Correct,2,863
2,NRNRN,152,1,960,Correct,2,837
2,FPFPF,225,1,738,Correct,2,868
2,XVXFX,222,2,752,Correct,2,723
2,PRPRP,151,1,696,Correct,2,895
2,FYFCF,161,2,920,Correct,2,757
2,XUXFX,91,[1][3],[1061][1509],Incorrect,2,705
2,CYCVC,14,2,1115,Correct,2,712
2,VDVKV,172,2,937,Correct,2,718
2,YCYCY,15,1,731,Correct,2,881
2,NKNLN,161,2,739,Correct,2,930
2,XPUKX,233,2,1010,Correct,2,712
2,ZPZPZ,113,1,836,Correct,2,813
2,KRKRK,152,1,850,Correct,2,655
2,XKXKX,153,1,612,Correct,2,911
2,YUYVY,101,[2][3],[1135][1471],Correct,2,878
2,XKXFU,235,2,1087,Correct,2,722
2,NFNFN,113,1,823,Correct,2,948
2,KDKDK,193,1,1129,Correct,2,924
2,XYXKX,16,2,842,Correct,2,739
2,YZUZY,223,2,1254,Incorrect,2,711
2,KFKVK,222,2,746,Correct,2,882
2,LYLYL,151,1,987,Correct,2,679
2,CXCDC,184,2,1163,Incorrect,2,888
2,XZXNX,16,1,1207,Incorrect,2,822
2,PXPXP,151,1,875,Correct,2,915
2,ZRZYZ,161,2,743,Correct,2,654
2,PUPYP,111,[2][3],[1261][1565],Correct,2,941
2,RNRNR,14,1,864,Correct,2,838
2,KDKDK,195,1,895,Correct,2,949
2,KNKNK,15,1,931,Correct,2,856
2,PRPKP,161,2,1018,Correct,2,797
2,UNYNY,221,2,1070,Incorrect,2,651
2,NYNYN,113,1,1304,Correct,2,910
2,YXYXY,152,1,799,Incorrect,2,786
2,RDRDR,196,1,881,Correct,2,944
2,FCFCF,15,1,732,Correct,2,689
2,ZKZKZ,152,1,987,Correct,2,698
2,ZUZUZ,12,[1],[1256],Incorrect,2,665
3,E,5,3,15904,New Target,3,716
3,YZYZY,151,1,921,Correct,3,943
3,VFVNV,161,2,862,Correct,3,785
3,KYKYK,151,1,1236,Correct,3,792
3,NKNKN,152,1,890,Correct,3,918
3,XVXNX,161,2,910,Correct,3,888
3,RERFR,71,[2],[899],Incorrect,3,891
3,XNXNX,13,1,884,Correct,3,766
3,NXNXN,152,1,830,Correct,3,734
3,ZLZNZ,161,2,983,Correct,3,770
3,CUCNC,171,2,1176,Correct,3,830
3,FYFRF,16,2,888,Correct,3,725
3,ZLZLZ,151,1,881,Correct,3,697
3,YZYZY,152,1,828,Correct,3,663
3,CYCYC,153,2,965,Incorrect,3,837
3,VUVUV,192,1,1158,Correct,3,824
3,PXPRP,16,2,960,Correct,3,903
3,YPYPY,151,1,1040,Correct,3,857
3,CECEC,8,[1],[1087],Incorrect,3,719
3,VNENV,223,1,1482,Correct,3,691
3,KRKFK,222,2,1038,Correct,3,698
3,XLXLE,225,1,1044,Correct,3,700
3,RFRUR,183,2,1009,Correct,3,911
3,XRXLX,16,2,964,Correct,3,753
3,NZNPN,162,2,1467,Correct,3,744
3,XZXZX,151,1,925,Correct,3,738
3,FZFZF,152,1,1508,Correct,3,783
3,PFPFP,153,1,902,Correct,3,789
3,YZYXY,161,2,888,Correct,3,799
3,KEKEK,9,[1][3],[1061][1493],Correct,3,915
3,CXCPC,14,2,1387,Correct,3,946
3,VXVXV,151,1,1089,Correct,3,761
3,NUNZN,174,2,883,Correct,3,714
3,RKRVR,16,2,1472,Correct,3,650
3,XRXRX,151,1,1024,Correct,3,835
3,ERNFN,231,2,1263,Incorrect,3,814
3,YRYNY,222,2,696,Correct,3,713
3,PZPEP,102,[2],[940],Incorrect,3,660
3,ZYZXZ,14,1,1348,Incorrect,3,730
3,RZRVR,162,2,1060,Correct,3,884
3,XRXRX,151,1,939,Correct,3,658
3,KUKFK,175,,,Incorrect,3,931
3,RKRKR,15,1,817,Correct,3,857
3,ZFZFZ,152,1,1052,Correct,3,780
3,YZYVY,161,2,888,Correct,3,910
3,XPXNX,162,2,957,Correct,3,795
3,YRYRY,151,1,1045,Correct,3,686
3,EPVPV,221,1,1096,Correct,3,736
3,CRCEC,112,[2],[1599],Incorrect,3,880
3,RFRCR,14,2,1320,Correct,3,794
3,CPCVC,162,,,Incorrect,3,854
3,RXRCR,163,2,845,Correct,3,723
3,VNVLV,164,2,750,Correct,3,919
3,ZXZXZ,151,3,1185,Incorrect,3,676
3,ZCZCZ,152,1,872,Correct,3,811
3,PYPUP,186,2,1235,Correct,3,683
3,YKYPY,16,2,935,Correct,3,938
3,YREXY,233,2,988,Correct,3,745
3,ZKZKZ,113,1,936,Correct,3,915
3,XLXNX,161,2,735,Correct,3,763
3,KFKRE,235,2,859,Correct,3,802
3,RXRLR,222,2,831,Correct,3,878
3,RERXR,121,[2][3],[1096][1464],Correct,3,765
4,J,5,3,10335,New Target,4,820
4,CYCVC,161,2,1127,Correct,4,896
4,RXRCR,162,2,801,Correct,4,920
4,FPFVF,163,2,703,Correct,4,681
4,LZLZL,151,1,955,Correct,4,834
4,PLPLP,152,1,832,Correct,4,773
4,NPNPN,153,1,1102,Correct,4,660
4,XZXZX,161,1,849,Incorrect,4,711
4,CNCKC,162,2,903,Correct,4,870
4,PCPYJ,235,2,768,Correct,4,657
4,VYVYV,113,1,911,Correct,4,681
4,RLRLR,152,1,727,Correct,4,695
4,CJCJC,7,[1][3],[1138][1490],Correct,4,663
4,ZLZLZ,13,1,822,Correct,4,659
4,FZFZF,152,1,675,Correct,4,662
4,CFCFC,153,1,943,Correct,4,870
4,PZPZP,154,1,662,Correct,4,695
4,XEXEX,191,1,708,Correct,4,801
4,NVNFN,16,2,862,Correct,4,937
4,KYKYK,151,1,1010,Correct,4,929
4,ZNZVZ,161,2,835,Correct,4,782
4,YVJXY,233,2,1430,Correct,4,905
4,XFXFX,113,1,901,Correct,4,925
4,XNXNX,152,1,1007,Correct,4,671
4,FJFKF,81,[2],[1294],Incorrect,4,846
4,CZCYC,14,2,1345,Correct,4,846
4,ZXZCZ,162,2,1180,Correct,4,707
4,RYRYJ,225,1,1291,Correct,4,660
4,FPFZF,222,2,820,Correct,4,732
4,XRXRX,151,1,911,Correct,4,740
4,YPYEY,182,2,738,Correct,4,850
4,XRXRX,15,1,1005,Correct,4,896
4,XZXPX,161,2,1132,Correct,4,873
4,CJCJC,9,[1][3],[933][1413],Correct,4,739
4,ZXZVZ,14,2,796,Correct,4,673
4,VKVKV,151,1,1413,Correct,4,783
4,VEVNV,173,2,778,Correct,4,731
4,ZKZVZ,16,2,1253,Correct,4,703
4,XVXJX,102,[1][3],[1013][1381],Incorrect,4,862
4,RXRVR,14,2,813,Correct,4,709
4,LRLRL,151,1,754,Correct,4,909
4,YNJNY,223,1,1098,Correct,4,900
4,NPNJN,222,2,1397,Correct,4,839
4,ZEZEZ,194,1,1090,Correct,4,933
4,ZNZNZ,15,1,910,Correct,4,859
4,YZYZY,152,1,821,Correct,4,752
4,XYXYX,153,1,930,Correct,4,715
4,ZXZXZ,221,1,840,Correct,4,759
4,LYLZL,222,2,1162,Correct,4,916
4,CYCNC,162,2,1018,Correct,4,714
4,XEXEX,195,1,623,Correct,4,693
4,CVCXC,16,2,795,Correct,4,868
4,ZPZXZ,162,2,656,Correct,4,892
4,FZFZF,151,1,683,Correct,4,903
4,RXRJR,112,[2][3],[593][1249],Correct,4,706
4,PRPFP,14,2,1501,Correct,4,800
4,PKPEP,186,2,745,Correct,4,890
4,XZXPX,16,2,755,Correct,4,892
4,JCZVZ,231,2,748,Correct,4,877
4,RXRLR,222,2,795,Correct,4,683
4,VZVZV,151,1,600,Correct,4,676
4,XJXJX,12,[1],[1320],Incorrect,4,866
5,I,5,3,41746,New Target,5,725
5,PCPCP,151,1,1100,Correct,5,897
5,XYXYX,152,1,966,Correct,5,948
5,VXVXV,153,1,907,Correct,5,690
5,XVXVX,154,1,756,Correct,5,690
5,ZRZXZ,161,2,950,Correct,5,663
5,FPFZF,162,2,775,Correct,5,908
5,ZYZYZ,151,1,786,Correct,5,792
5,RVRZR,161,2,894,Correct,5,781
5,CICIC,7,[1][3],[1113][1529],Correct,5,839
5,XLXLX,13,1,1006,Correct,5,662
5,YVYVY,152,1,837,Correct,5,713
5,CJCJC,191,1,1455,Correct,5,759
5,FNFCF,16,2,771,Correct,5,695
5,PVPRP,162,2,762,Correct,5,904
5,FZFZF,151,1,904,Correct,5,724
5,NVIVN,223,1,1292,Correct,5,851
5,CVCIC,82,[2][3],[1275][1595],Correct,5,936
5,ZXZXZ,13,1,1155,Correct,5,772
5,FCFZF,161,2,1274,Correct,5,917
5,IXRXR,221,1,1025,Correct,5,796
5,ZPZNZ,222,1,1429,Incorrect,5,697
5,VZVZV,151,1,790,Correct,5,842
5,YRYNY,161,2,908,Correct,5,913
5,VNVPV,162,2,945,Correct,5,814
5,RVRJR,182,2,707,Correct,5,852
5,VRVRV,15,1,847,Correct,5,872
5,VIVIV,9,[1][3],[952][1336],Correct,5,702
5,CXCVC,14,2,775,Correct,5,876
5,PZPZP,151,2,574,Incorrect,5,871
5,IXVKV,231,2,847,Correct,5,855
5,YJYCY,173,2,1154,Incorrect,5,946
5,VYVYV,15,1,1322,Correct,5,924
5,YVYVY,152,1,813,Correct,5,861
5,NVNVN,153,1,1190,Correct,5,799
5,XYXVX,161,2,1008,Correct,5,852
5,NJNCN,174,2,1001,Correct,5,652
5,NXNYN,16,2,861,Correct,5,723
5,VXVCV,162,2,848,Correct,5,918
5,ZKZKZ,151,1,1029,Correct,5,801
5,XRXYX,161,2,1212,Correct,5,666
5,ZCZXZ,162,2,793,Correct,5,686
5,KVKYI,235,2,937,Correct,5,656
5,CNCNC,113,1,854,Correct,5,949
5,RIRIR,10,[1][3],[1167][1599],Correct,5,777
5,VYVXV,14,2,757,Correct,5,765
5,FXIRF,233,2,1067,Correct,5,932
5,PFPFP,113,1,847,Correct,5,656
5,VPVPV,152,2,1047,Incorrect,5,788
5,ZJZJZ,195,2,1115,Incorrect,5,733
5,ZVZNZ,16,2,964,Correct,5,884
5,YVYXY,162,2,1083,Correct,5,752
5,PRPRP,151,1,1051,Correct,5,797
5,YPYPY,152,1,732,Correct,5,790
5,ZIZPZ,111,[2],[1302],Incorrect,5,688
5,NKNXN,14,2,910,Correct,5,869
5,RZRXR,162,2,752,Correct,5,857
5,RXRXR,151,1,955,Correct,5,783
5,ZJZJZ,196,1,1325,Correct,5,832
5,CVCVI,225,1,932,Incorrect,5,745
5,NKNKN,113,1,965,Correct,5,910
5,NRNZN,161,2,795,Correct,5,783
5,CNCNC,151,1,896,Correct,5,918
5,RFRIR,122,[2][3],[763][1451],Correct,5,731
6,B,5,3,1473,New Target,6,739
6,YKYZY,161,2,845,Correct,6,827
6,VCVRV,162,2,884,Correct,6,801
6,XVXVX,151,1,712,Correct,6,865
6,KZKRK,161,2,694,Correct,6,732
6,ZVZXZ,162,2,1338,Correct,6,662
6,RCRNR,163,2,779,Correct,6,899
6,CXCRC,164,2,663,Correct,6,818
6,VNBCV,233,2,551,Correct,6,760
6,CXCVC,222,2,719,Correct,6,654
6,RFRFR,151,1,808,Correct,6,910
6,XPXRX,161,2,722,Correct,6,802
6,RYRBR,72,[2],[717],Incorrect,6,878
6,ZKZKZ,13,1,748,Correct,6,822
6,FIFRF,171,2,1013,Correct,6,861
6,VZVLV,16,2,918,Correct,6,785
6,RPRVR,162,2,543,Correct,6,700
6,YBYBY,8,[1][3],[772][1124],Correct,6,727
6,PYPVP,14,2,1125,Correct,6,868
6,NININ,192,1,1041,Correct,6,827
6,RNRNR,15,1,944,Correct,6,798
6,NXNVN,161,2,753,Correct,6,920
6,RNRNR,151,1,1200,Correct,6,664
6,FRFVF,161,2,910,Correct,6,679
6,YVYFB,235,2,1046,Incorrect,6,737
6,ZRZXZ,222,2,853,Correct,6,854
6,VNVIV,193,2,858,Incorrect,6,883
6,PXPNP,16,2,1303,Correct,6,669
6,ZXZPZ,162,2,632,Correct,6,934
6,VBVBV,9,[1][3],[835][1235],Correct,6,672
6,CXCXC,13,1,1264,Correct,6,794
6,PCPFP,161,2,874,Correct,6,737
6,KNKNK,151,1,1452,Correct,6,950
6,XIXIX,194,1,1119,Correct,6,767
6,CYCYC,15,1,856,Correct,6,926
6,FVFYF,161,2,1003,Correct,6,915
6,YNYRY,162,2,958,Correct,6,731
6,BVPXP,231,2,1178,Correct,6,946
6,NXNXN,113,1,1159,Correct,6,748
6,FRFRF,152,1,1076,Correct,6,778
6,YVYVY,153,1,1026,Correct,6,814
6,ZKZCZ,161,2,767,Correct,6,946
6,VIVXV,175,2,1050,Correct,6,877
6,PRBRP,223,1,1207,Correct,6,835
6,YZYBY,102,[2][3],[646][1350],Correct,6,839
6,CXCVC,14,2,1178,Correct,6,871
6,FYFYF,151,1,864,Correct,6,942
6,VKVXV,161,2,827,Correct,6,702
6,ZBZBZ,11,[1][3],[937][1288],Correct,6,730
6,FPFNF,14,2,680,Correct,6,651
6,CXCXC,151,1,1092,Correct,6,820
6,YCYCY,152,1,1233,Correct,6,846
6,FPFPF,153,1,1002,Correct,6,746
6,CVCVB,225,1,1298,Correct,6,669
6,ZCZCZ,113,1,1225,Correct,6,792
6,CZCNC,161,2,869,Correct,6,711
6,KIKFK,176,2,908,Correct,6,818
6,PXPXP,15,1,1074,Correct,6,749
6,RYRYR,152,1,1011,Correct,6,749
6,ZRZCZ,161,2,822,Correct,6,749
6,RVRVR,151,1,781,Correct,6,823
6,XYXNX,161,2,855,Correct,6,752
6,BVKVK,221,1,1139,Correct,6,684
6,CBCBC,12,[1][3],[1065][1497],Correct,6,723
7,W,5,3,5084,New Target,7,931
7,RKRKR,151,1,995,Correct,7,891
7,CVCRC,161,2,777,Correct,7,716
7,PKPKP,151,1,882,Correct,7,814
7,FPFPF,152,1,1097,Correct,7,814
7,VRVPV,161,1,1194,Incorrect,7,769
7,ZKZYZ,162,2,936,Correct,7,671
7,PVPCP,233,2,961,Correct,7,654
7,KVKVK,113,1,754,Correct,7,845
7,YXYVY,161,2,682,Correct,7,890
7,FNFNF,151,1,780,Correct,7,746
7,YWYWY,7,[1][3],[857][1273],Correct,7,664
7,ZYZYZ,13,1,971,Correct,7,773
7,PYPYP,152,1,624,Correct,7,717
7,XRXRX,153,2,940,Incorrect,7,948
7,PXPXP,154,1,783,Correct,7,861
7,FCFBF,181,2,926,Correct,7,683
7,FVFVF,15,1,808,Correct,7,729
7,CYCZC,161,2,1009,Correct,7,824
7,XZXVX,162,2,837,Correct,7,759
7,PFPFP,151,1,849,Correct,7,790
7,RVRLR,161,2,789,Correct,7,866
7,ZBZBZ,192,1,1023,Correct,7,815
7,VCVNV,16,2,747,Correct,7,878
7,NWNWN,8,[1][3],[869][1285],Correct,7,887
7,XNXVX,14,2,748,Correct,7,689
7,CXCNC,162,2,841,Correct,7,793
7,YVYVW,225,1,1179,Correct,7,884
7,VFVFV,113,1,916,Correct,7,911
7,VFWFV,223,1,553,Correct,7,819
7,CVCFC,222,2,846,Correct,7,718
7,YBYBY,193,1,1481,Correct,7,794
7,PYPYP,15,1,873,Correct,7,769
7,NKNWN,91,,,Incorrect,7,690
7,VNVNV,13,1,932,Correct,7,914
7,RVRVR,152,1,764,Correct,7,653
7,FVFBF,184,1,937,Correct,7,691
7,VZVKV,16,2,831,Correct,7,833
7,VPVCV,162,2,806,Correct,7,806
7,WYZCZ,231,2,848,Correct,7,769
7,PFPFP,113,1,746,Correct,7,693
7,PRPRP,152,1,1043,Correct,7,857
7,NWNWN,10,[1][3],[704][1104],Correct,7,757
7,VKVCV,14,2,892,Correct,7,798
7,WPYPY,221,1,754,Correct,7,815
7,VBVBV,195,1,1120,Correct,7,714
7,ZKZYZ,16,2,669,Correct,7,874
7,XYXYX,151,1,901,Correct,7,950
7,FZFXF,161,2,679,Correct,7,918
7,XKXKX,151,1,1143,Correct,7,727
7,XPXPX,152,1,833,Correct,7,917
7,FWFWF,11,[1][3],[897][1249],Correct,7,919
7,FNFBF,186,2,710,Correct,7,793
7,ZVZYZ,16,2,1160,Correct,7,654
7,FZFZF,151,1,934,Correct,7,771
7,NPNFW,235,2,1171,Correct,7,905
7,PCPCP,113,1,722,Correct,7,741
7,NKNWN,122,[2][3],[1341][1565],Correct,7,817
8,M,5,3,1507,New Target,8,887
8,VYVNV,161,2,1162,Correct,8,863
8,KLKNK,162,2,898,Correct,8,936
8,NRNRN,151,1,982,Correct,8,848
8,VNVFV,161,2,762,Correct,8,770
8,XNXNM,225,2,819,Incorrect,8,821
8,CXCVC,222,2,974,Correct,8,838
8,KRKZK,162,2,1183,Correct,8,780
8,NMNFN,71,[1],[1503],Incorrect,8,788
8,ZFZFZ,13,1,1051,Correct,8,931
8,YPYCY,161,2,828,Correct,8,739
8,KCKCK,151,1,952,Correct,8,773
8,VNVNV,152,1,924,Correct,8,761
8,LXLXL,153,1,920,Correct,8,666
8,CLCLC,154,1,854,Correct,8,904
8,NYNYN,155,1,922,Correct,8,871
8,LCMYL,233,2,1057,Correct,8,726
8,NCNCN,113,1,933,Correct,8,689
8,ZVZRZ,161,2,861,Correct,8,790
8,ZVZVZ,151,1,911,Correct,8,849
8,PZPVP,161,2,963,Correct,8,843
8,PWPNP,171,1,1339,Incorrect,8,686
8,KLKCM,235,2,1023,Correct,8,830
8,XMXMX,8,[1][3],[1334][1542],Correct,8,873
8,PRPXP,14,2,1167,Correct,8,935
8,CVCYC,162,2,1069,Correct,8,740
8,PXPMP,92,[2][3],[1046][1302],Correct,8,879
8,ZCZLZ,14,2,942,Correct,8,681
8,XWXWX,192,1,1276,Correct,8,876
8,ZCZLZ,16,2,755,Correct,8,818
8,MNCYC,231,2,1067,Correct,8,808
8,ZXZXZ,113,1,824,Correct,8,920
8,YRYNY,161,2,722,Correct,8,760
8,ZLZPZ,162,2,1009,Correct,8,684
8,VZVZV,151,1,796,Correct,8,891
8,MXPXP,221,1,873,Correct,8,706
8,VWVWV,193,1,1216,Correct,8,781
8,PYPYP,16,1,981,Incorrect,8,897
8,XPXVX,162,2,791,Correct,8,875
8,XLXLX,151,1,876,Correct,8,891
8,YMYMY,10,[1][3],[1014][1334],Correct,8,771
8,VYVYV,13,1,809,Correct,8,686
8,PWPZP,174,2,690,Correct,8,767
8,PYPKP,16,2,753,Correct,8,777
8,NPNXN,162,2,668,Correct,8,795
8,KVKVK,223,1,857,Correct,8,791
8,NVNFN,222,2,1012,Correct,8,662
8,XNXNX,151,1,863,Correct,8,662
8,YZYMY,112,[2][3],[989][1324],Correct,8,684
8,PFPFP,13,1,885,Correct,8,908
8,ZWZWZ,195,1,785,Correct,8,670
8,PCPZP,16,2,742,Correct,8,924
8,LRLPL,162,,,Incorrect,8,847
8,CZCZC,151,1,799,Correct,8,754
8,NZNZN,152,1,854,Correct,8,856
8,CVCXC,161,,,Incorrect,8,860
8,XCXCX,151,1,1156,Correct,8,867
8,YWYWY,196,1,783,Correct,8,836
8,NLNLN,15,1,1147,Correct,8,782
8,VNVNV,152,1,809,Correct,8,744
8,ZMZMZ,12,[1],[871],Incorrect,8,948
9,S,5,3,1249,New Target,9,752
9,NZNZN,151,1,997,Correct,9,827
9,KVKZK,161,2,886,Correct,9,785
9,LZLZL,151,1,671,Correct,9,696
9,XLXLX,152,1,736,Correct,9,708
9,ZXZXZ,153,1,895,Correct,9,708
9,KNKZK,161,2,759,Correct,9,753
9,NRNYN,162,2,894,Correct,9,883
9,CLCVC,163,2,926,Correct,9,932
9,ZCZFZ,164,2,1107,Correct,9,812
9,NSNSN,7,[1][3],[691][1011],Correct,9,716
9,VZVZV,13,1,1274,Correct,9,916
9,NVNCN,161,2,738,Correct,9,794
9,VMVMV,191,1,961,Correct,9,681
9,CVCXC,16,2,829,Correct,9,947
9,ZYZRZ,162,2,738,Correct,9,850
9,XNXZX,163,2,734,Correct,9,767
9,PXPXP,151,1,903,Correct,9,906
9,VCVSV,82,[2][3],[1036][1436],Correct,9,657
9,PRPCP,14,2,888,Correct,9,910
9,ZMZMZ,192,1,941,Incorrect,9,877
9,ZFZFZ,15,1,1122,Correct,9,737
9,FCFCF,152,1,996,Correct,9,652
9,YLYZY,161,2,840,Correct,9,763
9,KNKVK,162,2,819,Correct,9,745
9,SFPCP,231,2,652,Correct,9,750
9,RPRPR,113,2,810,Incorrect,9,831
9,XMXMX,193,1,832,Correct,9,816
9,KFKFK,15,1,938,Correct,9,797
9,VSVSV,9,[1][3],[721][1041],Correct,9,748
9,YVSVY,223,2,873,Incorrect,9,782
9,VPVPV,113,1,1150,Correct,9,837
9,XZXZX,152,1,600,Correct,9,897
9,KZKXK,161,2,806,Correct,9,879
9,RFRPR,162,1,1296,Incorrect,9,780
9,NVNVS,225,1,857,Correct,9,749
9,ZXZXZ,113,1,834,Correct,9,764
9,SRVRV,221,1,1050,Correct,9,834
9,YCYCY,113,1,748,Correct,9,755
9,KMKZK,174,2,649,Correct,9,733
9,FZSVF,233,2,820,Correct,9,875
9,VYVYV,113,1,665,Correct,9,898
9,LVLVL,152,1,789,Correct,9,860
9,YFYFY,153,1,699,Correct,9,932
9,NXNSN,102,[2][3],[1039][1375],Correct,9,902
9,FNFCF,14,1,654,Incorrect,9,827
9,KVKVK,151,1,1549,Correct,9,779
9,VZVCV,161,2,803,Correct,9,944
9,ZYZMZ,185,2,876,Correct,9,897
9,VXVZV,16,2,578,Correct,9,826
9,VPVPV,151,1,575,Correct,9,920
9,RVRNS,235,2,976,Correct,9,806
9,YZYZY,113,1,630,Correct,9,671
9,ZSZSZ,11,[1][3],[762][1081],Correct,9,827
9,FRFRF,13,1,768,Correct,9,782
9,ZMZMZ,196,1,1366,Correct,9,902
9,NZNXN,16,2,1022,Correct,9,719
9,LSLFL,121,[2][3],[1194][1562],Correct,9,862
10,Q,5,3,6859,New Target,10,711
10,ZVZPZ,161,2,936,Correct,10,890
10,RZRZR,151,1,833,Correct,10,666
10,ZFZFZ,152,1,662,Correct,10,894
10,RZRZR,153,1,738,Correct,10,874
10,PZPXP,161,2,717,Correct,10,790
10,VFQPV,233,2,905,Correct,10,879
10,ZPZRZ,222,1,604,Incorrect,10,911
10,CYCVC,162,2,1066,Correct,10,844
10,CPCPC,151,1,967,Correct,10,879
10,YZYQY,72,[2][3],[1192][1464],Correct,10,943
10,FVFXF,14,2,864,Correct,10,739
10,YNYNQ,225,1,941,Correct,10,668
10,ZYZYZ,113,1,785,Correct,10,800
10,FRFSF,181,2,905,Incorrect,10,831
10,XNXPX,16,2,768,Correct,10,772
10,NXNXN,151,,,Incorrect,10,797
10,PVPZP,161,2,732,Correct,10,685
10,XVXPX,162,2,824,Correct,10,796
10,FXFVF,163,2,1123,Correct,10,727
10,NSNKN,172,2,1053,Incorrect,10,915
10,VXVNV,16,2,527,Correct,10,799
10,XZXZX,151,1,985,Correct,10,668
10,VQVQV,8,[2],[1242],Incorrect,10,923
10,ZYZPZ,14,2,1357,Correct,10,813
10,PZPSP,183,2,816,Correct,10,872
10,YVYVY,15,1,1017,Correct,10,820
10,NCNQN,92,[2][3],[914][1170],Correct,10,784
10,FCFVF,14,2,882,Correct,10,747
10,ZFZFZ,151,2,938,Incorrect,10,713
10,NSNSN,194,1,750,Correct,10,816
10,YPYFY,16,2,907,Correct,10,733
10,ZKZKZ,151,1,873,Correct,10,933
10,QZRCR,231,2,798,Correct,10,820
10,YPYVY,222,2,650,Correct,10,735
10,ZNZNZ,151,1,844,Correct,10,678
10,VQVQV,10,[1][3],[979][1267],Correct,10,944
10,RVRZR,14,2,740,Correct,10,676
10,KRKSK,185,2,1018,Correct,10,919
10,NPNPN,15,1,715,Correct,10,734
10,YPYPY,152,1,744,Correct,10,749
10,VCVYV,161,2,755,Correct,10,794
10,FPFNF,162,2,944,Correct,10,774
10,QVXVX,221,2,854,Incorrect,10,717
10,ZVZRZ,222,2,880,Correct,10,770
10,LFLFL,151,1,832,Correct,10,941
10,VLVLV,152,1,692,Correct,10,933
10,KXQXK,223,1,754,Correct,10,849
10,YQYQY,11,[1][3],[1102][1406],Correct,10,875
10,YCYCY,13,1,622,Correct,10,932
10,PZPYP,161,2,905,Correct,10,947
10,LPLFL,162,2,1115,Correct,10,945
10,VSVSV,196,1,700,Correct,10,705
10,VFVYQ,235,2,716,Correct,10,748
10,CZCXC,222,2,710,Correct,10,813
10,PVPCP,162,2,872,Correct,10,657
10,CXCXC,151,1,667,Correct,10,918
10,NZNZN,152,1,807,Correct,10,813
10,YPYCY,161,2,721,Correct,10,744
10,ZQZQZ,12,[1][3],[726][1110],Correct,10,866
11,T,5,3,13398,New Target,11,737
11,KFKFK,151,1,1217,Correct,11,892
11,LZLZL,152,1,666,Correct,11,812
11,PFPVP,161,1,978,Incorrect,11,948
11,FRFPF,162,2,996,Correct,11,823
11,FZFZF,151,1,724,Correct,11,840
11,VTVTV,7,[1][3],[1056][1344],Correct,11,898
11,KYKCK,14,2,766,Correct,11,692
11,VPVPV,151,1,956,Correct,11,759
11,XQXQX,191,1,1132,Correct,11,925
11,PZPYP,16,2,684,Correct,11,729
11,KXKLK,162,2,781,Correct,11,715
11,TCNCN,221,2,760,Incorrect,11,785
11,PZPNP,222,2,863,Correct,11,908
11,RCRPR,162,2,711,Correct,11,721
11,PZPRT,235,2,1280,Correct,11,910
11,XFXVX,222,2,857,Correct,11,771
11,LTLVL,81,[2],[1249],Incorrect,11,937
11,ZCZPZ,14,2,897,Correct,11,723
11,NCNQN,182,2,731,Correct,11,721
11,XZXNX,16,2,709,Correct,11,859
11,ZPZPZ,151,2,613,Incorrect,11,708
11,CFCFC,152,1,901,Correct,11,862
11,VXTRV,233,2,972,Correct,11,753
11,CFCVC,222,2,889,Correct,11,885
11,PYPYP,151,1,928,Correct,11,748
11,FQFYF,173,2,1158,Correct,11,788
11,CNCFC,16,2,1144,Correct,11,696
11,PTPTP,9,[1][3],[1185][1505],Correct,11,692
11,ZCZCZ,13,1,1050,Correct,11,940
11,KZKZK,152,1,847,Correct,11,669
11,RLRVR,161,2,674,Correct,11,931
11,ZRZKZ,162,2,1023,Correct,11,842
11,KLKLT,225,1,925,Correct,11,847
11,ZQZQZ,194,1,832,Correct,11,837
11,VZVZV,15,1,940,Correct,11,658
11,RVRZR,161,2,981,Correct,11,716
11,ZPZCZ,162,2,1327,Correct,11,664
11,VYVYV,151,1,866,Correct,11,835
11,RVRVR,152,1,893,Correct,11,696
11,PTPTP,10,[1],[1452],Incorrect,11,830
11,PXPXP,13,1,945,Correct,11,944
11,KCKCK,152,1,982,Correct,11,797
11,YVYVY,153,1,978,Correct,11,903
11,CYCYC,154,1,1190,Correct,11,809
11,XCXCX,155,1,688,Correct,11,845
11,CYCQC,185,2,801,Correct,11,741
11,KCKNK,16,2,948,Correct,11,922
11,VPVPV,151,1,666,Correct,11,755
11,TXFZF,231,2,966,Correct,11,858
11,NYNVN,222,2,1287,Correct,11,816
11,VQVXV,176,2,798,Correct,11,793
11,ZRZRZ,15,1,725,Correct,11,817
11,VTVZV,111,[2][3],[1257][1577],Correct,11,777
11,PXPVP,14,2,786,Correct,11,894
11,FVFVF,151,1,705,Correct,11,671
11,VRVLV,161,2,954,Correct,11,909
11,YCYCY,151,1,1071,Correct,11,781
11,XZTZX,223,1,1228,Correct,11,825
11,VTVTV,12,[1][3],[810][1146],Correct,11,729
12,O,5,3,1221,New Target,12,716
12,VXVLV,161,2,1024,Correct,12,744
12,KVKCK,162,2,688,Correct,12,847
12,VLVLV,151,1,691,Correct,12,697
12,ZCZVZ,161,2,606,Correct,12,898
12,KFKFK,151,1,669,Correct,12,811
12,XKXKX,152,1,889,Correct,12,874
12,YXYXY,153,1,864,Correct,12,781
12,FVFVF,154,1,521,Correct,12,763
12,PVPOP,72,[2][3],[891][1195],Correct,12,663
12,ZXZYZ,14,2,762,Correct,12,684
12,PXPVP,162,2,635,Correct,12,697
12,ZTZTZ,191,1,652,Correct,12,724
12,CVCKC,16,2,1005,Correct,12,798
12,CKCKC,151,1,708,Correct,12,680
12,NPNPN,152,1,605,Correct,12,875
12,ZRZNZ,161,2,668,Correct,12,838
12,OZCZC,221,1,830,Correct,12,661
12,LFLFL,113,1,642,Correct,12,942
12,CXCXC,152,2,605,Incorrect,12,928
12,KPKPK,153,2,1112,Incorrect,12,926
12,FRFKF,161,2,807,Correct,12,728
12,FOFOF,8,[1][3],[822][1078],Correct,12,734
12,ZFZFZ,13,1,813,Correct,12,683
12,LKLZO,235,2,965,Correct,12,778
12,KLKZK,222,2,890,Correct,12,760
12,YXYCY,162,2,748,Correct,12,875
12,LOLOL,9,[1][3],[729][1273],Correct,12,758
12,XLXLX,13,1,822,Correct,12,902
12,XVXVX,152,1,893,Correct,12,863
12,FTFTF,192,1,804,Correct,12,722
12,OXNZN,231,2,1358,Correct,12,731
12,CZCZC,113,1,942,Correct,12,898
12,LZLZL,152,1,709,Correct,12,775
12,VLVPV,161,2,904,Correct,12,709
12,VYVYO,225,1,1076,Correct,12,937
12,XKXKX,113,1,997,Correct,12,720
12,RTRTR,193,1,1381,Correct,12,869
12,KVKCK,16,2,818,Correct,12,923
12,ROROR,101,[1][3],[1191][1575],Correct,12,737
12,PRPRP,13,2,914,Incorrect,12,754
12,LYLVL,161,2,949,Correct,12,879
12,PLPLP,151,1,718,Correct,12,690
12,CTCTC,194,1,743,Correct,12,913
12,XZXYX,16,2,732,Correct,12,941
12,NKNKN,151,1,1092,Correct,12,905
12,VLVZV,161,2,855,Correct,12,764
12,YOYOY,11,[1][3],[753][1057],Correct,12,679
12,PZOZP,223,1,880,Correct,12,676
12,FYFYF,113,1,1561,Correct,12,696
12,ZXZVZ,161,2,790,Correct,12,771
12,VKVZV,162,2,786,Correct,12,789
12,ZTZTZ,195,1,693,Correct,12,941
12,LKLZL,16,2,774,Correct,12,755
12,KCKVK,162,2,842,Correct,12,929
12,PXPKP,163,2,675,Correct,12,795
12,KCOZK,233,2,1025,Correct,12,806
12,FKFKF,113,1,625,Correct,12,802
12,CTCRC,176,2,759,Correct,12,685
12,NXNXN,15,1,886,Correct,12,701
12,KXKVK,161,2,897,Correct,12,687
12,CPCOC,122,[2][3],[1043][1347],Correct,12,738
13,H,5,3,36026,New Target,13,718
13,VFVNV,151,2,1275,Incorrect,13,650
13,YVYVY,152,1,879,Correct,13,926
13,XVXVX,153,1,939,Correct,13,668
13,NRNXN,161,2,789,Correct,13,687
13,PZPKP,162,2,730,Correct,13,887
13,HLVLV,221,1,840,Correct,13,732
13,CXCZC,222,2,976,Correct,13,789
13,LHLYL,71,,,Incorrect,13,775
13,YKYFY,14,2,892,Correct,13,688
13,YOYRY,171,2,837,Correct,13,687
13,ZKZYZ,16,2,647,Correct,13,949
13,RZRZR,151,1,721,Correct,13,949
13,NFNYN,161,2,939,Correct,13,843
13,KVKFK,162,2,809,Correct,13,926
13,XFXYX,163,2,770,Correct,13,799
13,LKLVL,164,2,750,Correct,13,774
13,NLNLN,151,1,695,Correct,13,822
13,XCXOX,182,2,1088,Correct,13,918
13,FXFXF,15,1,987,Correct,13,891
13,VHVHV,8,[1][3],[873][1289],Correct,13,767
13,PVPVP,13,1,730,Correct,13,916
13,CRCXC,161,2,820,Correct,13,905
13,NXNXN,151,1,912,Correct,13,702
13,XRXRX,152,1,806,Correct,13,797
13,YFYXY,161,2,684,Correct,13,937
13,ZOZOZ,193,1,765,Correct,13,741
13,RZRZR,15,1,694,Correct,13,799
13,FKFKF,152,1,695,Correct,13,726
13,PFPFP,153,1,763,Correct,13,673
13,XYXHX,92,[2][3],[854][1254],Correct,13,746
13,RZRKR,14,2,955,Correct,13,832
13,FLFLH,225,1,721,Correct,13,750
13,KRKRK,113,1,778,Correct,13,885
13,ZVZNZ,161,2,1489,Correct,13,815
13,ZOZOZ,194,1,972,Correct,13,788
13,FZFZF,15,1,712,Correct,13,701
13,FHFKF,101,[2][3],[906][1271],Correct,13,872
13,ZXHLZ,233,2,1218,Correct,13,891
13,FKFXF,222,2,1219,Correct,13,947
13,CFCYC,162,2,938,Correct,13,747
13,ZXZVZ,163,2,1047,Correct,13,888
13,KCKOK,185,2,723,Correct,13,699
13,ZXZVH,235,2,782,Correct,13,690
13,CKCKC,113,1,709,Correct,13,754
13,ZXZCZ,161,1,533,Incorrect,13,871
13,YVYVY,151,2,737,Incorrect,13,891
13,RVHVR,223,2,1052,Incorrect,13,652
13,ZRZRZ,113,1,920,Correct,13,753
13,ZHZHZ,11,[1][3],[1007][1374],Correct,13,838
13,VZVZV,13,1,765,Correct,13,822
13,HZVRV,231,2,717,Correct,13,863
13,FVFVF,113,1,917,Correct,13,708
13,RNRCR,161,2,948,Correct,13,850
13,COCOC,196,1,983,Correct,13,683
13,VNVXV,16,2,851,Correct,13,821
13,XHXHX,12,[1][3],[960][1261],Correct,13,928
14,G,5,3,1520,New Target,14,948
14,FZFZF,151,1,895,Correct,14,716
14,RPRVR,161,1,1260,Incorrect,14,862
14,XCXCX,151,1,657,Correct,14,728
14,YXYXY,152,1,597,Correct,14,852
14,KZKZK,153,1,579,Correct,14,733
14,RYRKR,161,2,946,Correct,14,734
14,FYFNF,162,2,1247,Correct,14,804
14,VKVKV,151,1,1286,Correct,14,759
14,KPGPK,223,2,753,Incorrect,14,939
14,YNYNY,113,1,772,Correct,14,867
14,VYVYV,152,1,933,Correct,14,940
14,YCYXY,161,2,709,Correct,14,762
14,LKLGL,72,[2],[1077],Incorrect,14,935
14,VXVXV,13,1,870,Correct,14,778
14,KCKVK,161,2,807,Correct,14,773
14,YKYKY,151,1,795,Correct,14,655
14,RHRXR,171,2,858,Correct,14,920
14,FVFCF,16,2,768,Correct,14,670
14,YXYGY,82,[2],[935],Incorrect,14,837
14,CLCLC,13,1,943,Correct,14,868
14,ZXZCZ,161,2,749,Correct,14,867
14,VLVFV,162,2,956,Correct,14,871
14,CPCPG,225,1,1017,Correct,14,876
14,KHKNK,172,2,1384,Correct,14,693
14,ZKZVZ,16,2,897,Correct,14,859
14,YKYLY,162,2,982,Correct,14,703
14,CNCNC,151,1,801,Correct,14,837
14,PGPGP,9,[1][3],[882][1569],Correct,14,933
14,VPVPV,13,2,799,Incorrect,14,789
14,FXGRF,233,2,691,Correct,14,801
14,CYCVC,222,2,923,Correct,14,798
14,FNFNF,151,1,733,Correct,14,687
14,KFKCK,161,2,806,Correct,14,732
14,ZFZHZ,183,2,574,Correct,14,700
14,NXNXN,15,2,748,Incorrect,14,757
14,FNFNF,152,1,713,Correct,14,912
14,LXLNG,235,2,992,Correct,14,850
14,XKXVX,222,2,797,Correct,14,747
14,ZHZHZ,194,1,825,Correct,14,663
14,PFPFP,15,1,809,Correct,14,747
14,ZYZYZ,152,1,1325,Correct,14,771
14,XPXVX,161,2,832,Correct,14,726
14,YCYCY,151,1,905,Correct,14,669
14,RGRGR,10,[1][3],[893][1244],Correct,14,885
14,VRVRV,13,1,816,Correct,14,772
14,PKPNP,161,2,1395,Correct,14,784
14,XGXGX,11,[1][3],[978][1331],Correct,14,882
14,GZYVY,231,,,Incorrect,14,748
14,VCVNV,222,1,698,Incorrect,14,941
14,VHVHV,195,1,816,Correct,14,733
14,LXLNL,16,1,1121,Incorrect,14,900
14,GKPKP,221,1,1018,Correct,14,733
14,XRXPX,222,1,1166,Incorrect,14,873
14,XNXNX,151,1,1353,Correct,14,744
14,KHKNK,176,2,1337,Incorrect,14,727
14,RZRZR,15,1,936,Correct,14,663
14,CGCFC,121,[2][3],[1283][1587],Correct,14,730
15,A,5,3,9270,New Target,15,865
15,XRXFX,161,2,1292,Correct,15,691
15,RXRKR,162,2,981,Correct,15,930
15,YRYRY,151,1,1215,Correct,15,874
15,XPXPX,152,1,1547,Correct,15,930
15,RPRPR,153,1,1249,Correct,15,859
15,NCNCN,154,1,643,Correct,15,764
15,RXRZR,161,2,748,Correct,15,727
15,NANAN,7,[1][3],[1083][1385],Correct,15,903
15,KCKYK,14,2,885,Correct,15,846
15,XKXFX,162,2,1032,Correct,15,697
15,ZLZKZ,163,2,803,Correct,15,821
15,VCVZV,164,2,660,Correct,15,894
15,XCXVX,165,2,564,Correct,15,676
15,LKLZA,235,2,979,Correct,15,715
15,NCNCN,113,1,925,Correct,15,821
15,YGYGY,191,1,832,Correct,15,685
15,VLVLV,15,1,733,Correct,15,868
15,XRXRX,152,1,888,Correct,15,697
15,KAKPK,81,[2][3],[1110][1446],Correct,15,734
15,YZAZY,233,1,1348,Incorrect,15,806
15,CFCFC,113,2,1442,Incorrect,15,710
15,VNVLV,161,2,1169,Correct,15,734
15,KPKVK,162,2,1050,Correct,15,784
15,NCNRN,163,2,1267,Correct,15,856
15,FGFGF,192,1,803,Correct,15,795
15,RCRYR,16,2,961,Correct,15,926
15,KRKCK,162,2,1087,Correct,15,771
15,CRCRC,151,1,1493,Correct,15,889
15,XPAPX,223,1,1487,Correct,15,773
15,LPLXL,222,2,1236,Correct,15,910
15,CGCVC,173,2,1032,Correct,15,729
15,FKFZF,16,2,737,Correct,15,746
15,CACAC,9,[1][3],[918][1207],Correct,15,812
15,XCXCX,13,1,851,Correct,15,735
15,AXRXR,221,2,1205,Incorrect,15,824
15,NKNRN,222,2,1140,Correct,15,812
15,KNKFK,162,2,1070,Correct,15,817
15,KAKAK,10,[1][3],[763][1084],Correct,15,817
15,ZCZRZ,14,2,777,Correct,15,733
15,RPRPR,151,1,946,Correct,15,654
15,NCNCN,152,1,789,Correct,15,720
15,RYRGR,184,2,866,Correct,15,888
15,VPVPV,15,1,725,Correct,15,792
15,RCRCA,225,1,877,Correct,15,701
15,KXKPK,222,2,808,Correct,15,932
15,NPNPN,151,1,695,Correct,15,872
15,YCYCY,152,1,603,Correct,15,891
15,PXPAP,112,[2][3],[1078][1398],Correct,15,936
15,ZCZNZ,14,2,1187,Correct,15,902
15,KYKGK,185,2,863,Correct,15,930
15,ANLPL,231,2,767,Correct,15,894
15,CXCPC,222,2,834,Correct,15,754
15,YRYRY,151,1,916,Correct,15,889
15,LGLGL,196,2,778,Incorrect,15,657
15,VYVLV,16,2,1464,Correct,15,944
15,KVKVK,151,1,942,Correct,15,889
15,RKRKR,152,1,892,Correct,15,748
15,VXVXV,153,1,698,Correct,15,903
15,XAXAX,12,[1][3],[928][1343],Correct,15,927
