Trial No,Stimulus,Trigger,Response,Response Time(ms),Correct,Block,Fixation Duration
Practice
OT Practice
1,SKSKS,15,1,1477,Correct,0,673
1,DLDUD,16,2,626,Correct,0,850
1,PDPGP,16,2,1032,Correct,0,897
1,MWMWM,15,1,790,Correct,0,826
1,FTFTF,15,1,653,Correct,0,795
1,AXAMA,16,2,651,Correct,0,748
1,RYRGR,16,2,582,Correct,0,837
1,DODOD,15,1,592,Correct,0,926
1,QTQAQ,16,2,596,Correct,0,676
1,YEYEY,15,1,497,Correct,0,856
2,GYGDG,16,2,1095,Correct,0,942
2,SWSWS,15,1,588,Correct,0,924
2,HLHUH,16,2,740,Correct,0,933
2,DEDED,15,1,718,Correct,0,754
2,ZPZOZ,16,2,524,Correct,0,696
2,ATATA,15,1,538,Correct,0,880
2,QOQOQ,15,2,632,False,0,834
2,FPFGF,16,2,911,Correct,0,942
2,TRTET,16,2,924,Correct,0,912
2,DQDQD,15,1,801,Correct,0,712
AT Practice
1,TKTKT,15,1,1092,Correct,0,653
1,SLSUS,16,2,623,Correct,0,777
1,VZVGV,7,3,746,Correct,0,812
1,XWXZX,7,3,664,Correct,0,698
1,ATATA,15,1,756,Correct,0,789
1,HXZMH,16,2,893,Correct,0,748
1,TZTZT,7,3,570,Correct,0,944
1,UOUOU,15,1,856,Correct,0,845
1,ZTWAW,16,2,901,Correct,0,931
1,RZRER,7,3,612,Correct,0,851
2,JYJDJ,16,2,871,Correct,0,839
2,DWDWD,15,1,633,Correct,0,786
2,GNGNG,7,3,578,Correct,0,848
2,NEZEZ,16,2,914,False,0,791
2,RNROR,7,2,1009,False,0,859
2,QTQNQ,7,3,911,Correct,0,839
2,HOHON,15,1,1043,Correct,0,716
2,KPKGK,16,2,880,Correct,0,824
2,DRDED,16,2,1255,Correct,0,663
2,LNLNL,7,3,607,Correct,0,682
4,GLGLG,15,1,825,Correct,0,697
4,DTDID,16,2,857,Correct,0,877
4,SMSGS,16,1,606,False,0,812
4,ZFZYZ,7,3,698,Correct,0,811
4,TSTFT,7,2,864,False,0,890
4,OFOFO,7,3,895,Correct,0,910
4,WYFGW,16,2,928,Correct,0,928
4,WYWYW,15,1,950,Correct,0,666
4,MFMCM,7,3,743,Correct,0,782
4,HQHEH,16,2,797,Correct,0,889
Trials
1,D,5,3,1328,New Target,1,871
1,ZNZYZ,161,2,1112,Correct,1,739
1,FZFZF,151,1,1066,Correct,1,691
1,RKRKR,152,1,941,Correct,1,720
1,RXRNR,161,2,742,Correct,1,700
1,CNCFC,162,2,897,Correct,1,846
1,PDPDP,7,3,551,Correct,1,776
1,CPCFC,14,2,828,Correct,1,762
1,VLVNV,162,2,597,Correct,1,785
1,KFKFK,151,1,826,Correct,1,748
1,ZNZNZ,152,1,1158,Correct,1,721
1,KCKPD,235,2,710,Correct,1,738
1,ZKZFZ,222,2,807,Correct,1,659
1,NRNZN,162,2,720,Correct,1,854
1,KXKRK,163,2,618,Correct,1,888
1,YPYZY,164,2,699,Correct,1,790
1,FKDKF,223,1,1077,Correct,1,810
1,RPRPR,113,1,911,Correct,1,898
1,VRVKV,161,2,744,Correct,1,656
1,RFRPR,162,2,1135,Correct,1,924
1,KVKVK,151,1,1020,Correct,1,785
1,YKYVY,161,2,702,Correct,1,744
1,VDVDV,8,3,459,Correct,1,798
1,DVZVZ,221,1,958,Correct,1,857
1,YFYFY,113,1,728,Correct,1,675
1,ZYZYZ,152,1,787,Correct,1,788
1,VLVXV,161,2,690,Correct,1,661
1,DPXZX,231,2,675,Correct,1,675
1,RYRYR,113,1,623,Correct,1,828
1,PDPNP,91,3,712,Correct,1,934
1,KXKXK,13,1,1155,Correct,1,845
1,ZYZYZ,152,1,592,Correct,1,752
1,VKVKV,153,1,612,Correct,1,773
1,YZYZY,154,1,538,Correct,1,696
1,NLNZN,161,2,573,Correct,1,813
1,ZNDYZ,233,1,836,Incorrect,1,683
1,PCPXP,222,2,688,Correct,1,650
1,ZVZFZ,162,2,674,Correct,1,750
1,RCRZR,163,2,716,Correct,1,917
1,LRLRL,151,1,771,Correct,1,908
1,ZDZDZ,10,3,772,Correct,1,650
1,RNRZR,14,2,847,Correct,1,765
1,CXCYC,162,2,785,Correct,1,927
1,RCRLR,163,2,699,Correct,1,778
1,FRFRF,151,1,684,Correct,1,710
1,XFXFX,152,1,805,Correct,1,908
1,RPRLR,161,2,716,Correct,1,896
1,YXYRY,162,2,781,Correct,1,732
1,FYFYF,151,1,705,Correct,1,937
1,YZYVY,161,2,641,Correct,1,744
1,YKYKY,151,1,686,Correct,1,839
1,XRXRX,152,2,606,Incorrect,1,766
1,XVXZX,161,2,594,Correct,1,713
1,PDPDP,11,3,719,Correct,1,948
1,ZFZFZ,13,1,684,Correct,1,795
1,PXPXP,152,1,842,Correct,1,819
1,LYLYL,153,1,735,Correct,1,840
1,NKNKD,225,2,927,Incorrect,1,676
1,ZNZNZ,113,1,1011,Correct,1,865
1,PYPZP,161,2,1000,Correct,1,672
1,XPXPX,151,1,853,Correct,1,890
1,VLVLV,152,1,863,Correct,1,728
1,PKPXP,161,2,885,Correct,1,805
1,FZFZF,151,1,655,Correct,1,683
1,LDLDL,12,3,669,Correct,1,850
2,U,5,3,1993,New Target,2,873
2,ZVZFZ,161,2,1086,Correct,2,684
2,FZFZF,151,1,713,Correct,2,878
2,RFRFR,152,1,697,Correct,2,702
2,NZNKN,161,2,1044,Correct,2,839
2,FZFNF,162,2,762,Correct,2,650
2,RXRXR,151,1,677,Correct,2,854
2,KRKYK,161,2,653,Correct,2,915
2,NZNPN,162,2,849,Correct,2,678
2,XPXPX,151,1,778,Correct,2,738
2,CUCUC,7,3,707,Correct,2,880
2,RFRFR,13,1,712,Correct,2,660
2,VYVXV,161,2,648,Correct,2,679
2,VDVDV,191,1,1395,Correct,2,926
2,ZKZRZ,15,2,715,Correct,2,664
2,XCXCX,151,1,581,Correct,2,882
2,CNCUC,82,3,665,Correct,2,784
2,RCRCR,13,1,963,Correct,2,947
2,ZPZXZ,161,2,820,Correct,2,888
2,FKFYF,162,2,813,Correct,2,830
2,ZFZYZ,163,2,673,Correct,2,928
2,PXPXP,151,1,897,Correct,2,793
2,URCKC,231,2,741,Correct,2,846
2,PCPCP,113,1,702,Correct,2,900
2,XNXNX,152,1,517,Correct,2,936
2,RCRZR,161,2,668,Correct,2,736
2,XVXVX,151,1,710,Correct,2,895
2,NRNRN,152,1,675,Correct,2,826
2,FPFPF,225,1,526,Correct,2,939
2,XVXFX,222,2,691,Correct,2,746
2,PRPRP,151,1,669,Correct,2,942
2,FYFCF,161,2,641,Correct,2,661
2,XUXFX,91,3,453,Correct,2,650
2,CYCVC,14,2,812,Correct,2,774
2,VDVKV,172,2,851,Correct,2,877
2,YCYCY,15,1,617,Correct,2,758
2,NKNLN,161,2,666,Correct,2,759
2,XPUKX,233,2,1555,Correct,2,946
2,ZPZPZ,113,1,751,Correct,2,861
2,KRKRK,152,2,733,Incorrect,2,684
2,XKXKX,153,1,1315,Correct,2,940
2,YUYVY,101,3,634,Correct,2,767
2,XKXFU,235,2,1129,Correct,2,815
2,NFNFN,113,1,681,Correct,2,732
2,KDKDK,193,1,1114,Correct,2,762
2,XYXKX,16,2,786,Correct,2,947
2,YZUZY,223,3,1256,Incorrect,2,928
2,KFKVK,222,,,Incorrect,2,750
2,LYLYL,151,1,668,Correct,2,813
2,CXCDC,184,2,794,Incorrect,2,750
2,XZXNX,16,2,898,Correct,2,869
2,PXPXP,151,1,964,Correct,2,925
2,ZRZYZ,161,2,854,Correct,2,818
2,PUPYP,111,3,956,Correct,2,815
2,RNRNR,14,1,1088,Correct,2,838
2,KDKDK,195,1,700,Correct,2,846
2,KNKNK,15,1,538,Correct,2,765
2,PRPKP,161,1,729,Incorrect,2,939
2,UNYNY,221,1,977,Correct,2,887
2,NYNYN,113,1,977,Correct,2,835
2,YXYXY,152,2,611,Correct,2,756
2,RDRDR,196,1,919,Correct,2,687
2,FCFCF,15,1,746,Correct,2,850
2,ZKZKZ,152,1,707,Correct,2,902
2,ZUZUZ,12,3,885,Correct,2,658
3,E,5,3,1353,New Target,3,707
3,YZYZY,151,1,810,Correct,3,675
3,VFVNV,161,2,695,Correct,3,734
3,KYKYK,151,1,786,Correct,3,863
3,NKNKN,152,1,762,Correct,3,888
3,XVXNX,161,2,610,Correct,3,934
3,RERFR,71,3,608,Correct,3,927
3,XNXNX,13,1,726,Correct,3,689
3,NXNXN,152,1,933,Correct,3,742
3,ZLZNZ,161,2,633,Correct,3,799
3,CUCNC,171,2,809,Correct,3,828
3,FYFRF,16,2,1187,Correct,3,734
3,ZLZLZ,151,1,784,Correct,3,756
3,YZYZY,152,1,708,Correct,3,946
3,CYCYC,153,1,971,Correct,3,898
3,VUVUV,192,1,1358,Correct,3,863
3,PXPRP,16,2,582,Correct,3,656
3,YPYPY,151,1,609,Correct,3,932
3,CECEC,8,1,566,Incorrect,3,708
3,VNENV,223,2,1330,Incorrect,3,948
3,KRKFK,222,2,810,Correct,3,732
3,XLXLE,225,1,1378,Correct,3,764
3,RFRUR,183,2,816,Correct,3,930
3,XRXLX,16,2,1332,Correct,3,913
3,NZNPN,162,2,971,Correct,3,699
3,XZXZX,151,1,741,Correct,3,691
3,FZFZF,152,1,804,Correct,3,694
3,PFPFP,153,1,674,Correct,3,695
3,YZYXY,161,2,643,Correct,3,778
3,KEKEK,9,3,767,Correct,3,868
3,CXCPC,14,2,680,Correct,3,829
3,VXVXV,151,1,771,Correct,3,883
3,NUNZN,174,2,779,Correct,3,877
3,RKRVR,16,2,645,Correct,3,792
3,XRXRX,151,1,687,Correct,3,908
3,ERNFN,231,2,1228,Incorrect,3,782
3,YRYNY,222,2,824,Correct,3,721
3,PZPEP,102,2,614,Incorrect,3,650
3,ZYZXZ,14,2,786,Correct,3,891
3,RZRVR,162,2,649,Correct,3,844
3,XRXRX,151,1,760,Correct,3,761
3,KUKFK,175,2,737,Correct,3,843
3,RKRKR,15,1,646,Correct,3,948
3,ZFZFZ,152,1,886,Correct,3,861
3,YZYVY,161,2,639,Correct,3,719
3,XPXNX,162,2,731,Correct,3,866
3,YRYRY,151,1,673,Correct,3,906
3,EPVPV,221,1,1227,Correct,3,874
3,CRCEC,112,3,718,Correct,3,724
3,RFRCR,14,2,824,Correct,3,668
3,CPCVC,162,2,675,Correct,3,753
3,RXRCR,163,2,623,Correct,3,886
3,VNVLV,164,2,700,Correct,3,837
3,ZXZXZ,151,1,667,Correct,3,792
3,ZCZCZ,152,1,505,Correct,3,796
3,PYPUP,186,2,728,Correct,3,939
3,YKYPY,16,2,723,Correct,3,879
3,YREXY,233,2,1040,Correct,3,831
3,ZKZKZ,113,1,643,Correct,3,895
3,XLXNX,161,2,586,Correct,3,728
3,KFKRE,235,2,728,Correct,3,867
3,RXRLR,222,2,999,Correct,3,758
3,RERXR,121,3,809,Correct,3,736
4,J,5,3,1331,New Target,4,769
4,CYCVC,161,2,891,Correct,4,763
4,RXRCR,162,2,786,Correct,4,702
4,FPFVF,163,2,624,Correct,4,767
4,LZLZL,151,1,911,Correct,4,843
4,PLPLP,152,1,883,Correct,4,873
4,NPNPN,153,1,760,Correct,4,730
4,XZXZX,161,1,761,Incorrect,4,677
4,CNCKC,162,2,633,Correct,4,676
4,PCPYJ,235,,,Incorrect,4,918
4,VYVYV,113,1,687,Correct,4,864
4,RLRLR,152,1,610,Correct,4,716
4,CJCJC,7,3,708,Correct,4,670
4,ZLZLZ,13,1,900,Correct,4,701
4,FZFZF,152,1,670,Correct,4,700
4,CFCFC,153,1,672,Correct,4,711
4,PZPZP,154,1,541,Correct,4,796
4,XEXEX,191,1,705,Correct,4,845
4,NVNFN,16,2,697,Correct,4,854
4,KYKYK,151,1,992,Correct,4,921
4,ZNZVZ,161,2,588,Correct,4,913
4,YVJXY,233,3,572,Incorrect,4,875
4,XFXFX,113,,,Incorrect,4,733
4,XNXNX,152,1,664,Correct,4,908
4,FJFKF,81,3,788,Correct,4,905
4,CZCYC,14,2,819,Correct,4,651
4,ZXZCZ,162,2,1132,Correct,4,801
4,RYRYJ,225,1,821,Correct,4,925
4,FPFZF,222,2,1023,Correct,4,766
4,XRXRX,151,1,847,Correct,4,801
4,YPYEY,182,2,923,Correct,4,709
4,XRXRX,15,1,950,Correct,4,669
4,XZXPX,161,2,1059,Correct,4,945
4,CJCJC,9,3,575,Correct,4,897
4,ZXZVZ,14,2,836,Correct,4,741
4,VKVKV,151,1,872,Correct,4,864
4,VEVNV,173,2,688,Correct,4,802
4,ZKZVZ,16,2,746,Correct,4,889
4,XVXJX,102,3,644,Correct,4,858
4,RXRVR,14,2,759,Correct,4,740
4,LRLRL,151,1,534,Correct,4,656
4,YNJNY,223,1,797,Correct,4,666
4,NPNJN,222,3,1058,Incorrect,4,929
4,ZEZEZ,194,2,660,Incorrect,4,774
4,ZNZNZ,15,1,579,Correct,4,835
4,YZYZY,152,1,609,Correct,4,947
4,XYXYX,153,1,909,Correct,4,803
4,ZXZXZ,221,1,1059,Correct,4,763
4,LYLZL,222,2,849,Correct,4,830
4,CYCNC,162,2,839,Correct,4,809
4,XEXEX,195,1,624,Correct,4,822
4,CVCXC,16,2,721,Correct,4,826
4,ZPZXZ,162,2,657,Correct,4,739
4,FZFZF,151,2,507,Incorrect,4,939
4,RXRJR,112,2,660,Incorrect,4,686
4,PRPFP,14,2,803,Correct,4,794
4,PKPEP,186,2,726,Correct,4,922
4,XZXPX,16,2,839,Correct,4,704
4,JCZVZ,231,2,1204,Correct,4,722
4,RXRLR,222,2,779,Correct,4,894
4,VZVZV,151,1,672,Correct,4,938
4,XJXJX,12,1,640,Incorrect,4,743
5,I,5,3,1319,New Target,5,785
5,PCPCP,151,1,776,Correct,5,846
5,XYXYX,152,1,836,Correct,5,741
5,VXVXV,153,1,613,Correct,5,949
5,XVXVX,154,1,707,Correct,5,877
5,ZRZXZ,161,2,732,Correct,5,917
5,FPFZF,162,2,853,Correct,5,891
5,ZYZYZ,151,1,642,Correct,5,663
5,RVRZR,161,2,691,Correct,5,765
5,CICIC,7,3,625,Correct,5,741
5,XLXLX,13,1,560,Correct,5,895
5,YVYVY,152,1,766,Correct,5,948
5,CJCJC,191,3,668,Incorrect,5,708
5,FNFCF,16,2,1544,Correct,5,817
5,PVPRP,162,2,714,Correct,5,655
5,FZFZF,151,1,681,Correct,5,746
5,NVIVN,223,1,1236,Correct,5,909
5,CVCIC,82,3,938,Correct,5,899
5,ZXZXZ,13,1,683,Correct,5,926
5,FCFZF,161,2,535,Correct,5,852
5,IXRXR,221,1,998,Correct,5,918
5,ZPZNZ,222,2,932,Correct,5,851
5,VZVZV,151,1,632,Correct,5,748
5,YRYNY,161,2,723,Correct,5,876
5,VNVPV,162,2,1377,Correct,5,778
5,RVRJR,182,2,822,Correct,5,806
5,VRVRV,15,1,768,Correct,5,797
5,VIVIV,9,3,667,Correct,5,844
5,CXCVC,14,2,629,Correct,5,875
5,PZPZP,151,1,577,Correct,5,940
5,IXVKV,231,2,857,Correct,5,656
5,YJYCY,173,2,785,Incorrect,5,815
5,VYVYV,15,1,952,Correct,5,888
5,YVYVY,152,1,1058,Correct,5,663
5,NVNVN,153,1,933,Correct,5,742
5,XYXVX,161,2,942,Correct,5,707
5,NJNCN,174,2,1038,Correct,5,950
5,NXNYN,16,2,1150,Correct,5,829
5,VXVCV,162,2,582,Correct,5,917
5,ZKZKZ,151,1,744,Correct,5,780
5,XRXYX,161,2,793,Correct,5,694
5,ZCZXZ,162,2,824,Correct,5,703
5,KVKYI,235,2,656,Correct,5,851
5,CNCNC,113,1,724,Correct,5,713
5,RIRIR,10,3,654,Correct,5,916
5,VYVXV,14,2,589,Correct,5,832
5,FXIRF,233,2,1038,Correct,5,793
5,PFPFP,113,1,652,Correct,5,870
5,VPVPV,152,1,702,Correct,5,659
5,ZJZJZ,195,1,859,Correct,5,764
5,ZVZNZ,16,2,927,Correct,5,905
5,YVYXY,162,2,741,Correct,5,753
5,PRPRP,151,1,680,Correct,5,676
5,YPYPY,152,1,610,Correct,5,854
5,ZIZPZ,111,3,661,Correct,5,719
5,NKNXN,14,2,768,Correct,5,908
5,RZRXR,162,2,717,Correct,5,763
5,RXRXR,151,1,757,Correct,5,925
5,ZJZJZ,196,1,563,Correct,5,842
5,CVCVI,225,1,933,Incorrect,5,745
5,NKNKN,113,1,818,Correct,5,902
5,NRNZN,161,2,792,Correct,5,905
5,CNCNC,151,1,572,Correct,5,919
5,RFRIR,122,3,609,Correct,5,766
6,B,5,3,1208,New Target,6,668
6,YKYZY,161,1,1100,Incorrect,6,938
6,VCVRV,162,2,975,Correct,6,683
6,XVXVX,151,1,806,Correct,6,727
6,KZKRK,161,2,653,Correct,6,830
6,ZVZXZ,162,2,782,Correct,6,756
6,RCRNR,163,2,693,Correct,6,820
6,CXCRC,164,2,562,Correct,6,870
6,VNBCV,233,2,1031,Correct,6,694
6,CXCVC,222,2,806,Correct,6,795
6,RFRFR,151,1,655,Correct,6,796
6,XPXRX,161,2,744,Correct,6,926
6,RYRBR,72,1,656,Incorrect,6,925
6,ZKZKZ,13,1,691,Correct,6,759
6,FIFRF,171,2,672,Correct,6,818
6,VZVLV,16,2,720,Correct,6,744
6,RPRVR,162,2,673,Correct,6,683
6,YBYBY,8,3,622,Correct,6,863
6,PYPVP,14,2,730,Correct,6,914
6,NININ,192,1,1360,Correct,6,922
6,RNRNR,15,1,614,Correct,6,737
6,NXNVN,161,2,685,Correct,6,679
6,RNRNR,151,1,610,Correct,6,942
6,FRFVF,161,2,595,Correct,6,767
6,YVYFB,235,2,648,Incorrect,6,722
6,ZRZXZ,222,2,925,Correct,6,723
6,VNVIV,193,2,940,Incorrect,6,948
6,PXPNP,16,2,909,Correct,6,878
6,ZXZPZ,162,2,527,Correct,6,889
6,VBVBV,9,3,577,Correct,6,835
6,CXCXC,13,1,614,Correct,6,740
6,PCPFP,161,2,585,Correct,6,722
6,KNKNK,151,1,537,Correct,6,874
6,XIXIX,194,1,663,Correct,6,900
6,CYCYC,15,1,579,Correct,6,883
6,FVFYF,161,2,775,Correct,6,818
6,YNYRY,162,2,686,Correct,6,846
6,BVPXP,231,2,579,Correct,6,766
6,NXNXN,113,1,881,Correct,6,700
6,FRFRF,152,1,937,Correct,6,749
6,YVYVY,153,1,697,Correct,6,874
6,ZKZCZ,161,2,579,Correct,6,913
6,VIVXV,175,2,695,Correct,6,758
6,PRBRP,223,1,856,Correct,6,687
6,YZYBY,102,,,Incorrect,6,756
6,CXCVC,14,1,906,Incorrect,6,769
6,FYFYF,151,1,537,Correct,6,657
6,VKVXV,161,2,888,Correct,6,922
6,ZBZBZ,11,1,533,Incorrect,6,671
6,FPFNF,14,2,667,Correct,6,749
6,CXCXC,151,3,783,Incorrect,6,936
6,YCYCY,152,1,657,Correct,6,842
6,FPFPF,153,1,590,Correct,6,683
6,CVCVB,225,1,929,Correct,6,888
6,ZCZCZ,113,1,527,Correct,6,711
6,CZCNC,161,2,760,Correct,6,850
6,KIKFK,176,2,1122,Correct,6,750
6,PXPXP,15,1,622,Correct,6,935
6,RYRYR,152,1,923,Correct,6,724
6,ZRZCZ,161,2,697,Correct,6,861
6,RVRVR,151,1,557,Correct,6,815
6,XYXNX,161,2,570,Correct,6,854
6,BVKVK,221,2,796,Incorrect,6,937
6,CBCBC,12,3,688,Correct,6,670
7,W,5,3,1625,New Target,7,726
7,RKRKR,151,1,971,Correct,7,652
7,CVCRC,161,2,768,Correct,7,911
7,PKPKP,151,1,661,Correct,7,870
7,FPFPF,152,2,490,Incorrect,7,934
7,VRVPV,161,2,791,Correct,7,839
7,ZKZYZ,162,2,715,Correct,7,784
7,PVPCP,233,2,706,Correct,7,832
7,KVKVK,113,1,635,Correct,7,665
7,YXYVY,161,2,943,Correct,7,915
7,FNFNF,151,1,613,Correct,7,912
7,YWYWY,7,3,743,Correct,7,920
7,ZYZYZ,13,1,618,Correct,7,805
7,PYPYP,152,1,671,Correct,7,795
7,XRXRX,153,1,738,Correct,7,897
7,PXPXP,154,1,660,Correct,7,825
7,FCFBF,181,2,692,Correct,7,927
7,FVFVF,15,1,1337,Correct,7,911
7,CYCZC,161,2,694,Correct,7,846
7,XZXVX,162,2,784,Correct,7,691
7,PFPFP,151,1,691,Correct,7,791
7,RVRLR,161,2,552,Correct,7,809
7,ZBZBZ,192,1,609,Correct,7,868
7,VCVNV,16,2,686,Correct,7,690
7,NWNWN,8,3,819,Correct,7,946
7,XNXVX,14,2,1112,Correct,7,673
7,CXCNC,162,2,973,Correct,7,859
7,YVYVW,225,1,1240,Correct,7,851
7,VFVFV,113,1,1406,Correct,7,675
7,VFWFV,223,1,884,Correct,7,903
7,CVCFC,222,2,732,Correct,7,701
7,YBYBY,193,1,573,Correct,7,800
7,PYPYP,15,1,706,Correct,7,938
7,NKNWN,91,3,488,Correct,7,911
7,VNVNV,13,1,705,Correct,7,888
7,RVRVR,152,2,524,Incorrect,7,767
7,FVFBF,184,2,694,Incorrect,7,876
7,VZVKV,16,2,1198,Correct,7,842
7,VPVCV,162,2,996,Correct,7,687
7,WYZCZ,231,2,1201,Correct,7,764
7,PFPFP,113,1,602,Correct,7,711
7,PRPRP,152,1,603,Correct,7,668
7,NWNWN,10,3,1002,Correct,7,666
7,VKVCV,14,2,798,Correct,7,937
7,WPYPY,221,1,673,Correct,7,819
7,VBVBV,195,1,653,Correct,7,802
7,ZKZYZ,16,2,531,Correct,7,811
7,XYXYX,151,1,865,Correct,7,839
7,FZFXF,161,2,791,Correct,7,712
7,XKXKX,151,1,757,Correct,7,898
7,XPXPX,152,1,653,Correct,7,702
7,FWFWF,11,3,693,Correct,7,721
7,FNFBF,186,2,785,Correct,7,780
7,ZVZYZ,16,2,742,Correct,7,709
7,FZFZF,151,3,733,Incorrect,7,829
7,NPNFW,235,,,Incorrect,7,939
7,PCPCP,113,1,590,Correct,7,801
7,NKNWN,122,3,958,Correct,7,650
8,M,5,3,1230,New Target,8,685
8,VYVNV,161,2,1050,Correct,8,821
8,KLKNK,162,2,979,Correct,8,819
8,NRNRN,151,1,683,Correct,8,786
8,VNVFV,161,2,712,Correct,8,764
8,XNXNM,225,2,1212,Incorrect,8,867
8,CXCVC,222,2,780,Correct,8,858
8,KRKZK,162,2,752,Correct,8,821
8,NMNFN,71,3,936,Correct,8,719
8,ZFZFZ,13,1,742,Correct,8,837
8,YPYCY,161,2,783,Correct,8,695
8,KCKCK,151,1,690,Correct,8,808
8,VNVNV,152,1,926,Correct,8,670
8,LXLXL,153,1,920,Correct,8,931
8,CLCLC,154,1,651,Correct,8,757
8,NYNYN,155,1,768,Correct,8,763
8,LCMYL,233,2,594,Correct,8,935
8,NCNCN,113,1,551,Correct,8,944
8,ZVZRZ,161,2,676,Correct,8,764
8,ZVZVZ,151,1,725,Correct,8,916
8,PZPVP,161,2,700,Correct,8,795
8,PWPNP,171,2,1300,Correct,8,721
8,KLKCM,235,2,821,Correct,8,879
8,XMXMX,8,3,630,Correct,8,847
8,PRPXP,14,2,1312,Correct,8,812
8,CVCYC,162,2,1023,Correct,8,752
8,PXPMP,92,,,Incorrect,8,835
8,ZCZLZ,14,2,686,Correct,8,755
8,XWXWX,192,1,1453,Correct,8,670
8,ZCZLZ,16,2,552,Correct,8,788
8,MNCYC,231,2,1063,Correct,8,735
8,ZXZXZ,113,1,750,Correct,8,731
8,YRYNY,161,2,662,Correct,8,813
8,ZLZPZ,162,2,657,Correct,8,726
8,VZVZV,151,1,654,Correct,8,667
8,MXPXP,221,1,1206,Correct,8,806
8,VWVWV,193,1,1255,Correct,8,844
8,PYPYP,16,1,942,Incorrect,8,771
8,XPXVX,162,2,634,Correct,8,804
8,XLXLX,151,1,702,Correct,8,882
8,YMYMY,10,3,835,Correct,8,850
8,VYVYV,13,1,851,Correct,8,813
8,PWPZP,174,2,858,Correct,8,752
8,PYPKP,16,2,696,Correct,8,866
8,NPNXN,162,2,657,Correct,8,769
8,KVKVK,223,1,632,Correct,8,832
8,NVNFN,222,2,754,Correct,8,804
8,XNXNX,151,1,689,Correct,8,913
8,YZYMY,112,3,638,Correct,8,714
8,PFPFP,13,1,617,Correct,8,660
8,ZWZWZ,195,1,891,Correct,8,658
8,PCPZP,16,2,1176,Correct,8,884
8,LRLPL,162,2,730,Correct,8,825
8,CZCZC,151,1,621,Correct,8,831
8,NZNZN,152,1,1044,Correct,8,922
8,CVCXC,161,2,624,Correct,8,750
8,XCXCX,151,1,685,Correct,8,682
8,YWYWY,196,1,768,Correct,8,915
8,NLNLN,15,2,804,Incorrect,8,842
8,VNVNV,152,1,660,Correct,8,893
8,ZMZMZ,12,3,793,Correct,8,722
9,S,5,3,1295,New Target,9,698
9,NZNZN,151,1,855,Correct,9,737
9,KVKZK,161,2,685,Correct,9,669
9,LZLZL,151,1,644,Correct,9,810
9,XLXLX,152,2,494,Incorrect,9,802
9,ZXZXZ,153,1,730,Correct,9,770
9,KNKZK,161,2,926,Correct,9,930
9,NRNYN,162,2,701,Correct,9,664
9,CLCVC,163,2,708,Correct,9,866
9,ZCZFZ,164,2,583,Correct,9,797
9,NSNSN,7,1,688,Incorrect,9,908
9,VZVZV,13,1,779,Correct,9,661
9,NVNCN,161,2,608,Correct,9,765
9,VMVMV,191,1,702,Correct,9,664
9,CVCXC,16,2,681,Correct,9,710
9,ZYZRZ,162,1,557,Incorrect,9,847
9,XNXZX,163,2,758,Correct,9,950
9,PXPXP,151,1,825,Correct,9,723
9,VCVSV,82,3,678,Correct,9,908
9,PRPCP,14,2,689,Correct,9,718
9,ZMZMZ,192,1,663,Incorrect,9,948
9,ZFZFZ,15,1,592,Correct,9,748
9,FCFCF,152,1,654,Correct,9,722
9,YLYZY,161,2,659,Correct,9,809
9,KNKVK,162,2,663,Correct,9,948
9,SFPCP,231,2,634,Correct,9,878
9,RPRPR,113,1,820,Correct,9,741
9,XMXMX,193,1,1271,Correct,9,797
9,KFKFK,15,1,842,Correct,9,695
9,VSVSV,9,3,765,Correct,9,831
9,YVSVY,223,1,1218,Correct,9,709
9,VPVPV,113,1,794,Correct,9,673
9,XZXZX,152,1,636,Correct,9,860
9,KZKXK,161,2,744,Correct,9,686
9,RFRPR,162,2,942,Correct,9,840
9,NVNVS,225,1,1146,Correct,9,897
9,ZXZXZ,113,1,834,Correct,9,735
9,SRVRV,221,2,834,Incorrect,9,869
9,YCYCY,113,1,570,Correct,9,692
9,KMKZK,174,2,772,Correct,9,764
9,FZSVF,233,1,1045,Incorrect,9,861
9,VYVYV,113,1,890,Correct,9,903
9,LVLVL,152,1,847,Correct,9,651
9,YFYFY,153,1,638,Correct,9,903
9,NXNSN,102,3,936,Correct,9,728
9,FNFCF,14,2,707,Correct,9,871
9,KVKVK,151,1,606,Correct,9,682
9,VZVCV,161,2,581,Correct,9,896
9,ZYZMZ,185,2,683,Correct,9,911
9,VXVZV,16,2,837,Correct,9,772
9,VPVPV,151,1,666,Correct,9,750
9,RVRNS,235,2,563,Correct,9,703
9,YZYZY,113,1,555,Correct,9,909
9,ZSZSZ,11,3,713,Correct,9,796
9,FRFRF,13,1,759,Correct,9,942
9,ZMZMZ,196,1,609,Correct,9,758
9,NZNXN,16,2,627,Correct,9,950
9,LSLFL,121,3,671,Correct,9,740
10,Q,5,3,1562,New Target,10,942
10,ZVZPZ,161,,,Incorrect,10,807
10,RZRZR,151,1,633,Correct,10,669
10,ZFZFZ,152,1,584,Correct,10,714
10,RZRZR,153,1,534,Correct,10,674
10,PZPXP,161,2,692,Correct,10,767
10,VFQPV,233,2,1272,Correct,10,848
10,ZPZRZ,222,2,775,Correct,10,893
10,CYCVC,162,2,1066,Correct,10,735
10,CPCPC,151,1,583,Correct,10,704
10,YZYQY,72,3,782,Correct,10,903
10,FVFXF,14,2,673,Correct,10,795
10,YNYNQ,225,1,1002,Correct,10,698
10,ZYZYZ,113,2,810,Incorrect,10,843
10,FRFSF,181,2,681,Incorrect,10,728
10,XNXPX,16,2,624,Correct,10,902
10,NXNXN,151,1,733,Correct,10,701
10,PVPZP,161,2,765,Correct,10,866
10,XVXPX,162,2,685,Correct,10,907
10,FXFVF,163,2,657,Correct,10,907
10,NSNKN,172,2,611,Incorrect,10,906
10,VXVNV,16,2,673,Correct,10,661
10,XZXZX,151,1,693,Correct,10,932
10,VQVQV,8,1,621,Incorrect,10,756
10,ZYZPZ,14,2,648,Correct,10,828
10,PZPSP,183,2,625,Correct,10,794
10,YVYVY,15,1,508,Correct,10,790
10,NCNQN,92,2,480,Incorrect,10,939
10,FCFVF,14,2,609,Correct,10,797
10,ZFZFZ,151,1,652,Correct,10,795
10,NSNSN,194,1,928,Correct,10,892
10,YPYFY,16,2,673,Correct,10,680
10,ZKZKZ,151,1,631,Correct,10,884
10,QZRCR,231,2,821,Correct,10,738
10,YPYVY,222,2,631,Correct,10,856
10,ZNZNZ,151,1,657,Correct,10,759
10,VQVQV,10,3,746,Correct,10,827
10,RVRZR,14,2,594,Correct,10,700
10,KRKSK,185,2,674,Correct,10,707
10,NPNPN,15,1,567,Correct,10,832
10,YPYPY,152,1,512,Correct,10,849
10,VCVYV,161,2,487,Correct,10,911
10,FPFNF,162,2,724,Correct,10,902
10,QVXVX,221,2,1041,Incorrect,10,712
10,ZVZRZ,222,2,678,Correct,10,843
10,LFLFL,151,1,576,Correct,10,676
10,VLVLV,152,1,666,Correct,10,935
10,KXQXK,223,1,1434,Correct,10,863
10,YQYQY,11,3,804,Correct,10,923
10,YCYCY,13,1,776,Correct,10,743
10,PZPYP,161,2,653,Correct,10,785
10,LPLFL,162,2,771,Correct,10,836
10,VSVSV,196,1,1034,Correct,10,819
10,VFVYQ,235,2,689,Correct,10,796
10,CZCXC,222,2,854,Correct,10,927
10,PVPCP,162,2,612,Correct,10,873
10,CXCXC,151,1,672,Correct,10,710
10,NZNZN,152,1,602,Correct,10,824
10,YPYCY,161,2,545,Correct,10,800
10,ZQZQZ,12,3,944,Correct,10,722
11,T,5,3,1413,New Target,11,923
11,KFKFK,151,1,1028,Correct,11,689
11,LZLZL,152,1,690,Correct,11,664
11,PFPVP,161,2,769,Correct,11,742
11,FRFPF,162,2,615,Correct,11,728
11,FZFZF,151,1,470,Correct,11,709
11,VTVTV,7,3,433,Correct,11,894
11,KYKCK,14,2,567,Correct,11,688
11,VPVPV,151,1,605,Correct,11,865
11,XQXQX,191,1,458,Correct,11,703
11,PZPYP,16,2,602,Correct,11,849
11,KXKLK,162,2,695,Correct,11,748
11,TCNCN,221,1,980,Correct,11,685
11,PZPNP,222,2,874,Correct,11,899
11,RCRPR,162,2,599,Correct,11,855
11,PZPRT,235,2,692,Correct,11,745
11,XFXVX,222,2,509,Correct,11,710
11,LTLVL,81,3,812,Correct,11,746
11,ZCZPZ,14,2,564,Correct,11,700
11,NCNQN,182,2,608,Correct,11,748
11,XZXNX,16,2,544,Correct,11,713
11,ZPZPZ,151,1,567,Correct,11,910
11,CFCFC,152,2,487,Incorrect,11,727
11,VXTRV,233,2,791,Correct,11,812
11,CFCVC,222,2,902,Correct,11,855
11,PYPYP,151,1,765,Correct,11,942
11,FQFYF,173,2,1005,Correct,11,930
11,CNCFC,16,2,685,Correct,11,675
11,PTPTP,9,3,753,Correct,11,939
11,ZCZCZ,13,1,1249,Correct,11,852
11,KZKZK,152,1,835,Correct,11,895
11,RLRVR,161,2,523,Correct,11,689
11,ZRZKZ,162,2,630,Correct,11,873
11,KLKLT,225,2,572,Incorrect,11,913
11,ZQZQZ,194,1,518,Correct,11,883
11,VZVZV,15,1,670,Correct,11,924
11,RVRZR,161,2,657,Correct,11,861
11,ZPZCZ,162,2,528,Correct,11,713
11,VYVYV,151,1,572,Correct,11,848
11,RVRVR,152,1,801,Correct,11,921
11,PTPTP,10,3,699,Correct,11,679
11,PXPXP,13,1,573,Correct,11,944
11,KCKCK,152,1,567,Correct,11,940
11,YVYVY,153,1,481,Correct,11,744
11,CYCYC,154,1,590,Correct,11,865
11,XCXCX,155,1,541,Correct,11,719
11,CYCQC,185,2,858,Correct,11,848
11,KCKNK,16,2,777,Correct,11,838
11,VPVPV,151,1,564,Correct,11,713
11,TXFZF,231,2,640,Correct,11,673
11,NYNVN,222,2,715,Correct,11,839
11,VQVXV,176,2,609,Correct,11,850
11,ZRZRZ,15,2,679,Incorrect,11,854
11,VTVZV,111,3,908,Correct,11,930
11,PXPVP,14,2,670,Correct,11,756
11,FVFVF,151,1,728,Correct,11,722
11,VRVLV,161,2,636,Correct,11,863
11,YCYCY,151,1,568,Correct,11,786
11,XZTZX,223,1,810,Correct,11,694
11,VTVTV,12,3,589,Correct,11,680
12,O,5,3,2250,New Target,12,929
12,VXVLV,161,2,647,Correct,12,919
12,KVKCK,162,2,605,Correct,12,749
12,VLVLV,151,1,560,Correct,12,655
12,ZCZVZ,161,2,573,Correct,12,780
12,KFKFK,151,1,506,Correct,12,760
12,XKXKX,152,1,650,Correct,12,801
12,YXYXY,153,2,561,Incorrect,12,808
12,FVFVF,154,1,566,Correct,12,943
12,PVPOP,72,3,655,Correct,12,906
12,ZXZYZ,14,2,724,Correct,12,887
12,PXPVP,162,2,621,Correct,12,726
12,ZTZTZ,191,1,1188,Correct,12,832
12,CVCKC,16,2,720,Correct,12,699
12,CKCKC,151,1,678,Correct,12,792
12,NPNPN,152,1,540,Correct,12,713
12,ZRZNZ,161,2,660,Correct,12,654
12,OZCZC,221,1,1134,Correct,12,651
12,LFLFL,113,1,613,Correct,12,728
12,CXCXC,152,1,797,Correct,12,939
12,KPKPK,153,1,682,Correct,12,916
12,FRFKF,161,2,557,Correct,12,819
12,FOFOF,8,3,718,Correct,12,813
12,ZFZFZ,13,1,557,Correct,12,895
12,LKLZO,235,2,661,Correct,12,877
12,KLKZK,222,2,782,Correct,12,863
12,YXYCY,162,2,685,Correct,12,890
12,LOLOL,9,3,676,Correct,12,855
12,XLXLX,13,1,678,Correct,12,874
12,XVXVX,152,2,636,Incorrect,12,867
12,FTFTF,192,1,561,Correct,12,863
12,OXNZN,231,2,721,Correct,12,719
12,CZCZC,113,1,650,Correct,12,789
12,LZLZL,152,1,580,Correct,12,748
12,VLVPV,161,2,711,Correct,12,661
12,VYVYO,225,1,675,Correct,12,657
12,XKXKX,113,1,669,Correct,12,669
12,RTRTR,193,,,Incorrect,12,846
12,KVKCK,16,2,729,Correct,12,871
12,ROROR,101,3,687,Correct,12,651
12,PRPRP,13,1,791,Correct,12,847
12,LYLVL,161,2,698,Correct,12,833
12,PLPLP,151,1,550,Correct,12,767
12,CTCTC,194,1,653,Correct,12,876
12,XZXYX,16,2,714,Correct,12,688
12,NKNKN,151,1,638,Correct,12,866
12,VLVZV,161,2,571,Correct,12,772
12,YOYOY,11,3,725,Correct,12,795
12,PZOZP,223,1,1057,Correct,12,655
12,FYFYF,113,1,563,Correct,12,948
12,ZXZVZ,161,2,689,Correct,12,722
12,VKVZV,162,2,790,Correct,12,907
12,ZTZTZ,195,1,589,Correct,12,685
12,LKLZL,16,2,565,Correct,12,796
12,KCKVK,162,2,689,Correct,12,886
12,PXPKP,163,2,738,Correct,12,918
12,KCOZK,233,2,931,Correct,12,866
12,FKFKF,113,1,660,Correct,12,749
12,CTCRC,176,2,897,Correct,12,676
12,NXNXN,15,1,917,Correct,12,662
12,KXKVK,161,2,695,Correct,12,702
12,CPCOC,122,3,1100,Correct,12,712
13,H,5,3,1545,New Target,13,755
13,VFVNV,151,2,802,Incorrect,13,745
13,YVYVY,152,1,683,Correct,13,720
13,XVXVX,153,2,627,Incorrect,13,852
13,NRNXN,161,2,672,Correct,13,678
13,PZPKP,162,2,677,Correct,13,861
13,HLVLV,221,1,858,Correct,13,859
13,CXCZC,222,2,848,Correct,13,673
13,LHLYL,71,3,685,Correct,13,899
13,YKYFY,14,2,894,Correct,13,924
13,YOYRY,171,2,603,Correct,13,884
13,ZKZYZ,16,2,651,Correct,13,707
13,RZRZR,151,1,713,Correct,13,702
13,NFNYN,161,2,651,Correct,13,926
13,KVKFK,162,2,853,Correct,13,721
13,XFXYX,163,2,791,Correct,13,833
13,LKLVL,164,2,732,Correct,13,675
13,NLNLN,151,1,511,Correct,13,914
13,XCXOX,182,2,727,Correct,13,871
13,FXFXF,15,1,864,Correct,13,711
13,VHVHV,8,1,595,Incorrect,13,782
13,PVPVP,13,,,Incorrect,13,909
13,CRCXC,161,2,762,Correct,13,930
13,NXNXN,151,1,945,Correct,13,842
13,XRXRX,152,1,634,Correct,13,920
13,YFYXY,161,2,675,Correct,13,770
13,ZOZOZ,193,1,700,Correct,13,740
13,RZRZR,15,1,593,Correct,13,820
13,FKFKF,152,1,634,Correct,13,877
13,PFPFP,153,1,566,Correct,13,656
13,XYXHX,92,3,548,Correct,13,830
13,RZRKR,14,2,678,Correct,13,689
13,FLFLH,225,2,939,Incorrect,13,771
13,KRKRK,113,1,653,Correct,13,755
13,ZVZNZ,161,2,618,Correct,13,700
13,ZOZOZ,194,1,576,Correct,13,868
13,FZFZF,15,1,697,Correct,13,879
13,FHFKF,101,3,534,Correct,13,729
13,ZXHLZ,233,2,1063,Correct,13,732
13,FKFXF,222,2,1201,Correct,13,668
13,CFCYC,162,2,650,Correct,13,763
13,ZXZVZ,163,2,533,Correct,13,803
13,KCKOK,185,2,736,Correct,13,800
13,ZXZVH,235,2,602,Correct,13,677
13,CKCKC,113,1,585,Correct,13,654
13,ZXZCZ,161,2,567,Correct,13,760
13,YVYVY,151,1,888,Correct,13,671
13,RVHVR,223,1,1210,Correct,13,778
13,ZRZRZ,113,2,688,Incorrect,13,720
13,ZHZHZ,11,1,601,Incorrect,13,795
13,VZVZV,13,1,589,Correct,13,872
13,HZVRV,231,2,909,Correct,13,751
13,FVFVF,113,1,572,Correct,13,802
13,RNRCR,161,2,791,Correct,13,895
13,COCOC,196,1,653,Correct,13,662
13,VNVXV,16,2,551,Correct,13,674
13,XHXHX,12,3,888,Correct,13,724
14,G,5,3,1443,New Target,14,882
14,FZFZF,151,1,750,Correct,14,947
14,RPRVR,161,2,577,Correct,14,815
14,XCXCX,151,1,568,Correct,14,948
14,YXYXY,152,1,470,Correct,14,757
14,KZKZK,153,1,430,Correct,14,923
14,RYRKR,161,2,570,Correct,14,917
14,FYFNF,162,2,628,Correct,14,806
14,VKVKV,151,1,669,Correct,14,872
14,KPGPK,223,1,1029,Correct,14,823
14,YNYNY,113,1,618,Correct,14,891
14,VYVYV,152,1,659,Correct,14,903
14,YCYXY,161,2,614,Correct,14,898
14,LKLGL,72,3,732,Correct,14,867
14,VXVXV,13,1,724,Correct,14,717
14,KCKVK,161,2,656,Correct,14,666
14,YKYKY,151,1,662,Correct,14,826
14,RHRXR,171,2,477,Correct,14,887
14,FVFCF,16,2,609,Correct,14,948
14,YXYGY,82,3,689,Correct,14,707
14,CLCLC,13,1,907,Correct,14,767
14,ZXZCZ,161,2,567,Correct,14,808
14,VLVFV,162,2,769,Correct,14,867
14,CPCPG,225,1,755,Correct,14,909
14,KHKNK,172,2,672,Correct,14,947
14,ZKZVZ,16,2,708,Correct,14,922
14,YKYLY,162,2,692,Correct,14,932
14,CNCNC,151,1,578,Correct,14,652
14,PGPGP,9,3,827,Correct,14,822
14,VPVPV,13,1,810,Correct,14,818
14,FXGRF,233,2,499,Correct,14,668
14,CYCVC,222,2,923,Correct,14,885
14,FNFNF,151,1,576,Correct,14,693
14,KFKCK,161,2,622,Correct,14,666
14,ZFZHZ,183,2,698,Correct,14,769
14,NXNXN,15,1,857,Correct,14,945
14,FNFNF,152,1,618,Correct,14,876
14,LXLNG,235,2,605,Correct,14,910
14,XKXVX,222,2,614,Correct,14,816
14,ZHZHZ,194,1,574,Correct,14,874
14,PFPFP,15,2,618,Incorrect,14,762
14,ZYZYZ,152,1,624,Correct,14,867
14,XPXVX,161,2,569,Correct,14,904
14,YCYCY,151,1,624,Correct,14,913
14,RGRGR,10,3,688,Correct,14,686
14,VRVRV,13,1,634,Correct,14,738
14,PKPNP,161,2,611,Correct,14,811
14,XGXGX,11,3,638,Correct,14,708
14,GZYVY,231,2,754,Correct,14,883
14,VCVNV,222,2,999,Correct,14,842
14,VHVHV,195,1,991,Correct,14,894
14,LXLNL,16,2,668,Correct,14,708
14,GKPKP,221,1,980,Correct,14,818
14,XRXPX,222,2,659,Correct,14,683
14,XNXNX,151,,,Incorrect,14,758
14,KHKNK,176,2,643,Incorrect,14,804
14,RZRZR,15,1,672,Correct,14,743
14,CGCFC,121,3,722,Correct,14,834
15,A,5,3,1233,New Target,15,689
15,XRXFX,161,2,885,Correct,15,795
15,RXRKR,162,2,832,Correct,15,901
15,YRYRY,151,1,527,Correct,15,873
15,XPXPX,152,1,620,Correct,15,838
15,RPRPR,153,1,471,Correct,15,764
15,NCNCN,154,1,596,Correct,15,819
15,RXRZR,161,2,651,Correct,15,875
15,NANAN,7,3,739,Correct,15,845
15,KCKYK,14,2,649,Correct,15,732
15,XKXFX,162,2,784,Correct,15,814
15,ZLZKZ,163,2,521,Correct,15,673
15,VCVZV,164,2,823,Correct,15,809
15,XCXVX,165,2,500,Correct,15,909
15,LKLZA,235,2,676,Correct,15,664
15,NCNCN,113,1,572,Correct,15,785
15,YGYGY,191,1,555,Correct,15,810
15,VLVLV,15,1,613,Correct,15,895
15,XRXRX,152,1,465,Correct,15,789
15,KAKPK,81,2,655,Incorrect,15,787
15,YZAZY,233,1,1068,Incorrect,15,749
15,CFCFC,113,1,569,Correct,15,655
15,VNVLV,161,2,872,Correct,15,720
15,KPKVK,162,2,772,Correct,15,838
15,NCNRN,163,2,653,Correct,15,736
15,FGFGF,192,1,714,Correct,15,691
15,RCRYR,16,2,627,Correct,15,729
15,KRKCK,162,2,668,Correct,15,866
15,CRCRC,151,1,678,Correct,15,752
15,XPAPX,223,1,895,Correct,15,666
15,LPLXL,222,2,573,Correct,15,772
15,CGCVC,173,2,839,Correct,15,797
15,FKFZF,16,2,512,Correct,15,662
15,CACAC,9,3,605,Correct,15,833
15,XCXCX,13,1,660,Correct,15,932
15,AXRXR,221,1,932,Correct,15,663
15,NKNRN,222,2,548,Correct,15,786
15,KNKFK,162,2,1217,Correct,15,771
15,KAKAK,10,3,690,Correct,15,829
15,ZCZRZ,14,2,842,Correct,15,782
15,RPRPR,151,1,571,Correct,15,810
15,NCNCN,152,1,769,Correct,15,845
15,RYRGR,184,2,548,Correct,15,892
15,VPVPV,15,1,788,Correct,15,767
15,RCRCA,225,1,1252,Correct,15,885
15,KXKPK,222,2,582,Correct,15,865
15,NPNPN,151,1,555,Correct,15,894
15,YCYCY,152,2,518,Incorrect,15,882
15,PXPAP,112,3,785,Correct,15,839
15,ZCZNZ,14,2,662,Correct,15,757
15,KYKGK,185,2,1070,Correct,15,692
15,ANLPL,231,2,1435,Correct,15,821
15,CXCPC,222,2,691,Correct,15,838
15,YRYRY,151,1,627,Correct,15,923
15,LGLGL,196,1,623,Correct,15,821
15,VYVLV,16,2,724,Correct,15,876
15,KVKVK,151,1,909,Correct,15,752
15,RKRKR,152,1,680,Correct,15,867
15,VXVXV,153,1,606,Correct,15,822
15,XAXAX,12,3,769,Correct,15,948
