Trial No,Stimulus,Trigger,Response,Response Time(ms),Correct,Block,Fixation Duration
Practice
OT Practice
1,SKSKS,15,1,1176,Correct,0,778
1,DLDUD,16,2,1023,Correct,0,799
1,PDPGP,16,2,1177,Correct,0,874
1,MWMWM,15,1,1000,Correct,0,695
1,FTFTF,15,1,846,Correct,0,929
1,AXAMA,16,2,638,Correct,0,885
1,RYRGR,16,2,864,Correct,0,679
1,DODOD,15,1,712,Correct,0,693
1,QTQAQ,16,1,795,False,0,898
1,YEYEY,15,2,853,False,0,720
2,GYGDG,16,2,1118,Correct,0,699
2,SWSWS,15,1,858,Correct,0,750
2,HLHUH,16,2,1113,Correct,0,899
2,DEDED,15,1,770,Correct,0,826
2,ZPZOZ,16,2,700,Correct,0,740
2,ATATA,15,1,634,Correct,0,721
2,QOQOQ,15,1,927,Correct,0,932
2,FPFGF,16,2,591,Correct,0,877
2,TRTET,16,2,867,Correct,0,686
2,DQDQD,15,1,1239,Correct,0,824
AT Practice
1,TKTKT,15,1,1319,Correct,0,820
1,SLSUS,16,2,888,Correct,0,810
1,VZVGV,7,2,1002,False,0,803
1,XWXZX,7,3,1097,Correct,0,748
1,ATATA,15,1,721,Correct,0,854
1,HXZMH,16,,,False,0,728
1,TZTZT,7,3,956,Correct,0,948
1,UOUOU,15,1,939,Correct,0,854
1,ZTWAW,16,1,1223,False,0,923
1,RZRER,7,2,777,False,0,855
2,JYJDJ,16,2,941,Correct,0,697
2,DWDWD,15,1,762,Correct,0,878
2,GNGNG,7,3,666,Correct,0,666
2,NEZEZ,16,1,751,Correct,0,886
2,RNROR,7,3,582,Correct,0,832
2,QTQNQ,7,3,879,Correct,0,911
2,HOHON,15,2,755,False,0,757
2,KPKGK,16,2,969,Correct,0,836
2,DRDED,16,2,982,Correct,0,856
2,LNLNL,7,3,473,Correct,0,695
4,GLGLG,15,1,1182,Correct,0,880
4,DTDID,16,2,763,Correct,0,693
4,SMSGS,16,2,1187,Correct,0,721
4,ZFZYZ,7,3,813,Correct,0,733
4,TSTFT,7,3,791,Correct,0,667
4,OFOFO,7,3,619,Correct,0,804
4,WYFGW,16,2,1045,Correct,0,854
4,WYWYW,15,1,979,Correct,0,769
4,MFMCM,7,3,829,Correct,0,892
4,HQHEH,16,2,881,Correct,0,883
Trials
1,D,5,3,1597,New Target,1,837
1,ZNZYZ,161,2,961,Correct,1,921
1,FZFZF,151,2,1079,Incorrect,1,726
1,RKRKR,152,1,842,Correct,1,660
1,RXRNR,161,2,895,Correct,1,839
1,CNCFC,162,2,1090,Correct,1,914
1,PDPDP,7,3,719,Correct,1,756
1,CPCFC,14,2,1130,Correct,1,843
1,VLVNV,162,2,1463,Correct,1,801
1,KFKFK,151,1,1114,Correct,1,724
1,ZNZNZ,152,2,1146,Incorrect,1,730
1,KCKPD,235,2,1396,Correct,1,889
1,ZKZFZ,222,2,1049,Correct,1,733
1,NRNZN,162,2,842,Correct,1,745
1,KXKRK,163,2,965,Correct,1,692
1,YPYZY,164,2,1029,Correct,1,907
1,FKDKF,223,1,1247,Correct,1,948
1,RPRPR,113,1,1305,Correct,1,736
1,VRVKV,161,2,914,Correct,1,760
1,RFRPR,162,2,1080,Correct,1,795
1,KVKVK,151,1,1202,Correct,1,941
1,YKYVY,161,2,1133,Correct,1,796
1,VDVDV,8,3,729,Correct,1,774
1,DVZVZ,221,1,1223,Correct,1,698
1,YFYFY,113,1,860,Correct,1,910
1,ZYZYZ,152,1,878,Correct,1,938
1,VLVXV,161,2,725,Correct,1,729
1,DPXZX,231,2,903,Correct,1,659
1,RYRYR,113,1,960,Correct,1,742
1,PDPNP,91,3,721,Correct,1,911
1,KXKXK,13,1,1481,Correct,1,920
1,ZYZYZ,152,1,965,Correct,1,894
1,VKVKV,153,1,931,Correct,1,933
1,YZYZY,154,1,890,Correct,1,712
1,NLNZN,161,2,781,Correct,1,898
1,ZNDYZ,233,2,1417,Correct,1,812
1,PCPXP,222,2,1196,Correct,1,763
1,ZVZFZ,162,2,1108,Correct,1,806
1,RCRZR,163,2,727,Correct,1,664
1,LRLRL,151,1,931,Correct,1,807
1,ZDZDZ,10,3,739,Correct,1,886
1,RNRZR,14,2,1056,Correct,1,717
1,CXCYC,162,2,1439,Correct,1,789
1,RCRLR,163,2,801,Correct,1,751
1,FRFRF,151,1,633,Correct,1,880
1,XFXFX,152,1,770,Correct,1,928
1,RPRLR,161,2,881,Correct,1,700
1,YXYRY,162,2,907,Correct,1,690
1,FYFYF,151,1,1042,Correct,1,736
1,YZYVY,161,2,1091,Correct,1,800
1,YKYKY,151,1,817,Correct,1,842
1,XRXRX,152,1,908,Correct,1,703
1,XVXZX,161,2,690,Correct,1,839
1,PDPDP,11,3,987,Correct,1,919
1,ZFZFZ,13,1,1042,Correct,1,651
1,PXPXP,152,1,912,Correct,1,817
1,LYLYL,153,1,784,Correct,1,945
1,NKNKD,225,1,1115,Correct,1,723
1,ZNZNZ,113,1,682,Correct,1,776
1,PYPZP,161,2,952,Correct,1,734
1,XPXPX,151,1,706,Correct,1,651
1,VLVLV,152,2,1071,Incorrect,1,872
1,PKPXP,161,2,1427,Correct,1,684
1,FZFZF,151,1,807,Correct,1,734
1,LDLDL,12,3,621,Correct,1,863
2,U,5,3,2437,New Target,2,877
2,ZVZFZ,161,2,1029,Correct,2,728
2,FZFZF,151,1,1127,Correct,2,814
2,RFRFR,152,1,992,Correct,2,901
2,NZNKN,161,2,1300,Correct,2,810
2,FZFNF,162,2,856,Correct,2,847
2,RXRXR,151,1,884,Correct,2,665
2,KRKYK,161,2,732,Correct,2,698
2,NZNPN,162,2,986,Correct,2,780
2,XPXPX,151,1,743,Correct,2,937
2,CUCUC,7,1,784,Incorrect,2,909
2,RFRFR,13,1,1004,Correct,2,758
2,VYVXV,161,2,1041,Correct,2,682
2,VDVDV,191,2,1300,Incorrect,2,666
2,ZKZRZ,15,2,1245,Correct,2,737
2,XCXCX,151,1,902,Correct,2,793
2,CNCUC,82,3,842,Correct,2,913
2,RCRCR,13,1,863,Correct,2,862
2,ZPZXZ,161,2,813,Correct,2,654
2,FKFYF,162,2,838,Correct,2,776
2,ZFZYZ,163,2,928,Correct,2,755
2,PXPXP,151,1,932,Correct,2,827
2,URCKC,231,2,844,Correct,2,659
2,PCPCP,113,1,993,Correct,2,887
2,XNXNX,152,1,1065,Correct,2,671
2,RCRZR,161,2,998,Correct,2,850
2,XVXVX,151,1,1445,Correct,2,911
2,NRNRN,152,2,897,Incorrect,2,937
2,FPFPF,225,1,842,Correct,2,742
2,XVXFX,222,2,1413,Correct,2,732
2,PRPRP,151,1,1095,Correct,2,783
2,FYFCF,161,2,1507,Correct,2,929
2,XUXFX,91,3,850,Correct,2,742
2,CYCVC,14,2,1000,Correct,2,875
2,VDVKV,172,2,1117,Correct,2,741
2,YCYCY,15,1,936,Correct,2,815
2,NKNLN,161,2,800,Correct,2,717
2,XPUKX,233,,,Incorrect,2,757
2,ZPZPZ,113,1,886,Correct,2,833
2,KRKRK,152,1,766,Correct,2,755
2,XKXKX,153,1,601,Correct,2,764
2,YUYVY,101,3,775,Correct,2,912
2,XKXFU,235,2,791,Correct,2,674
2,NFNFN,113,1,816,Correct,2,864
2,KDKDK,193,2,779,Incorrect,2,763
2,XYXKX,16,2,1235,Correct,2,887
2,YZUZY,223,1,1042,Correct,2,663
2,KFKVK,222,2,807,Correct,2,707
2,LYLYL,151,1,709,Correct,2,682
2,CXCDC,184,2,1342,Incorrect,2,859
2,XZXNX,16,2,917,Correct,2,737
2,PXPXP,151,1,765,Correct,2,718
2,ZRZYZ,161,2,824,Correct,2,836
2,PUPYP,111,3,732,Correct,2,911
2,RNRNR,14,1,778,Correct,2,760
2,KDKDK,195,1,881,Correct,2,856
2,KNKNK,15,2,1246,Incorrect,2,675
2,PRPKP,161,2,1175,Correct,2,751
2,UNYNY,221,1,756,Correct,2,751
2,NYNYN,113,1,974,Correct,2,842
2,YXYXY,152,1,773,Incorrect,2,718
2,RDRDR,196,2,738,Incorrect,2,745
2,FCFCF,15,1,877,Correct,2,843
2,ZKZKZ,152,1,1035,Correct,2,942
2,ZUZUZ,12,3,863,Correct,2,707
3,E,5,3,2582,New Target,3,935
3,YZYZY,151,1,1174,Correct,3,770
3,VFVNV,161,2,865,Correct,3,793
3,KYKYK,151,1,788,Correct,3,870
3,NKNKN,152,1,943,Correct,3,784
3,XVXNX,161,2,706,Correct,3,825
3,RERFR,71,3,946,Correct,3,724
3,XNXNX,13,2,888,Incorrect,3,786
3,NXNXN,152,1,866,Correct,3,686
3,ZLZNZ,161,2,1212,Correct,3,730
3,CUCNC,171,2,1268,Correct,3,888
3,FYFRF,16,2,1188,Correct,3,947
3,ZLZLZ,151,1,655,Correct,3,836
3,YZYZY,152,1,866,Correct,3,669
3,CYCYC,153,1,812,Correct,3,718
3,VUVUV,192,1,1211,Correct,3,693
3,PXPRP,16,2,1192,Correct,3,747
3,YPYPY,151,1,1040,Correct,3,875
3,CECEC,8,3,819,Correct,3,733
3,VNENV,223,1,1320,Correct,3,839
3,KRKFK,222,2,1244,Correct,3,887
3,XLXLE,225,1,1322,Correct,3,697
3,RFRUR,183,2,1406,Correct,3,918
3,XRXLX,16,2,1100,Correct,3,912
3,NZNPN,162,2,907,Correct,3,805
3,XZXZX,151,1,963,Correct,3,776
3,FZFZF,152,1,1254,Correct,3,812
3,PFPFP,153,1,1293,Correct,3,813
3,YZYXY,161,2,669,Correct,3,950
3,KEKEK,9,1,635,Incorrect,3,875
3,CXCPC,14,2,919,Correct,3,914
3,VXVXV,151,1,1133,Correct,3,786
3,NUNZN,174,2,781,Correct,3,673
3,RKRVR,16,2,1027,Correct,3,880
3,XRXRX,151,1,804,Correct,3,823
3,ERNFN,231,2,1265,Incorrect,3,744
3,YRYNY,222,2,1067,Correct,3,736
3,PZPEP,102,3,863,Correct,3,682
3,ZYZXZ,14,2,801,Correct,3,945
3,RZRVR,162,2,790,Correct,3,878
3,XRXRX,151,1,1442,Correct,3,791
3,KUKFK,175,,,Incorrect,3,733
3,RKRKR,15,1,724,Correct,3,655
3,ZFZFZ,152,2,861,Incorrect,3,919
3,YZYVY,161,2,817,Correct,3,918
3,XPXNX,162,2,997,Correct,3,874
3,YRYRY,151,1,677,Correct,3,876
3,EPVPV,221,1,785,Correct,3,894
3,CRCEC,112,2,937,Incorrect,3,897
3,RFRCR,14,2,1471,Correct,3,790
3,CPCVC,162,2,740,Correct,3,658
3,RXRCR,163,2,643,Correct,3,746
3,VNVLV,164,2,847,Correct,3,939
3,ZXZXZ,151,1,852,Correct,3,829
3,ZCZCZ,152,1,765,Correct,3,732
3,PYPUP,186,2,740,Correct,3,890
3,YKYPY,16,2,1004,Correct,3,914
3,YREXY,233,2,1185,Correct,3,678
3,ZKZKZ,113,1,923,Correct,3,773
3,XLXNX,161,2,1148,Correct,3,875
3,KFKRE,235,2,1179,Correct,3,738
3,RXRLR,222,2,1410,Correct,3,920
3,RERXR,121,3,742,Correct,3,812
4,J,5,3,2743,New Target,4,735
4,CYCVC,161,2,831,Correct,4,785
4,RXRCR,162,2,1227,Correct,4,747
4,FPFVF,163,2,1145,Correct,4,664
4,LZLZL,151,1,1209,Correct,4,705
4,PLPLP,152,1,886,Correct,4,724
4,NPNPN,153,1,688,Correct,4,727
4,XZXZX,161,1,624,Incorrect,4,765
4,CNCKC,162,2,961,Correct,4,726
4,PCPYJ,235,2,1472,Correct,4,881
4,VYVYV,113,1,772,Correct,4,668
4,RLRLR,152,1,953,Correct,4,936
4,CJCJC,7,3,928,Correct,4,720
4,ZLZLZ,13,1,720,Correct,4,888
4,FZFZF,152,1,927,Correct,4,685
4,CFCFC,153,2,694,Incorrect,4,793
4,PZPZP,154,1,680,Correct,4,654
4,XEXEX,191,1,997,Correct,4,823
4,NVNFN,16,2,826,Correct,4,713
4,KYKYK,151,1,1030,Correct,4,711
4,ZNZVZ,161,2,788,Correct,4,870
4,YVJXY,233,2,926,Correct,4,875
4,XFXFX,113,1,903,Correct,4,654
4,XNXNX,152,2,729,Incorrect,4,893
4,FJFKF,81,3,1073,Correct,4,942
4,CZCYC,14,2,788,Correct,4,656
4,ZXZCZ,162,2,777,Correct,4,936
4,RYRYJ,225,1,1031,Correct,4,679
4,FPFZF,222,2,1419,Correct,4,726
4,XRXRX,151,1,1344,Correct,4,687
4,YPYEY,182,2,682,Correct,4,697
4,XRXRX,15,1,781,Correct,4,695
4,XZXPX,161,2,842,Correct,4,727
4,CJCJC,9,3,694,Correct,4,698
4,ZXZVZ,14,2,739,Correct,4,861
4,VKVKV,151,1,798,Correct,4,850
4,VEVNV,173,2,732,Correct,4,703
4,ZKZVZ,16,2,1288,Correct,4,801
4,XVXJX,102,3,1547,Correct,4,899
4,RXRVR,14,2,981,Correct,4,847
4,LRLRL,151,1,714,Correct,4,742
4,YNJNY,223,2,614,Incorrect,4,804
4,NPNJN,222,3,1233,Incorrect,4,914
4,ZEZEZ,194,1,652,Correct,4,714
4,ZNZNZ,15,1,859,Correct,4,854
4,YZYZY,152,1,854,Correct,4,739
4,XYXYX,153,1,849,Correct,4,737
4,ZXZXZ,221,1,956,Correct,4,654
4,LYLZL,222,2,1066,Correct,4,944
4,CYCNC,162,2,940,Correct,4,740
4,XEXEX,195,1,768,Correct,4,819
4,CVCXC,16,2,1565,Correct,4,765
4,ZPZXZ,162,2,1173,Correct,4,902
4,FZFZF,151,1,1088,Correct,4,839
4,RXRJR,112,3,1045,Correct,4,665
4,PRPFP,14,,,Incorrect,4,846
4,PKPEP,186,2,1229,Correct,4,884
4,XZXPX,16,2,1077,Correct,4,837
4,JCZVZ,231,2,932,Correct,4,806
4,RXRLR,222,2,641,Correct,4,931
4,VZVZV,151,1,686,Correct,4,912
4,XJXJX,12,3,758,Correct,4,922
5,I,5,3,3961,New Target,5,922
5,PCPCP,151,1,842,Correct,5,919
5,XYXYX,152,1,1267,Correct,5,808
5,VXVXV,153,1,791,Correct,5,926
5,XVXVX,154,1,818,Correct,5,767
5,ZRZXZ,161,2,1166,Correct,5,740
5,FPFZF,162,2,696,Correct,5,805
5,ZYZYZ,151,1,768,Correct,5,920
5,RVRZR,161,2,955,Correct,5,785
5,CICIC,7,3,973,Correct,5,907
5,XLXLX,13,1,1358,Correct,5,902
5,YVYVY,152,1,685,Correct,5,933
5,CJCJC,191,2,1080,Incorrect,5,839
5,FNFCF,16,,,Incorrect,5,707
5,PVPRP,162,2,712,Correct,5,667
5,FZFZF,151,1,614,Correct,5,745
5,NVIVN,223,1,1060,Correct,5,896
5,CVCIC,82,3,726,Correct,5,780
5,ZXZXZ,13,1,855,Correct,5,652
5,FCFZF,161,2,896,Correct,5,781
5,IXRXR,221,1,959,Correct,5,917
5,ZPZNZ,222,3,1078,Incorrect,5,700
5,VZVZV,151,1,762,Correct,5,716
5,YRYNY,161,2,799,Correct,5,914
5,VNVPV,162,2,692,Correct,5,865
5,RVRJR,182,3,1331,Incorrect,5,814
5,VRVRV,15,1,1177,Correct,5,768
5,VIVIV,9,3,815,Correct,5,903
5,CXCVC,14,2,792,Correct,5,835
5,PZPZP,151,1,543,Correct,5,884
5,IXVKV,231,2,1089,Correct,5,876
5,YJYCY,173,3,1275,Incorrect,5,893
5,VYVYV,15,1,903,Correct,5,739
5,YVYVY,152,1,972,Correct,5,816
5,NVNVN,153,1,659,Correct,5,679
5,XYXVX,161,2,1078,Correct,5,684
5,NJNCN,174,2,1320,Correct,5,729
5,NXNYN,16,2,1240,Correct,5,935
5,VXVCV,162,2,724,Correct,5,737
5,ZKZKZ,151,1,1344,Correct,5,830
5,XRXYX,161,2,810,Correct,5,678
5,ZCZXZ,162,2,821,Correct,5,756
5,KVKYI,235,1,1342,Incorrect,5,841
5,CNCNC,113,2,917,Incorrect,5,773
5,RIRIR,10,3,794,Correct,5,756
5,VYVXV,14,2,662,Correct,5,732
5,FXIRF,233,2,568,Correct,5,720
5,PFPFP,113,1,586,Correct,5,861
5,VPVPV,152,1,662,Correct,5,939
5,ZJZJZ,195,1,863,Correct,5,948
5,ZVZNZ,16,2,889,Correct,5,715
5,YVYXY,162,2,787,Correct,5,715
5,PRPRP,151,1,1155,Correct,5,661
5,YPYPY,152,1,655,Correct,5,755
5,ZIZPZ,111,3,750,Correct,5,784
5,NKNXN,14,2,1064,Correct,5,859
5,RZRXR,162,2,1171,Correct,5,912
5,RXRXR,151,1,1150,Correct,5,828
5,ZJZJZ,196,1,1005,Correct,5,697
5,CVCVI,225,2,875,Correct,5,921
5,NKNKN,113,1,1122,Correct,5,844
5,NRNZN,161,2,1378,Correct,5,734
5,CNCNC,151,1,673,Correct,5,918
5,RFRIR,122,2,973,Incorrect,5,874
6,B,5,3,2057,New Target,6,712
6,YKYZY,161,2,1325,Correct,6,679
6,VCVRV,162,2,849,Correct,6,846
6,XVXVX,151,1,763,Correct,6,794
6,KZKRK,161,2,779,Correct,6,728
6,ZVZXZ,162,2,616,Correct,6,719
6,RCRNR,163,2,1014,Correct,6,835
6,CXCRC,164,2,565,Correct,6,855
6,VNBCV,233,2,570,Correct,6,686
6,CXCVC,222,2,634,Correct,6,860
6,RFRFR,151,1,955,Correct,6,695
6,XPXRX,161,2,764,Correct,6,833
6,RYRBR,72,3,538,Correct,6,736
6,ZKZKZ,13,1,814,Correct,6,719
6,FIFRF,171,2,1235,Correct,6,907
6,VZVLV,16,2,939,Correct,6,851
6,RPRVR,162,2,1187,Correct,6,654
6,YBYBY,8,3,737,Correct,6,726
6,PYPVP,14,2,797,Correct,6,737
6,NININ,192,1,919,Correct,6,806
6,RNRNR,15,1,781,Correct,6,757
6,NXNVN,161,2,1072,Correct,6,938
6,RNRNR,151,1,718,Correct,6,840
6,FRFVF,161,2,735,Correct,6,694
6,YVYFB,235,2,904,Incorrect,6,825
6,ZRZXZ,222,2,930,Correct,6,657
6,VNVIV,193,2,997,Incorrect,6,871
6,PXPNP,16,2,800,Correct,6,924
6,ZXZPZ,162,2,589,Correct,6,721
6,VBVBV,9,3,658,Correct,6,704
6,CXCXC,13,3,968,Incorrect,6,658
6,PCPFP,161,2,775,Correct,6,933
6,KNKNK,151,1,881,Correct,6,825
6,XIXIX,194,1,1077,Correct,6,851
6,CYCYC,15,1,855,Correct,6,761
6,FVFYF,161,2,859,Correct,6,943
6,YNYRY,162,2,788,Correct,6,802
6,BVPXP,231,2,843,Correct,6,875
6,NXNXN,113,1,812,Correct,6,940
6,FRFRF,152,1,868,Correct,6,804
6,YVYVY,153,1,664,Correct,6,843
6,ZKZCZ,161,2,679,Correct,6,754
6,VIVXV,175,2,754,Correct,6,944
6,PRBRP,223,1,1303,Correct,6,932
6,YZYBY,102,3,927,Correct,6,787
6,CXCVC,14,2,710,Correct,6,758
6,FYFYF,151,1,661,Correct,6,755
6,VKVXV,161,2,821,Correct,6,806
6,ZBZBZ,11,3,603,Correct,6,862
6,FPFNF,14,2,763,Correct,6,850
6,CXCXC,151,1,939,Correct,6,684
6,YCYCY,152,1,745,Correct,6,929
6,FPFPF,153,1,855,Correct,6,668
6,CVCVB,225,2,915,Incorrect,6,713
6,ZCZCZ,113,1,642,Correct,6,934
6,CZCNC,161,2,672,Correct,6,879
6,KIKFK,176,3,1089,Incorrect,6,668
6,PXPXP,15,2,764,Incorrect,6,931
6,RYRYR,152,1,1138,Correct,6,932
6,ZRZCZ,161,2,899,Correct,6,663
6,RVRVR,151,2,972,Incorrect,6,677
6,XYXNX,161,1,969,Incorrect,6,940
6,BVKVK,221,1,952,Correct,6,935
6,CBCBC,12,3,681,Correct,6,860
7,W,5,3,4478,New Target,7,862
7,RKRKR,151,1,951,Correct,7,757
7,CVCRC,161,2,713,Correct,7,927
7,PKPKP,151,1,666,Correct,7,701
7,FPFPF,152,1,596,Correct,7,881
7,VRVPV,161,2,706,Correct,7,875
7,ZKZYZ,162,2,705,Correct,7,718
7,PVPCP,233,2,625,Correct,7,735
7,KVKVK,113,1,752,Correct,7,837
7,YXYVY,161,2,1304,Correct,7,930
7,FNFNF,151,1,986,Correct,7,911
7,YWYWY,7,1,620,Incorrect,7,848
7,ZYZYZ,13,1,856,Correct,7,877
7,PYPYP,152,1,1074,Correct,7,771
7,XRXRX,153,1,838,Correct,7,729
7,PXPXP,154,2,814,Incorrect,7,829
7,FCFBF,181,2,1230,Correct,7,655
7,FVFVF,15,2,1077,Incorrect,7,868
7,CYCZC,161,2,836,Correct,7,763
7,XZXVX,162,1,910,Incorrect,7,749
7,PFPFP,151,1,830,Correct,7,914
7,RVRLR,161,2,809,Correct,7,774
7,ZBZBZ,192,3,788,Incorrect,7,750
7,VCVNV,16,2,1097,Correct,7,945
7,NWNWN,8,3,854,Correct,7,850
7,XNXVX,14,2,845,Correct,7,825
7,CXCNC,162,2,805,Correct,7,798
7,YVYVW,225,1,897,Correct,7,726
7,VFVFV,113,1,998,Correct,7,859
7,VFWFV,223,1,979,Correct,7,877
7,CVCFC,222,2,1289,Correct,7,700
7,YBYBY,193,2,1311,Incorrect,7,816
7,PYPYP,15,1,997,Correct,7,778
7,NKNWN,91,3,1001,Correct,7,731
7,VNVNV,13,2,1274,Incorrect,7,821
7,RVRVR,152,1,961,Correct,7,843
7,FVFBF,184,2,1506,Incorrect,7,876
7,VZVKV,16,2,738,Correct,7,753
7,VPVCV,162,2,817,Correct,7,715
7,WYZCZ,231,2,730,Correct,7,730
7,PFPFP,113,1,839,Correct,7,753
7,PRPRP,152,1,1051,Correct,7,932
7,NWNWN,10,3,1101,Correct,7,723
7,VKVCV,14,2,1145,Correct,7,881
7,WPYPY,221,1,649,Correct,7,748
7,VBVBV,195,3,755,Incorrect,7,926
7,ZKZYZ,16,2,889,Correct,7,908
7,XYXYX,151,1,870,Correct,7,661
7,FZFXF,161,2,1082,Correct,7,834
7,XKXKX,151,1,1187,Correct,7,901
7,XPXPX,152,1,1394,Correct,7,703
7,FWFWF,11,3,870,Correct,7,783
7,FNFBF,186,2,604,Correct,7,818
7,ZVZYZ,16,2,1051,Correct,7,907
7,FZFZF,151,1,713,Correct,7,831
7,NPNFW,235,2,843,Correct,7,670
7,PCPCP,113,1,613,Correct,7,745
7,NKNWN,122,3,818,Correct,7,933
8,M,5,3,3874,New Target,8,814
8,VYVNV,161,2,946,Correct,8,888
8,KLKNK,162,2,1289,Correct,8,684
8,NRNRN,151,1,863,Correct,8,811
8,VNVFV,161,2,692,Correct,8,845
8,XNXNM,225,1,1092,Correct,8,762
8,CXCVC,222,2,695,Correct,8,702
8,KRKZK,162,2,1018,Correct,8,678
8,NMNFN,71,3,832,Correct,8,654
8,ZFZFZ,13,1,727,Correct,8,869
8,YPYCY,161,2,739,Correct,8,807
8,KCKCK,151,1,739,Correct,8,661
8,VNVNV,152,2,654,Incorrect,8,788
8,LXLXL,153,1,792,Correct,8,935
8,CLCLC,154,1,739,Correct,8,773
8,NYNYN,155,1,1050,Correct,8,925
8,LCMYL,233,2,968,Correct,8,834
8,NCNCN,113,,,Incorrect,8,892
8,ZVZRZ,161,2,642,Correct,8,806
8,ZVZVZ,151,1,829,Correct,8,914
8,PZPVP,161,2,933,Correct,8,798
8,PWPNP,171,3,776,Incorrect,8,776
8,KLKCM,235,2,1358,Correct,8,867
8,XMXMX,8,3,690,Correct,8,854
8,PRPXP,14,2,738,Correct,8,710
8,CVCYC,162,2,1022,Correct,8,842
8,PXPMP,92,3,733,Correct,8,910
8,ZCZLZ,14,2,1047,Correct,8,849
8,XWXWX,192,1,939,Correct,8,683
8,ZCZLZ,16,2,688,Correct,8,760
8,MNCYC,231,2,704,Correct,8,742
8,ZXZXZ,113,1,761,Correct,8,940
8,YRYNY,161,2,679,Correct,8,687
8,ZLZPZ,162,2,1039,Correct,8,939
8,VZVZV,151,1,621,Correct,8,908
8,MXPXP,221,2,729,Incorrect,8,901
8,VWVWV,193,1,1155,Correct,8,889
8,PYPYP,16,1,860,Incorrect,8,883
8,XPXVX,162,2,757,Correct,8,796
8,XLXLX,151,1,980,Correct,8,693
8,YMYMY,10,3,821,Correct,8,820
8,VYVYV,13,2,926,Incorrect,8,777
8,PWPZP,174,2,1125,Correct,8,789
8,PYPKP,16,2,1293,Correct,8,922
8,NPNXN,162,2,1217,Correct,8,909
8,KVKVK,223,1,1072,Correct,8,682
8,NVNFN,222,2,707,Correct,8,705
8,XNXNX,151,1,831,Correct,8,824
8,YZYMY,112,3,934,Correct,8,880
8,PFPFP,13,1,1226,Correct,8,772
8,ZWZWZ,195,3,823,Incorrect,8,724
8,PCPZP,16,2,574,Correct,8,855
8,LRLPL,162,2,1309,Correct,8,875
8,CZCZC,151,1,775,Correct,8,650
8,NZNZN,152,1,833,Correct,8,844
8,CVCXC,161,2,731,Correct,8,694
8,XCXCX,151,1,567,Correct,8,822
8,YWYWY,196,3,775,Incorrect,8,865
8,NLNLN,15,1,1171,Correct,8,706
8,VNVNV,152,2,848,Incorrect,8,776
8,ZMZMZ,12,3,1144,Correct,8,812
9,S,5,3,3357,New Target,9,897
9,NZNZN,151,1,664,Correct,9,671
9,KVKZK,161,2,708,Correct,9,818
9,LZLZL,151,1,737,Correct,9,776
9,XLXLX,152,1,1312,Correct,9,719
9,ZXZXZ,153,2,595,Incorrect,9,905
9,KNKZK,161,2,810,Correct,9,708
9,NRNYN,162,2,840,Correct,9,697
9,CLCVC,163,2,1349,Correct,9,655
9,ZCZFZ,164,2,797,Correct,9,732
9,NSNSN,7,3,802,Correct,9,932
9,VZVZV,13,1,881,Correct,9,694
9,NVNCN,161,2,780,Correct,9,684
9,VMVMV,191,3,710,Incorrect,9,853
9,CVCXC,16,2,1050,Correct,9,671
9,ZYZRZ,162,2,716,Correct,9,802
9,XNXZX,163,2,978,Correct,9,873
9,PXPXP,151,1,756,Correct,9,845
9,VCVSV,82,3,867,Correct,9,689
9,PRPCP,14,2,1548,Correct,9,718
9,ZMZMZ,192,3,725,Incorrect,9,927
9,ZFZFZ,15,1,1043,Correct,9,771
9,FCFCF,152,1,803,Correct,9,798
9,YLYZY,161,2,800,Correct,9,697
9,KNKVK,162,2,1310,Correct,9,718
9,SFPCP,231,1,1188,Incorrect,9,838
9,RPRPR,113,1,931,Correct,9,695
9,XMXMX,193,2,1098,Incorrect,9,713
9,KFKFK,15,1,987,Correct,9,698
9,VSVSV,9,3,842,Correct,9,917
9,YVSVY,223,1,945,Correct,9,735
9,VPVPV,113,1,1030,Correct,9,800
9,XZXZX,152,1,706,Correct,9,933
9,KZKXK,161,2,722,Correct,9,752
9,RFRPR,162,2,1086,Correct,9,752
9,NVNVS,225,1,1296,Correct,9,774
9,ZXZXZ,113,1,841,Correct,9,726
9,SRVRV,221,1,831,Correct,9,839
9,YCYCY,113,1,1116,Correct,9,684
9,KMKZK,174,2,1143,Correct,9,907
9,FZSVF,233,2,1172,Correct,9,809
9,VYVYV,113,1,704,Correct,9,724
9,LVLVL,152,1,803,Correct,9,690
9,YFYFY,153,1,621,Correct,9,744
9,NXNSN,102,3,1361,Correct,9,705
9,FNFCF,14,2,1467,Correct,9,724
9,KVKVK,151,1,807,Correct,9,838
9,VZVCV,161,2,1314,Correct,9,776
9,ZYZMZ,185,2,1397,Correct,9,888
9,VXVZV,16,2,788,Correct,9,901
9,VPVPV,151,1,687,Correct,9,799
9,RVRNS,235,2,881,Correct,9,658
9,YZYZY,113,1,1129,Correct,9,790
9,ZSZSZ,11,3,920,Correct,9,783
9,FRFRF,13,1,717,Correct,9,835
9,ZMZMZ,196,3,1174,Incorrect,9,918
9,NZNXN,16,2,1281,Correct,9,845
9,LSLFL,121,3,664,Correct,9,861
10,Q,5,3,1519,New Target,10,918
10,ZVZPZ,161,2,837,Correct,10,751
10,RZRZR,151,1,701,Correct,10,821
10,ZFZFZ,152,,,Incorrect,10,902
10,RZRZR,153,1,594,Correct,10,834
10,PZPXP,161,2,676,Correct,10,730
10,VFQPV,233,2,789,Correct,10,692
10,ZPZRZ,222,2,757,Correct,10,679
10,CYCVC,162,2,831,Correct,10,808
10,CPCPC,151,1,598,Correct,10,826
10,YZYQY,72,3,1004,Correct,10,712
10,FVFXF,14,2,1039,Correct,10,802
10,YNYNQ,225,1,1341,Correct,10,873
10,ZYZYZ,113,1,817,Correct,10,858
10,FRFSF,181,3,1000,Incorrect,10,831
10,XNXPX,16,2,726,Correct,10,906
10,NXNXN,151,1,936,Correct,10,688
10,PVPZP,161,2,585,Correct,10,915
10,XVXPX,162,2,790,Correct,10,940
10,FXFVF,163,,,Incorrect,10,731
10,NSNKN,172,2,940,Incorrect,10,877
10,VXVNV,16,2,653,Correct,10,821
10,XZXZX,151,1,810,Correct,10,839
10,VQVQV,8,3,693,Correct,10,708
10,ZYZPZ,14,2,661,Correct,10,723
10,PZPSP,183,2,1297,Correct,10,894
10,YVYVY,15,1,626,Correct,10,892
10,NCNQN,92,3,976,Correct,10,884
10,FCFVF,14,2,693,Correct,10,783
10,ZFZFZ,151,1,712,Correct,10,701
10,NSNSN,194,2,881,Incorrect,10,879
10,YPYFY,16,2,1059,Correct,10,944
10,ZKZKZ,151,1,904,Correct,10,669
10,QZRCR,231,2,848,Correct,10,750
10,YPYVY,222,2,625,Correct,10,937
10,ZNZNZ,151,1,591,Correct,10,827
10,VQVQV,10,3,907,Correct,10,945
10,RVRZR,14,2,658,Correct,10,813
10,KRKSK,185,2,959,Correct,10,844
10,NPNPN,15,1,531,Correct,10,794
10,YPYPY,152,1,723,Correct,10,913
10,VCVYV,161,2,629,Correct,10,653
10,FPFNF,162,2,1112,Correct,10,712
10,QVXVX,221,2,1271,Incorrect,10,732
10,ZVZRZ,222,2,626,Correct,10,703
10,LFLFL,151,1,1087,Correct,10,875
10,VLVLV,152,2,1248,Incorrect,10,769
10,KXQXK,223,1,906,Correct,10,725
10,YQYQY,11,3,897,Correct,10,798
10,YCYCY,13,1,988,Correct,10,728
10,PZPYP,161,2,697,Correct,10,935
10,LPLFL,162,2,1106,Correct,10,913
10,VSVSV,196,1,1242,Correct,10,920
10,VFVYQ,235,,,Incorrect,10,752
10,CZCXC,222,2,626,Correct,10,733
10,PVPCP,162,2,868,Correct,10,720
10,CXCXC,151,1,812,Correct,10,803
10,NZNZN,152,1,1425,Correct,10,948
10,YPYCY,161,2,950,Correct,10,711
10,ZQZQZ,12,3,751,Correct,10,676
11,T,5,3,9019,New Target,11,911
11,KFKFK,151,1,1017,Correct,11,850
11,LZLZL,152,1,816,Correct,11,651
11,PFPVP,161,1,717,Incorrect,11,767
11,FRFPF,162,2,1070,Correct,11,672
11,FZFZF,151,1,557,Correct,11,785
11,VTVTV,7,3,608,Correct,11,775
11,KYKCK,14,2,702,Correct,11,870
11,VPVPV,151,1,738,Correct,11,650
11,XQXQX,191,2,1131,Incorrect,11,802
11,PZPYP,16,2,749,Correct,11,675
11,KXKLK,162,2,1348,Correct,11,880
11,TCNCN,221,1,605,Correct,11,703
11,PZPNP,222,2,589,Correct,11,809
11,RCRPR,162,2,853,Correct,11,664
11,PZPRT,235,2,586,Correct,11,816
11,XFXVX,222,1,902,Incorrect,11,939
11,LTLVL,81,3,1007,Correct,11,730
11,ZCZPZ,14,2,853,Correct,11,719
11,NCNQN,182,2,1594,Correct,11,889
11,XZXNX,16,2,1111,Correct,11,761
11,ZPZPZ,151,1,743,Correct,11,773
11,CFCFC,152,1,852,Correct,11,770
11,VXTRV,233,2,891,Correct,11,771
11,CFCVC,222,2,683,Correct,11,931
11,PYPYP,151,1,964,Correct,11,950
11,FQFYF,173,2,953,Correct,11,719
11,CNCFC,16,2,729,Correct,11,831
11,PTPTP,9,1,873,Incorrect,11,708
11,ZCZCZ,13,1,747,Correct,11,937
11,KZKZK,152,1,664,Correct,11,723
11,RLRVR,161,2,884,Correct,11,870
11,ZRZKZ,162,2,655,Correct,11,690
11,KLKLT,225,1,858,Correct,11,876
11,ZQZQZ,194,3,837,Incorrect,11,715
11,VZVZV,15,1,1023,Correct,11,713
11,RVRZR,161,2,559,Correct,11,819
11,ZPZCZ,162,2,892,Correct,11,934
11,VYVYV,151,1,1061,Correct,11,675
11,RVRVR,152,1,1233,Correct,11,927
11,PTPTP,10,3,809,Correct,11,803
11,PXPXP,13,2,885,Incorrect,11,688
11,KCKCK,152,1,721,Correct,11,653
11,YVYVY,153,1,656,Correct,11,764
11,CYCYC,154,1,677,Correct,11,658
11,XCXCX,155,1,567,Correct,11,682
11,CYCQC,185,2,797,Correct,11,722
11,KCKNK,16,2,871,Correct,11,823
11,VPVPV,151,1,623,Correct,11,755
11,TXFZF,231,2,1008,Correct,11,760
11,NYNVN,222,2,1084,Correct,11,945
11,VQVXV,176,2,967,Correct,11,907
11,ZRZRZ,15,1,719,Correct,11,695
11,VTVZV,111,3,1051,Correct,11,838
11,PXPVP,14,2,682,Correct,11,866
11,FVFVF,151,1,850,Correct,11,866
11,VRVLV,161,2,683,Correct,11,781
11,YCYCY,151,1,550,Correct,11,929
11,XZTZX,223,1,634,Correct,11,765
11,VTVTV,12,3,956,Correct,11,755
12,O,5,3,1408,New Target,12,669
12,VXVLV,161,2,693,Correct,12,865
12,KVKCK,162,2,614,Correct,12,732
12,VLVLV,151,1,584,Correct,12,781
12,ZCZVZ,161,2,683,Correct,12,823
12,KFKFK,151,1,632,Correct,12,845
12,XKXKX,152,1,828,Correct,12,654
12,YXYXY,153,1,598,Correct,12,736
12,FVFVF,154,1,680,Correct,12,797
12,PVPOP,72,3,597,Correct,12,860
12,ZXZYZ,14,2,666,Correct,12,703
12,PXPVP,162,2,618,Correct,12,741
12,ZTZTZ,191,1,654,Correct,12,737
12,CVCKC,16,2,637,Correct,12,811
12,CKCKC,151,1,528,Correct,12,718
12,NPNPN,152,1,547,Correct,12,828
12,ZRZNZ,161,2,692,Correct,12,828
12,OZCZC,221,1,496,Correct,12,888
12,LFLFL,113,1,641,Correct,12,945
12,CXCXC,152,2,639,Incorrect,12,866
12,KPKPK,153,1,690,Correct,12,689
12,FRFKF,161,2,880,Correct,12,785
12,FOFOF,8,3,760,Correct,12,766
12,ZFZFZ,13,1,647,Correct,12,661
12,LKLZO,235,2,1187,Correct,12,857
12,KLKZK,222,2,951,Correct,12,661
12,YXYCY,162,2,628,Correct,12,890
12,LOLOL,9,1,593,Incorrect,12,911
12,XLXLX,13,1,814,Correct,12,870
12,XVXVX,152,1,935,Correct,12,767
12,FTFTF,192,3,729,Incorrect,12,820
12,OXNZN,231,2,657,Correct,12,927
12,CZCZC,113,1,954,Correct,12,917
12,LZLZL,152,1,689,Correct,12,682
12,VLVPV,161,2,667,Correct,12,930
12,VYVYO,225,1,1006,Correct,12,703
12,XKXKX,113,1,822,Correct,12,654
12,RTRTR,193,1,741,Correct,12,727
12,KVKCK,16,2,676,Correct,12,653
12,ROROR,101,3,1014,Correct,12,721
12,PRPRP,13,2,828,Incorrect,12,722
12,LYLVL,161,2,850,Correct,12,863
12,PLPLP,151,1,661,Correct,12,881
12,CTCTC,194,1,1204,Correct,12,835
12,XZXYX,16,2,1147,Correct,12,895
12,NKNKN,151,1,1227,Correct,12,726
12,VLVZV,161,2,1025,Correct,12,935
12,YOYOY,11,3,765,Correct,12,881
12,PZOZP,223,3,898,Incorrect,12,946
12,FYFYF,113,1,979,Correct,12,903
12,ZXZVZ,161,2,985,Correct,12,723
12,VKVZV,162,2,794,Correct,12,843
12,ZTZTZ,195,1,852,Correct,12,787
12,LKLZL,16,2,623,Correct,12,665
12,KCKVK,162,2,1121,Correct,12,736
12,PXPKP,163,2,1408,Correct,12,756
12,KCOZK,233,2,1047,Correct,12,742
12,FKFKF,113,1,1049,Correct,12,716
12,CTCRC,176,2,1023,Correct,12,655
12,NXNXN,15,1,979,Correct,12,771
12,KXKVK,161,2,948,Correct,12,779
12,CPCOC,122,1,886,Incorrect,12,825
13,H,5,3,2945,New Target,13,735
13,VFVNV,151,2,846,Incorrect,13,764
13,YVYVY,152,1,905,Correct,13,726
13,XVXVX,153,1,692,Correct,13,655
13,NRNXN,161,2,1021,Correct,13,939
13,PZPKP,162,2,717,Correct,13,867
13,HLVLV,221,1,837,Correct,13,900
13,CXCZC,222,2,652,Correct,13,801
13,LHLYL,71,3,677,Correct,13,925
13,YKYFY,14,2,738,Correct,13,891
13,YOYRY,171,2,876,Correct,13,827
13,ZKZYZ,16,2,660,Correct,13,758
13,RZRZR,151,1,818,Correct,13,807
13,NFNYN,161,2,1130,Correct,13,800
13,KVKFK,162,2,804,Correct,13,887
13,XFXYX,163,2,786,Correct,13,690
13,LKLVL,164,2,754,Correct,13,653
13,NLNLN,151,1,779,Correct,13,816
13,XCXOX,182,2,1088,Correct,13,949
13,FXFXF,15,1,787,Correct,13,696
13,VHVHV,8,3,1484,Correct,13,806
13,PVPVP,13,1,735,Correct,13,690
13,CRCXC,161,2,984,Correct,13,924
13,NXNXN,151,1,879,Correct,13,657
13,XRXRX,152,1,1058,Correct,13,920
13,YFYXY,161,2,1439,Correct,13,836
13,ZOZOZ,193,2,927,Incorrect,13,811
13,RZRZR,15,1,1079,Correct,13,658
13,FKFKF,152,2,935,Incorrect,13,791
13,PFPFP,153,1,1003,Correct,13,873
13,XYXHX,92,2,681,Incorrect,13,939
13,RZRKR,14,2,983,Correct,13,771
13,FLFLH,225,1,762,Correct,13,775
13,KRKRK,113,1,836,Correct,13,846
13,ZVZNZ,161,2,538,Correct,13,791
13,ZOZOZ,194,2,1039,Incorrect,13,776
13,FZFZF,15,1,851,Correct,13,683
13,FHFKF,101,3,910,Correct,13,693
13,ZXHLZ,233,2,743,Correct,13,727
13,FKFXF,222,2,846,Correct,13,884
13,CFCYC,162,2,595,Correct,13,906
13,ZXZVZ,163,2,1001,Correct,13,651
13,KCKOK,185,2,679,Correct,13,851
13,ZXZVH,235,2,948,Correct,13,873
13,CKCKC,113,1,872,Correct,13,819
13,ZXZCZ,161,2,701,Correct,13,864
13,YVYVY,151,1,743,Correct,13,866
13,RVHVR,223,1,677,Correct,13,778
13,ZRZRZ,113,2,758,Incorrect,13,793
13,ZHZHZ,11,3,733,Correct,13,892
13,VZVZV,13,2,716,Incorrect,13,749
13,HZVRV,231,2,1015,Correct,13,874
13,FVFVF,113,1,635,Correct,13,690
13,RNRCR,161,2,784,Correct,13,669
13,COCOC,196,1,968,Correct,13,838
13,VNVXV,16,2,698,Correct,13,841
13,XHXHX,12,3,763,Correct,13,694
14,G,5,3,1264,New Target,14,879
14,FZFZF,151,1,769,Correct,14,874
14,RPRVR,161,2,686,Correct,14,730
14,XCXCX,151,1,813,Correct,14,804
14,YXYXY,152,1,738,Correct,14,879
14,KZKZK,153,1,699,Correct,14,886
14,RYRKR,161,2,507,Correct,14,754
14,FYFNF,162,2,787,Correct,14,749
14,VKVKV,151,1,781,Correct,14,770
14,KPGPK,223,1,999,Correct,14,786
14,YNYNY,113,2,958,Incorrect,14,707
14,VYVYV,152,1,709,Correct,14,723
14,YCYXY,161,2,623,Correct,14,817
14,LKLGL,72,2,684,Incorrect,14,871
14,VXVXV,13,1,775,Correct,14,866
14,KCKVK,161,2,593,Correct,14,768
14,YKYKY,151,1,831,Correct,14,891
14,RHRXR,171,2,1035,Correct,14,675
14,FVFCF,16,2,636,Correct,14,804
14,YXYGY,82,3,538,Correct,14,799
14,CLCLC,13,1,798,Correct,14,793
14,ZXZCZ,161,2,606,Correct,14,660
14,VLVFV,162,2,563,Correct,14,680
14,CPCPG,225,1,819,Correct,14,908
14,KHKNK,172,2,711,Correct,14,900
14,ZKZVZ,16,2,1046,Correct,14,739
14,YKYLY,162,2,1129,Correct,14,750
14,CNCNC,151,1,918,Correct,14,748
14,PGPGP,9,3,841,Correct,14,819
14,VPVPV,13,1,815,Correct,14,883
14,FXGRF,233,2,933,Correct,14,871
14,CYCVC,222,2,1054,Correct,14,651
14,FNFNF,151,1,1181,Correct,14,803
14,KFKCK,161,2,545,Correct,14,945
14,ZFZHZ,183,2,726,Correct,14,780
14,NXNXN,15,1,1120,Correct,14,842
14,FNFNF,152,1,562,Correct,14,661
14,LXLNG,235,2,742,Correct,14,773
14,XKXVX,222,1,833,Incorrect,14,793
14,ZHZHZ,194,2,1253,Incorrect,14,914
14,PFPFP,15,1,802,Correct,14,737
14,ZYZYZ,152,1,652,Correct,14,765
14,XPXVX,161,2,842,Correct,14,844
14,YCYCY,151,1,927,Correct,14,880
14,RGRGR,10,3,945,Correct,14,837
14,VRVRV,13,1,723,Correct,14,798
14,PKPNP,161,2,1009,Correct,14,699
14,XGXGX,11,3,694,Correct,14,704
14,GZYVY,231,1,1289,Incorrect,14,650
14,VCVNV,222,2,909,Correct,14,863
14,VHVHV,195,1,1273,Correct,14,650
14,LXLNL,16,2,804,Correct,14,709
14,GKPKP,221,1,1440,Correct,14,761
14,XRXPX,222,2,875,Correct,14,927
14,XNXNX,151,1,613,Correct,14,675
14,KHKNK,176,2,953,Incorrect,14,692
14,RZRZR,15,1,786,Correct,14,650
14,CGCFC,121,3,985,Correct,14,877
15,A,5,3,2331,New Target,15,865
15,XRXFX,161,2,516,Correct,15,838
15,RXRKR,162,2,1179,Correct,15,733
15,YRYRY,151,1,584,Correct,15,674
15,XPXPX,152,1,619,Correct,15,718
15,RPRPR,153,1,643,Correct,15,654
15,NCNCN,154,2,818,Incorrect,15,773
15,RXRZR,161,2,752,Correct,15,683
15,NANAN,7,1,798,Incorrect,15,655
15,KCKYK,14,2,1413,Correct,15,833
15,XKXFX,162,2,1159,Correct,15,800
15,ZLZKZ,163,2,646,Correct,15,749
15,VCVZV,164,2,773,Correct,15,781
15,XCXVX,165,2,717,Correct,15,887
15,LKLZA,235,2,902,Correct,15,832
15,NCNCN,113,1,1070,Correct,15,733
15,YGYGY,191,2,1169,Incorrect,15,696
15,VLVLV,15,1,669,Correct,15,763
15,XRXRX,152,1,1008,Correct,15,729
15,KAKPK,81,3,902,Correct,15,667
15,YZAZY,233,2,697,Correct,15,855
15,CFCFC,113,1,787,Correct,15,833
15,VNVLV,161,2,1353,Correct,15,942
15,KPKVK,162,2,690,Correct,15,689
15,NCNRN,163,2,624,Correct,15,802
15,FGFGF,192,1,1348,Correct,15,667
15,RCRYR,16,2,778,Correct,15,749
15,KRKCK,162,2,849,Correct,15,882
15,CRCRC,151,1,743,Correct,15,821
15,XPAPX,223,2,887,Incorrect,15,762
15,LPLXL,222,1,744,Incorrect,15,898
15,CGCVC,173,2,1134,Correct,15,931
15,FKFZF,16,2,950,Correct,15,944
15,CACAC,9,3,1197,Correct,15,682
15,XCXCX,13,1,731,Correct,15,727
15,AXRXR,221,1,1097,Correct,15,700
15,NKNRN,222,2,937,Correct,15,737
15,KNKFK,162,2,1041,Correct,15,743
15,KAKAK,10,3,1070,Correct,15,869
15,ZCZRZ,14,2,675,Correct,15,674
15,RPRPR,151,1,861,Correct,15,927
15,NCNCN,152,1,1084,Correct,15,663
15,RYRGR,184,2,1072,Correct,15,729
15,VPVPV,15,1,701,Correct,15,852
15,RCRCA,225,2,826,Incorrect,15,847
15,KXKPK,222,2,851,Correct,15,829
15,NPNPN,151,1,681,Correct,15,864
15,YCYCY,152,1,1075,Correct,15,848
15,PXPAP,112,2,948,Incorrect,15,711
15,ZCZNZ,14,2,732,Correct,15,686
15,KYKGK,185,1,1141,Incorrect,15,920
15,ANLPL,231,2,1364,Correct,15,755
15,CXCPC,222,2,979,Correct,15,899
15,YRYRY,151,1,817,Correct,15,903
15,LGLGL,196,1,747,Correct,15,746
15,VYVLV,16,2,1075,Correct,15,855
15,KVKVK,151,1,1154,Correct,15,794
15,RKRKR,152,1,923,Correct,15,868
15,VXVXV,153,1,753,Correct,15,764
15,XAXAX,12,3,859,Correct,15,894
