Trial No,Stimulus,Trigger,Response,Response Time(ms),Correct,Block,Fixation Duration
Practice
OT Practice
1,SKSKS,15,2,1236,False,0,666
1,DLDUD,16,,,False,0,707
1,PDPGP,16,1,1203,False,0,767
1,MWMWM,15,2,1144,False,0,816
1,FTFTF,15,,,False,0,750
1,AXAMA,16,,,False,0,890
1,RYRGR,16,2,1516,Correct,0,866
1,DODOD,15,2,1013,False,0,788
1,QTQAQ,16,2,886,Correct,0,715
1,YEYEY,15,2,1450,False,0,701
2,GYGDG,16,1,1016,False,0,844
2,SWSWS,15,2,854,False,0,801
2,HLHUH,16,2,1211,Correct,0,756
2,DEDED,15,2,851,False,0,773
2,ZPZOZ,16,2,984,Correct,0,813
2,ATATA,15,2,792,False,0,822
2,QOQOQ,15,2,1115,False,0,888
2,FPFGF,16,2,994,Correct,0,875
2,TRTET,16,2,1332,Correct,0,791
2,DQDQD,15,1,807,Correct,0,777
4,PLPLP,15,2,708,False,0,880
4,ATAIA,16,1,973,False,0,770
4,SKSGS,16,2,1071,Correct,0,737
4,ZYZYZ,15,1,711,Correct,0,889
4,QSQSQ,15,1,850,Correct,0,806
4,TZTDT,16,2,657,Correct,0,945
4,JYJGJ,16,2,635,Correct,0,772
4,DYDYD,15,1,755,Correct,0,876
4,LTLCL,16,2,558,Correct,0,727
4,FQFEF,16,2,622,Correct,0,753
1,SKSKS,15,1,878,Correct,0,849
1,DLDUD,16,2,690,Correct,0,826
1,PDPGP,16,2,793,Correct,0,887
1,MWMWM,15,2,1069,False,0,858
1,FTFTF,15,2,934,False,0,859
1,AXAMA,16,2,921,Correct,0,775
1,RYRGR,16,1,765,False,0,736
1,DODOD,15,2,575,False,0,883
1,QTQAQ,16,2,1016,Correct,0,937
1,YEYEY,15,1,1066,Correct,0,702
2,GYGDG,16,2,1218,Correct,0,653
2,SWSWS,15,1,1082,Correct,0,772
2,HLHUH,16,2,788,Correct,0,785
2,DEDED,15,1,827,Correct,0,755
2,ZPZOZ,16,2,709,Correct,0,704
2,ATATA,15,1,874,Correct,0,904
2,QOQOQ,15,1,922,Correct,0,889
2,FPFGF,16,2,798,Correct,0,713
2,TRTET,16,2,1125,Correct,0,752
2,DQDQD,15,1,911,Correct,0,772
AT Practice
1,TKTKT,15,1,1122,Correct,0,850
1,SLSUS,16,2,762,Correct,0,779
1,VZVGV,7,1,999,False,0,705
1,XWXZX,7,3,1052,Correct,0,655
1,ATATA,15,1,1126,Correct,0,888
1,HXZMH,16,2,724,Correct,0,726
1,TZTZT,7,3,665,Correct,0,886
1,UOUOU,15,1,801,Correct,0,892
1,ZTWAW,16,2,949,Correct,0,843
1,RZRER,7,3,1061,Correct,0,805
2,JYJDJ,16,2,994,Correct,0,719
2,DWDWD,15,1,909,Correct,0,893
2,GNGNG,7,3,654,Correct,0,837
2,NEZEZ,16,2,1205,False,0,889
2,RNROR,7,2,1024,False,0,705
2,QTQNQ,7,3,938,Correct,0,869
2,HOHON,15,1,1102,Correct,0,748
2,KPKGK,16,2,1116,Correct,0,717
2,DRDED,16,2,740,Correct,0,901
2,LNLNL,7,3,569,Correct,0,892
4,GLGLG,15,2,851,False,0,851
4,DTDID,16,2,914,Correct,0,906
4,SMSGS,16,2,1109,Correct,0,720
4,ZFZYZ,7,2,1117,False,0,855
4,TSTFT,7,2,913,False,0,935
4,OFOFO,7,1,1028,False,0,731
4,WYFGW,16,2,883,Correct,0,777
4,WYWYW,15,2,1267,False,0,853
4,MFMCM,7,2,1240,False,0,787
4,HQHEH,16,2,1298,Correct,0,695
1,TKTKT,15,1,932,Correct,0,922
1,SLSUS,16,2,770,Correct,0,869
1,VZVGV,7,3,886,Correct,0,877
1,XWXZX,7,3,903,Correct,0,860
1,ATATA,15,1,1075,Correct,0,933
1,HXZMH,16,2,1332,Correct,0,685
1,TZTZT,7,3,635,Correct,0,684
1,UOUOU,15,1,964,Correct,0,921
1,ZTWAW,16,2,931,Correct,0,824
1,RZRER,7,3,671,Correct,0,867
Trials
1,D,5,3,8253,New Target,1,788
1,BNBYB,161,,,Incorrect,1,891
1,FBFBF,151,1,925,Correct,1,820
1,RKRKR,152,1,995,Correct,1,779
1,QSQNQ,161,2,874,Correct,1,688
1,CTCFC,162,2,877,Correct,1,911
1,PDPDP,7,3,877,Correct,1,944
1,OPOFO,14,1,1393,Incorrect,1,852
1,HLHNH,162,2,1120,Correct,1,944
1,MFMFM,151,1,1274,Correct,1,889
1,BTBTB,152,1,948,Correct,1,697
1,MCMPD,235,2,909,Correct,1,690
1,BMBFB,222,2,1060,Correct,1,774
1,NTNZN,162,2,738,Correct,1,829
1,MXMRM,163,2,947,Correct,1,708
1,APABA,164,2,999,Correct,1,737
1,FMDMF,223,2,1002,Incorrect,1,781
1,QPQPQ,113,1,811,Correct,1,731
1,VQVMV,161,2,849,Correct,1,889
1,RERPR,162,2,810,Correct,1,802
1,KVKVK,151,1,959,Correct,1,852
1,AKAHA,161,2,705,Correct,1,791
1,VDVDV,8,1,929,Incorrect,1,769
1,DUGUG,221,1,1170,Correct,1,869
1,AFAFA,113,1,1005,Correct,1,850
1,GYGYG,152,1,868,Correct,1,679
1,VXVSV,161,2,693,Correct,1,910
1,DOWGW,231,2,1013,Correct,1,743
1,QYQYQ,113,1,793,Correct,1,772
1,ODONO,91,2,854,Incorrect,1,762
1,MSMSM,13,1,976,Correct,1,767
1,GYGYG,152,1,936,Correct,1,675
1,UMUMU,153,1,1083,Correct,1,832
1,BZBZB,154,1,1127,Correct,1,846
1,NTNBN,161,2,853,Correct,1,763
1,GNDYG,233,2,959,Correct,1,774
1,OCOSO,222,2,870,Correct,1,809
1,BHBFB,162,2,711,Correct,1,882
1,QCQBQ,163,2,593,Correct,1,864
1,LQLQL,151,1,844,Correct,1,925
1,ZDZDZ,10,3,903,Correct,1,744
1,QNQZQ,14,2,828,Correct,1,816
1,CSCYC,162,2,920,Correct,1,740
1,RCRLR,163,2,972,Correct,1,866
1,FRFRF,151,1,1061,Correct,1,697
1,WFWFW,152,1,961,Correct,1,950
1,QOQLQ,161,2,697,Correct,1,687
1,AWAQA,162,2,803,Correct,1,886
1,EAEAE,151,1,879,Correct,1,785
1,AGAUA,161,2,740,Correct,1,808
1,YMYMY,151,1,965,Correct,1,670
1,XQXQX,152,1,851,Correct,1,950
1,SHSGS,161,2,741,Correct,1,928
1,PDPDP,11,3,876,Correct,1,947
1,ZGZGZ,13,1,1010,Correct,1,815
1,OXOXO,152,1,1012,Correct,1,735
1,LYLYL,153,1,906,Correct,1,662
1,NKNKD,225,1,704,Correct,1,755
1,GNGNG,113,1,655,Correct,1,750
1,OYOBO,161,2,889,Correct,1,948
1,SOSOS,151,1,750,Correct,1,777
1,VHVHV,152,1,839,Correct,1,832
1,OKOXO,161,2,812,Correct,1,904
1,EZEZE,151,1,917,Correct,1,863
1,LDLDL,12,3,582,Correct,1,840
2,U,5,3,1285,New Target,2,903
2,BVBEB,161,2,1162,Correct,2,736
2,FBFBF,151,1,866,Correct,2,944
2,RFRFR,152,2,1514,Incorrect,2,781
2,NBNKN,161,2,1096,Correct,2,816
2,MKMNM,162,2,1033,Correct,2,773
2,QXQXQ,151,1,815,Correct,2,719
2,MQMYM,161,2,740,Correct,2,866
2,TGTPT,162,2,783,Correct,2,765
2,XOXOX,151,1,951,Correct,2,905
2,CUCUC,7,3,811,Correct,2,757
2,RFRFR,13,1,899,Correct,2,863
2,VYVSV,161,2,775,Correct,2,773
2,VDVDV,191,1,805,Correct,2,680
2,GKGQG,15,2,907,Correct,2,864
2,SCSCS,151,1,689,Correct,2,743
2,CTCUC,82,3,1024,Correct,2,798
2,RCRCR,13,1,836,Correct,2,669
2,BOBXB,161,2,719,Correct,2,716
2,FMFAF,162,2,1115,Correct,2,840
2,BEBAB,163,2,740,Correct,2,849
2,PWPWP,151,1,829,Correct,2,924
2,UQCKC,231,2,968,Correct,2,759
2,OCOCO,113,1,878,Correct,2,703
2,TNTNT,152,1,1188,Correct,2,780
2,QCQGQ,161,,,Incorrect,2,828
2,WVWVW,151,2,1196,Incorrect,2,716
2,TQTQT,152,1,853,Correct,2,815
2,FOFOF,225,1,703,Correct,2,698
2,WVWFW,222,2,1076,Correct,2,664
2,SWSWS,151,1,917,Correct,2,679
2,FYFCF,161,2,1199,Correct,2,704
2,SUSWS,91,2,1031,Incorrect,2,866
2,CACHC,14,2,1156,Correct,2,887
2,VDVKV,172,2,705,Correct,2,815
2,YCYCY,15,1,1035,Correct,2,920
2,NMNTN,161,1,939,Incorrect,2,801
2,XOUKX,233,2,1515,Correct,2,924
2,BPBPB,113,1,1526,Correct,2,942
2,MRMRM,152,,,Incorrect,2,923
2,XMXMX,153,1,1109,Correct,2,924
2,AUAHA,101,1,1366,Incorrect,2,668
2,XKXEU,235,2,792,Correct,2,865
2,TFTFT,113,1,887,Correct,2,679
2,MDMDM,193,1,943,Correct,2,751
2,WYWMW,16,2,1252,Correct,2,731
2,AZUZA,223,1,1273,Correct,2,893
2,KEKHK,222,2,1355,Correct,2,891
2,LALAL,151,3,1195,Incorrect,2,870
2,CWCDC,184,2,966,Incorrect,2,842
2,SGSTS,16,2,951,Correct,2,807
2,PXPXP,151,2,906,Incorrect,2,811
2,GRGYG,161,2,1090,Correct,2,729
2,PUPOP,111,2,830,Incorrect,2,868
2,RNRNR,14,1,912,Correct,2,935
2,KDKDK,195,1,1106,Correct,2,847
2,KTKTK,15,1,1359,Correct,2,842
2,OROKO,161,,,Incorrect,2,781
2,UNANA,221,1,1412,Correct,2,680
2,TATAT,113,1,1089,Correct,2,918
2,AWAWA,152,1,1005,Incorrect,2,833
2,RDRDR,196,1,880,Correct,2,837
2,FCFCF,15,1,727,Correct,2,775
2,ZMZMZ,152,1,770,Correct,2,788
2,BUBUB,12,3,947,Correct,2,661
3,E,5,3,1466,New Target,3,743
3,YZYZY,151,1,1058,Correct,3,904
3,VFVNV,161,2,782,Correct,3,847
3,KAKAK,151,1,906,Correct,3,799
3,TKTKT,152,1,725,Correct,3,670
3,WHWTW,161,2,915,Correct,3,751
3,QEQFQ,71,,,Incorrect,3,914
3,XNXNX,13,1,1005,Correct,3,769
3,TXTXT,152,1,975,Correct,3,770
3,GLGNG,161,2,999,Correct,3,653
3,CUCTC,171,2,1038,Correct,3,673
3,FAFQF,16,2,893,Correct,3,857
3,ZLZLZ,151,1,1137,Correct,3,907
3,YZYZY,152,1,718,Correct,3,825
3,CYCYC,153,1,851,Correct,3,932
3,HUHUH,192,1,1047,Correct,3,878
3,OSORO,16,2,1128,Correct,3,795
3,YOYOY,151,1,788,Correct,3,895
3,CECEC,8,3,904,Correct,3,875
3,VNENV,223,2,1100,Incorrect,3,893
3,KQKFK,222,2,1009,Correct,3,657
3,XLXLE,225,1,1054,Correct,3,937
3,QFQUQ,183,2,1080,Correct,3,921
3,SWSLS,16,2,1123,Correct,3,877
3,NBNPN,162,2,870,Correct,3,717
3,SGSGS,151,2,1366,Incorrect,3,869
3,FBFBF,152,1,1067,Correct,3,731
3,PFPFP,153,1,1035,Correct,3,764
3,AGASA,161,2,1372,Correct,3,831
3,KEKEK,9,3,826,Correct,3,934
3,CWCOC,14,2,833,Correct,3,863
3,HXHXH,151,1,1068,Correct,3,731
3,NUNZN,174,2,782,Correct,3,791
3,QMQVQ,16,2,904,Correct,3,753
3,SQSQS,151,1,893,Correct,3,791
3,ERNFN,231,2,970,Incorrect,3,660
3,AQANA,222,2,1420,Correct,3,863
3,OBOEO,102,3,1193,Correct,3,871
3,SYSXS,14,2,996,Correct,3,844
3,QBQHQ,162,2,794,Correct,3,740
3,XQXQX,151,1,1049,Correct,3,653
3,KUKFK,175,2,740,Correct,3,944
3,RKRKR,15,1,898,Correct,3,731
3,GFGFG,152,1,978,Correct,3,903
3,YBYVY,161,2,793,Correct,3,705
3,SPSTS,162,2,752,Correct,3,862
3,AQAQA,151,1,794,Correct,3,768
3,EPVPV,221,2,817,Incorrect,3,881
3,CQCEC,112,2,763,Incorrect,3,665
3,RFRCR,14,2,1026,Correct,3,912
3,CPCVC,162,2,1028,Correct,3,727
3,RXRCR,163,2,878,Correct,3,936
3,TNTLT,164,2,1074,Correct,3,897
3,BSBSB,151,1,1149,Correct,3,924
3,ZBZBZ,152,1,746,Correct,3,780
3,OYOUO,186,2,828,Correct,3,664
3,AKAOA,16,2,868,Correct,3,817
3,YQEWY,233,2,667,Correct,3,838
3,ZMZMZ,113,1,921,Correct,3,763
3,SWSTS,161,2,989,Correct,3,782
3,MFMQE,235,2,887,Correct,3,687
3,RSRLR,222,2,1165,Correct,3,723
3,QEQWQ,121,3,1193,Correct,3,829
4,K,5,3,3807,New Target,4,747
4,CACHC,161,2,1175,Correct,4,720
4,RWRCR,162,,,Incorrect,4,717
4,FOFVF,163,2,885,Correct,4,655
4,LGLGL,151,1,909,Correct,4,787
4,PLPLP,152,1,962,Correct,4,766
4,NPNPN,153,2,592,Incorrect,4,921
4,SGSZS,161,2,815,Correct,4,833
4,DNDMD,162,2,1177,Correct,4,733
4,OCOAK,235,2,934,Correct,4,789
4,VYVYV,113,1,1220,Correct,4,909
4,RLRLR,152,1,1024,Correct,4,762
4,DKDKD,7,1,806,Incorrect,4,695
4,ZLZLZ,13,1,831,Correct,4,828
4,FZFZF,152,1,618,Correct,4,721
4,CFCFC,153,1,679,Correct,4,870
4,OZOZO,154,1,553,Correct,4,762
4,XEXEX,191,1,700,Correct,4,776
4,NVNFN,16,2,868,Correct,4,926
4,AYAYA,151,1,699,Correct,4,767
4,BNBVB,161,2,939,Correct,4,660
4,AHKXA,233,2,1404,Correct,4,893
4,WFWFW,113,1,929,Correct,4,776
4,SNSNS,152,1,868,Correct,4,786
4,FKFMF,81,3,828,Correct,4,779
4,DZDYD,14,2,1159,Correct,4,734
4,GXGDG,162,2,1146,Correct,4,678
4,AYAYK,225,1,939,Correct,4,697
4,FPFGF,222,2,706,Correct,4,685
4,WRWRW,151,1,980,Correct,4,658
4,YPYEY,182,2,1012,Correct,4,873
4,SQSQS,15,1,816,Correct,4,938
4,WZWPW,161,2,743,Correct,4,829
4,CKCKC,9,3,980,Correct,4,789
4,BWBVB,14,2,922,Correct,4,738
4,HMHMH,151,1,847,Correct,4,804
4,VEVNV,173,2,658,Correct,4,923
4,GMGVG,16,2,685,Correct,4,922
4,XHXKX,102,3,988,Correct,4,769
4,QXQRQ,14,2,827,Correct,4,893
4,LQLQL,151,1,874,Correct,4,670
4,ALELA,223,1,788,Correct,4,751
4,TPTKT,222,2,702,Correct,4,682
4,GEGEG,194,1,714,Correct,4,803
4,ZNZNZ,15,1,711,Correct,4,732
4,YZYZY,152,1,776,Correct,4,719
4,SYSYS,153,1,669,Correct,4,945
4,ZSZSZ,221,1,677,Correct,4,929
4,LALGL,222,2,804,Correct,4,836
4,CYCTC,162,2,1002,Correct,4,861
4,WEWEW,195,1,938,Correct,4,786
4,CHCSC,16,2,859,Correct,4,925
4,GWGXG,162,2,834,Correct,4,786
4,FGFGF,151,1,954,Correct,4,786
4,QWQKQ,112,3,1060,Correct,4,672
4,OQOFO,14,2,1000,Correct,4,681
4,PMPEP,186,2,973,Correct,4,652
4,WBWPW,16,2,803,Correct,4,711
4,KCDHD,231,2,650,Correct,4,836
4,RSRWR,222,2,765,Correct,4,681
4,HGHGH,151,1,1102,Correct,4,666
4,SKSKS,12,3,1054,Correct,4,691
5,L,5,3,1687,New Target,5,927
5,PDPDP,151,1,995,Correct,5,752
5,WAWAW,152,1,853,Correct,5,810
5,HWHWH,153,1,872,Correct,5,895
5,SHSHS,154,1,755,Correct,5,654
5,BRBWB,161,2,891,Correct,5,895
5,FPFBF,162,2,912,Correct,5,850
5,GAGAG,151,1,828,Correct,5,682
5,QVQGQ,161,2,660,Correct,5,857
5,CLCLC,7,3,685,Correct,5,924
5,XWXWX,13,1,845,Correct,5,733
5,AUAUA,152,1,753,Correct,5,859
5,CKCKC,191,1,930,Correct,5,668
5,FNFCF,16,2,891,Correct,5,685
5,UHUQU,162,2,855,Correct,5,676
5,FZFZF,151,1,781,Correct,5,799
5,THLHT,223,1,1195,Correct,5,717
5,CUCLC,82,3,1044,Correct,5,841
5,BSBSB,13,1,911,Correct,5,929
5,FDFBF,161,2,983,Correct,5,794
5,LXRXR,221,1,1431,Correct,5,885
5,ZOZNZ,222,2,829,Correct,5,714
5,UZUZU,151,3,1218,Incorrect,5,866
5,AQATA,161,2,1113,Correct,5,911
5,UNUPU,162,2,937,Correct,5,764
5,RVRKR,182,2,747,Correct,5,853
5,URURU,15,1,1316,Correct,5,824
5,VLVLV,9,3,845,Correct,5,746
5,DXDVD,14,2,1094,Correct,5,737
5,PZPZP,151,1,753,Correct,5,873
5,LXUMU,231,2,846,Correct,5,727
5,AKADA,173,2,1288,Incorrect,5,763
5,HYHYH,15,1,881,Correct,5,720
5,AVAVA,152,1,683,Correct,5,735
5,TUTUT,153,1,633,Correct,5,788
5,XYXWX,161,2,829,Correct,5,668
5,TKTDT,174,2,727,Correct,5,805
5,NXNYN,16,2,1142,Correct,5,706
5,USUCU,162,2,704,Correct,5,877
5,ZMZMZ,151,2,579,Incorrect,5,669
5,WRWAW,161,2,715,Correct,5,680
5,GWGXG,162,2,709,Correct,5,871
5,MUMYL,235,2,869,Correct,5,765
5,CNCNC,113,1,905,Correct,5,867
5,RLRLR,10,3,862,Correct,5,774
5,UAUWU,14,2,928,Correct,5,934
5,FXLRF,233,2,747,Correct,5,672
5,PFPFP,113,1,1047,Correct,5,824
5,HPHPH,152,1,739,Correct,5,897
5,GKGKG,195,1,927,Correct,5,837
5,ZUZTZ,16,2,742,Correct,5,705
5,AVASA,162,2,700,Correct,5,925
5,PRPRP,151,1,979,Correct,5,948
5,YPYPY,152,1,647,Correct,5,758
5,ZLZOZ,111,2,633,Incorrect,5,729
5,WMWSW,14,2,962,Correct,5,928
5,RZRXR,162,2,815,Correct,5,937
5,QWQWQ,151,1,828,Correct,5,726
5,ZKZKZ,196,1,769,Correct,5,835
5,CVCVL,225,1,890,Incorrect,5,828
5,NMNMN,113,1,1071,Correct,5,786
5,TRTGT,161,2,1290,Correct,5,901
5,CTCTC,151,1,718,Correct,5,927
5,RKRLR,122,3,1102,Correct,5,701
6,B,5,3,1700,New Target,6,917
6,YMYGY,161,2,959,Correct,6,734
6,HUHRH,162,2,737,Correct,6,845
6,WHWHW,151,1,969,Correct,6,837
6,MGMRM,161,2,858,Correct,6,855
6,ZVZWZ,162,2,919,Correct,6,657
6,RCRTR,163,2,535,Correct,6,890
6,DSDRD,164,2,623,Correct,6,725
6,VTBDV,233,2,700,Correct,6,892
6,DSDHD,222,2,772,Correct,6,940
6,QEQEQ,151,1,817,Correct,6,725
6,XOXQX,161,2,767,Correct,6,693
6,RARBR,72,3,792,Correct,6,822
6,GMGMG,13,1,706,Correct,6,791
6,ELERE,171,2,658,Correct,6,669
6,HZHUH,16,2,768,Correct,6,835
6,RHRVR,162,2,592,Correct,6,670
6,YBYBY,8,3,888,Correct,6,685
6,PYPVP,14,2,861,Correct,6,844
6,TLTLT,192,1,730,Correct,6,662
6,QTQTQ,15,1,722,Correct,6,916
6,NXNVN,161,2,542,Correct,6,813
6,QNQNQ,151,1,705,Correct,6,766
6,FUFHF,161,2,720,Correct,6,795
6,YVYFB,235,2,689,Incorrect,6,670
6,WQWSW,222,2,621,Correct,6,757
6,HNHLH,193,2,763,Incorrect,6,883
6,OSOTO,16,2,649,Correct,6,719
6,GWGOG,162,2,635,Correct,6,707
6,UBUBU,9,3,763,Correct,6,810
6,CWCWC,13,1,693,Correct,6,771
6,OCOEO,161,2,913,Correct,6,829
6,MNMNM,151,1,738,Correct,6,946
6,XLXLX,194,1,690,Correct,6,662
6,AYAYA,15,1,652,Correct,6,853
6,FUFAF,161,2,1006,Correct,6,769
6,ANAQA,162,2,867,Correct,6,678
6,BUPWP,231,2,868,Correct,6,929
6,WSWSW,113,1,912,Correct,6,661
6,FRFRF,152,1,981,Correct,6,847
6,AUAUA,153,1,731,Correct,6,702
6,GMGCG,161,2,1015,Correct,6,805
6,HLHWH,175,2,795,Correct,6,687
6,PQBQP,223,2,1123,Incorrect,6,913
6,AZABA,102,3,749,Correct,6,856
6,CWCVC,14,2,728,Correct,6,835
6,FAFAF,151,1,820,Correct,6,877
6,VMVSV,161,2,668,Correct,6,753
6,GBGBG,11,3,846,Correct,6,739
6,FOFNF,14,2,634,Correct,6,674
6,DSDSD,151,1,760,Correct,6,913
6,YDYDY,152,1,718,Correct,6,846
6,FOFOF,153,1,749,Correct,6,752
6,CHCHB,225,2,1064,Incorrect,6,796
6,ZCZCZ,113,1,726,Correct,6,861
6,DZDGD,161,2,978,Correct,6,815
6,MLMEM,176,2,799,Correct,6,895
6,PXPXP,15,1,680,Correct,6,845
6,QYQYQ,152,1,789,Correct,6,840
6,GRGCG,161,2,686,Correct,6,748
6,QVQVQ,151,1,652,Correct,6,766
6,XYXNX,161,2,700,Correct,6,754
6,BHMHM,221,1,1064,Correct,6,806
6,CBCBC,12,3,706,Correct,6,884
7,W,5,3,6645,New Target,7,876
7,QKQKQ,151,1,928,Correct,7,923
7,DUDQD,161,2,937,Correct,7,715
7,OKOKO,151,1,641,Correct,7,715
7,EOEOE,152,1,976,Correct,7,822
7,URUPU,161,2,751,Correct,7,918
7,GMGAG,162,2,697,Correct,7,788
7,HVWDH,233,2,704,Correct,7,915
7,MHMHM,113,1,753,Correct,7,721
7,YXYVY,161,2,657,Correct,7,653
7,FNFNF,151,1,721,Correct,7,802
7,AWAWA,7,3,642,Correct,7,701
7,ZAZAZ,13,1,721,Correct,7,841
7,OYOYO,152,1,769,Correct,7,710
7,SQSQS,153,1,688,Correct,7,680
7,OSOSO,154,1,584,Correct,7,925
7,FCFBF,181,2,693,Correct,7,910
7,EUEUE,15,1,686,Correct,7,933
7,CYCGC,161,2,716,Correct,7,735
7,SZSUS,162,2,1156,Correct,7,918
7,OFOFO,151,1,1106,Correct,7,754
7,RVRUR,161,2,720,Correct,7,758
7,ZBZBZ,192,1,846,Correct,7,744
7,UCUTU,16,2,998,Correct,7,753
7,NWNWN,8,1,897,Incorrect,7,947
7,XNXUX,14,2,1121,Correct,7,933
7,CXCNC,162,2,769,Correct,7,791
7,AUAUW,225,1,1022,Correct,7,729
7,HEHEH,113,1,1069,Correct,7,859
7,UFWFU,223,3,958,Incorrect,7,758
7,HVHEH,222,2,789,Correct,7,758
7,YBYBY,193,1,911,Correct,7,790
7,OYOYO,15,1,910,Correct,7,945
7,TMTWT,91,3,1022,Correct,7,923
7,HTHTH,13,1,1070,Correct,7,848
7,UHUHU,152,1,751,Correct,7,740
7,EVEBE,184,2,869,Incorrect,7,904
7,HZHMH,16,2,832,Correct,7,776
7,VHVCV,162,2,684,Correct,7,662
7,WAGDG,231,2,531,Correct,7,918
7,PFPFP,113,1,1047,Correct,7,784
7,OQOQO,152,1,1059,Correct,7,898
7,TWTWT,10,1,852,Incorrect,7,813
7,VKVDV,14,2,778,Correct,7,800
7,WPAPA,221,1,930,Correct,7,912
7,HBHBH,195,1,1348,Correct,7,852
7,ZMZAZ,16,2,993,Correct,7,912
7,SYSYS,151,1,880,Correct,7,872
7,FZFXF,161,2,918,Correct,7,803
7,SMSMS,151,1,937,Correct,7,879
7,XOXOX,152,1,898,Correct,7,687
7,FWFWF,11,3,823,Correct,7,803
7,ENEBE,186,2,854,Correct,7,693
7,ZVZGZ,16,2,959,Correct,7,737
7,EZEZE,151,1,901,Correct,7,743
7,TOTEW,235,2,1181,Correct,7,700
7,PDPDP,113,1,890,Correct,7,771
7,TKTWT,122,3,1330,Correct,7,723
8,M,5,3,6067,New Target,8,880
8,VYVNV,161,2,993,Correct,8,926
8,KLKTK,162,2,1287,Correct,8,659
8,NQNQN,151,2,1444,Incorrect,8,711
8,VHVEV,161,2,857,Correct,8,717
8,XNXNM,225,1,834,Correct,8,749
8,USUVU,222,2,667,Correct,8,777
8,KRKZK,162,2,729,Correct,8,863
8,TMTET,71,3,1112,Correct,8,710
8,GFGFG,13,1,946,Correct,8,913
8,OPODO,161,2,1106,Correct,8,940
8,KCKCK,151,1,1231,Correct,8,856
8,VTVTV,152,1,1022,Correct,8,663
8,LSLSL,153,1,899,Correct,8,710
8,DLDLD,154,1,723,Correct,8,925
8,NYNYN,155,1,816,Correct,8,809
8,DCMAD,233,2,1397,Correct,8,862
8,TDTDT,113,1,718,Correct,8,677
8,GVGRG,161,2,773,Correct,8,915
8,ZUZUZ,151,1,751,Correct,8,873
8,OGOVO,161,2,973,Correct,8,728
8,PWPTP,171,2,849,Correct,8,763
8,KLKDM,235,2,1322,Correct,8,710
8,SMSMS,8,3,929,Correct,8,767
8,PRPSP,14,2,1148,Correct,8,672
8,DVDYD,162,2,869,Correct,8,829
8,PXPMP,92,3,782,Correct,8,727
8,GDGLG,14,2,726,Correct,8,798
8,SWSWS,192,1,787,Correct,8,823
8,GDGLG,16,2,664,Correct,8,851
8,MTCYC,231,2,691,Correct,8,888
8,GSGSG,113,1,884,Correct,8,689
8,YQYTY,161,2,652,Correct,8,731
8,ZLZPZ,162,2,699,Correct,8,824
8,HZHZH,151,1,771,Correct,8,911
8,MSOSO,221,1,887,Correct,8,936
8,HWHWH,193,1,1004,Correct,8,850
8,PYPAP,16,2,861,Correct,8,823
8,SPSVS,162,2,883,Correct,8,772
8,XLXLX,151,1,823,Correct,8,884
8,YMYMY,10,3,1055,Correct,8,767
8,HYHYH,13,1,778,Correct,8,935
8,OWOGO,174,2,799,Correct,8,931
8,PHPOP,16,2,740,Correct,8,865
8,NPNSN,162,2,830,Correct,8,845
8,HVMVH,223,2,825,Incorrect,8,739
8,THTFT,222,2,672,Correct,8,831
8,STSTS,151,1,763,Correct,8,923
8,AGAMA,112,3,1271,Correct,8,765
8,PEPEP,13,1,816,Correct,8,803
8,ZWZWZ,195,1,842,Correct,8,698
8,ODOZO,16,2,1426,Correct,8,796
8,LRLOL,162,2,1126,Correct,8,774
8,GZGZG,151,2,645,Incorrect,8,761
8,TGTGT,152,1,1124,Correct,8,796
8,CUCSC,161,2,813,Correct,8,919
8,SCSCS,151,1,962,Correct,8,894
8,AWAWA,196,1,1113,Correct,8,753
8,NLNLN,15,1,709,Correct,8,846
8,VNVNV,152,1,648,Correct,8,670
8,GMGMG,12,3,612,Correct,8,864
9,S,5,3,1959,New Target,9,796
9,NBNBN,151,1,910,Correct,9,699
9,KVKZK,161,2,742,Correct,9,747
9,LBLBL,151,1,788,Correct,9,732
9,XLXLX,152,1,799,Correct,9,763
9,ZXZXZ,153,1,651,Correct,9,756
9,KNKZK,161,2,763,Correct,9,774
9,TQTAT,162,2,679,Correct,9,719
9,CLCUC,163,2,964,Correct,9,876
9,ZCZFZ,164,2,858,Correct,9,663
9,NSNSN,7,3,883,Correct,9,812
9,HGHGH,13,1,829,Correct,9,726
9,THTDT,161,2,801,Correct,9,902
9,VMVMV,191,1,1006,Correct,9,681
9,CVCDC,16,2,721,Correct,9,802
9,ZAZRZ,162,2,696,Correct,9,950
9,XTXZX,163,2,578,Correct,9,911
9,OXOXO,151,1,755,Correct,9,726
9,DCDSD,82,3,1171,Correct,9,654
9,PQPDP,14,2,1023,Correct,9,785
9,ZMZMZ,192,1,801,Incorrect,9,738
9,BEBEB,15,1,987,Correct,9,766
9,FCFCF,152,1,739,Correct,9,665
9,YAYBY,161,2,651,Correct,9,888
9,KNKVK,162,2,693,Correct,9,927
9,SEPCP,231,2,638,Correct,9,878
9,OPOPO,113,1,704,Correct,9,676
9,XMXMX,193,1,684,Correct,9,802
9,KEKEK,15,1,647,Correct,9,867
9,USUSU,9,3,602,Correct,9,762
9,YHSHY,223,1,1133,Correct,9,735
9,UPUPU,113,1,605,Correct,9,677
9,XZXZX,152,1,706,Correct,9,716
9,KGKXK,161,2,749,Correct,9,856
9,QEQPQ,162,2,947,Correct,9,928
9,NUNUS,225,1,1065,Correct,9,719
9,BXBXB,113,1,745,Correct,9,743
9,SQHQH,221,1,1002,Correct,9,714
9,ACACA,113,1,597,Correct,9,925
9,KMKBK,174,2,731,Correct,9,659
9,EGSVE,233,2,761,Correct,9,705
9,HYHYH,113,1,791,Correct,9,781
9,LULUL,152,1,691,Correct,9,774
9,AEAEA,153,1,640,Correct,9,772
9,TXTST,102,3,1010,Correct,9,776
9,FDFCF,14,2,1080,Correct,9,652
9,KVKVK,151,1,804,Correct,9,863
9,UBUCU,161,2,751,Correct,9,738
9,GAGMG,185,2,663,Correct,9,878
9,UXUGU,16,2,624,Correct,9,926
9,HOHOH,151,1,741,Correct,9,720
9,QUQTS,235,2,1006,Correct,9,867
9,YZYZY,113,1,718,Correct,9,845
9,BSBSB,11,3,775,Correct,9,922
9,FEFEF,13,1,644,Correct,9,732
9,GMGMG,196,1,726,Correct,9,747
9,TGTXT,16,2,707,Correct,9,797
9,LSLFL,121,3,846,Correct,9,870
10,Q,5,3,6366,New Target,10,890
10,ZHZOZ,161,2,1164,Correct,10,740
10,RZRZR,151,1,965,Correct,10,866
10,BFBFB,152,1,772,Correct,10,942
10,GBGBG,153,1,689,Correct,10,780
10,OGOXO,161,2,754,Correct,10,758
10,UEQOU,233,2,1184,Correct,10,690
10,BOBRB,222,2,909,Correct,10,775
10,DYDVD,162,2,871,Correct,10,724
10,COCOC,151,1,717,Correct,10,799
10,YZYQY,72,3,806,Correct,10,946
10,FHFWF,14,2,1008,Correct,10,764
10,ANANQ,225,1,892,Correct,10,918
10,ZAZAZ,113,1,718,Correct,10,888
10,ERESE,181,2,856,Incorrect,10,875
10,XTXOX,16,2,957,Correct,10,811
10,NXNXN,151,1,721,Correct,10,814
10,OVOZO,161,2,699,Correct,10,843
10,WUWOW,162,2,931,Correct,10,950
10,FWFVF,163,2,725,Correct,10,827
10,NSNKN,172,2,753,Incorrect,10,834
10,VWVNV,16,2,992,Correct,10,652
10,XZXZX,151,1,708,Correct,10,745
10,VQVQV,8,1,749,Incorrect,10,888
10,GYGPG,14,2,647,Correct,10,855
10,OBOSO,183,2,891,Correct,10,703
10,YUYUY,15,1,675,Correct,10,741
10,NDNQN,92,3,733,Correct,10,938
10,FCFHF,14,2,649,Correct,10,787
10,EFEFE,151,1,713,Correct,10,816
10,NSNSN,194,1,821,Correct,10,875
10,YPYFY,16,2,971,Correct,10,862
10,ZKZKZ,151,1,985,Correct,10,932
10,QZQDR,231,2,925,Correct,10,767
10,AOAHA,222,2,1218,Correct,10,805
10,BGBGB,151,1,1088,Correct,10,723
10,HQHQH,10,3,721,Correct,10,712
10,UHUBU,14,2,923,Correct,10,830
10,KRKSK,185,2,1130,Correct,10,935
10,TOTOT,15,1,646,Correct,10,814
10,APAPA,152,1,771,Correct,10,815
10,VDVYV,161,2,832,Correct,10,786
10,FOFTF,162,2,746,Correct,10,762
10,QVXVX,221,1,1220,Correct,10,834
10,GHGRG,222,2,735,Correct,10,770
10,LFLFL,151,1,886,Correct,10,908
10,HLHLH,152,1,752,Correct,10,706
10,KWQWK,223,2,1452,Incorrect,10,791
10,YQYQY,11,3,942,Correct,10,784
10,ADADA,13,1,685,Correct,10,896
10,OGOAO,161,2,1126,Correct,10,894
10,EOEFE,162,2,867,Correct,10,848
10,USUSU,196,1,793,Correct,10,791
10,VFVAQ,235,2,964,Correct,10,810
10,DZDXD,222,2,922,Correct,10,728
10,HVHDH,162,2,1004,Correct,10,843
10,DWDWD,151,1,1354,Correct,10,865
10,GBGBG,152,1,956,Correct,10,825
10,AOADA,161,2,834,Correct,10,701
10,GQGQG,12,3,826,Correct,10,771
11,T,5,3,8220,New Target,11,800
11,KEKEK,151,,,Incorrect,11,757
11,LBLBL,152,1,855,Correct,11,866
11,HEHVH,161,2,993,Correct,11,728
11,FRFOF,162,2,848,Correct,11,884
11,EBEBE,151,1,710,Correct,11,836
11,HTHTH,7,3,707,Correct,11,797
11,MAMDM,14,2,908,Correct,11,843
11,VOVOV,151,1,669,Correct,11,940
11,XQXQX,191,1,1163,Correct,11,861
11,PBPAP,16,2,731,Correct,11,720
11,MXMLM,162,2,826,Correct,11,720
11,TCNCN,221,2,781,Incorrect,11,924
11,OBONO,222,2,939,Correct,11,686
11,RCROR,162,2,862,Correct,11,851
11,PBPRT,235,2,819,Correct,11,901
11,WFWVW,222,2,700,Correct,11,743
11,LTLUL,81,3,967,Correct,11,877
11,ZDZPZ,14,2,827,Correct,11,791
11,NCNQN,182,2,839,Correct,11,741
11,XZXNX,16,2,699,Correct,11,872
11,GOGOG,151,1,833,Correct,11,949
11,DFDFD,152,1,796,Correct,11,730
11,VWTRV,233,2,641,Correct,11,882
11,CFCVC,222,2,580,Correct,11,722
11,PAPAP,151,1,791,Correct,11,758
11,EQEYE,173,2,668,Correct,11,929
11,DNDED,16,2,727,Correct,11,882
11,PTPTP,9,3,817,Correct,11,890
11,ZCZCZ,13,1,999,Correct,11,861
11,MZMZM,152,1,683,Correct,11,776
11,ULUVU,161,2,810,Correct,11,779
11,BRBGB,162,2,860,Correct,11,931
11,MLMLT,225,1,699,Correct,11,658
11,GQGQG,194,1,678,Correct,11,856
11,HGHGH,15,1,665,Correct,11,683
11,RVRBR,161,2,1245,Correct,11,661
11,ZOZDZ,162,2,818,Correct,11,932
11,VYVYV,151,1,631,Correct,11,861
11,RVRVR,152,1,665,Correct,11,755
11,OTOTO,10,3,858,Correct,11,779
11,PXPXP,13,1,756,Correct,11,674
11,MCMCM,152,1,656,Correct,11,787
11,YUYUY,153,1,606,Correct,11,812
11,DYDYD,154,1,596,Correct,11,661
11,WDWDW,155,1,595,Correct,11,851
11,DYDQD,185,2,774,Correct,11,794
11,KDKNK,16,2,766,Correct,11,824
11,HOHOH,151,1,643,Correct,11,943
11,TWEZE,231,2,581,Correct,11,770
11,NANHN,222,2,667,Correct,11,673
11,VQVWV,176,2,554,Correct,11,736
11,ZRZRZ,15,1,755,Correct,11,651
11,VTVGV,111,2,603,Incorrect,11,879
11,HWHVH,14,2,696,Correct,11,865
11,EHEHE,151,1,776,Correct,11,708
11,VRVLV,161,2,614,Correct,11,665
11,ACACA,151,1,728,Correct,11,728
11,WBTBW,223,2,577,Incorrect,11,845
11,UTUTU,12,3,793,Correct,11,666
12,O,5,3,2144,New Target,12,798
12,UXULU,161,2,1016,Correct,12,816
12,MUMDM,162,2,861,Correct,12,742
12,VLVLV,151,1,865,Correct,12,897
12,BDBHB,161,2,859,Correct,12,724
12,KEKEK,151,1,786,Correct,12,772
12,WKWKW,152,1,745,Correct,12,915
12,AWAWA,153,1,763,Correct,12,656
12,EVEVE,154,1,887,Correct,12,770
12,PHPOP,72,2,810,Incorrect,12,888
12,WXWAW,14,2,800,Correct,12,903
12,PWPHP,162,2,876,Correct,12,704
12,ZTZTZ,191,1,706,Correct,12,798
12,HVHMH,16,2,1104,Correct,12,807
12,DKDKD,151,1,743,Correct,12,946
12,NPNPN,152,1,724,Correct,12,781
12,ZRZNZ,161,2,772,Correct,12,714
12,OGCGC,221,2,760,Incorrect,12,948
12,LFLFL,113,1,671,Correct,12,853
12,WXWXW,152,1,787,Correct,12,707
12,KPKPK,153,1,672,Correct,12,705
12,FRFKF,161,2,868,Correct,12,676
12,EOEOE,8,1,622,Incorrect,12,780
12,GEGEG,13,1,690,Correct,12,721
12,LKLBO,235,2,684,Correct,12,919
12,MLMZM,222,2,815,Correct,12,686
12,ASACA,162,2,746,Correct,12,741
12,LOLOL,9,1,745,Incorrect,12,748
12,XLXLX,13,1,720,Correct,12,865
12,WHWHW,152,1,959,Correct,12,689
12,ETETE,192,1,739,Correct,12,764
12,OXGZG,231,2,1171,Correct,12,666
12,CZCZC,113,1,828,Correct,12,879
12,LGLGL,152,1,691,Correct,12,858
12,VLVPV,161,2,983,Correct,12,729
12,UYUYO,225,1,1134,Correct,12,664
12,SMSMS,113,1,856,Correct,12,849
12,RTRTR,193,1,740,Correct,12,712
12,KVKHK,16,2,1236,Correct,12,731
12,ROROR,101,3,651,Correct,12,911
12,PRPRP,13,1,752,Correct,12,668
12,LALHL,161,2,782,Correct,12,670
12,PLPLP,151,1,693,Correct,12,849
12,CTCTC,194,1,692,Correct,12,735
12,XGXAX,16,2,735,Correct,12,888
12,NMNMN,151,1,849,Correct,12,670
12,HLHZH,161,2,815,Correct,12,666
12,YOYOY,11,3,796,Correct,12,667
12,PZOZP,223,1,1109,Correct,12,776
12,EAEAE,113,1,950,Correct,12,737
12,GXGVG,161,2,838,Correct,12,862
12,HMHGH,162,2,813,Correct,12,884
12,GTGTG,195,1,773,Correct,12,892
12,LMLGL,16,2,711,Correct,12,921
12,ECEDE,162,2,853,Correct,12,773
12,PSPKP,163,2,769,Correct,12,724
12,MCOBM,233,2,792,Correct,12,918
12,EMEME,113,1,723,Correct,12,844
12,CTCRC,176,2,627,Correct,12,652
12,NSNSN,15,1,756,Correct,12,720
12,MWMVM,161,2,1100,Correct,12,926
12,CPCOC,122,3,1097,Correct,12,811
13,H,5,3,10728,New Target,13,693
13,VUVUV,151,1,826,Correct,13,855
13,YVYVY,152,1,682,Correct,13,661
13,XUXUX,153,1,598,Correct,13,860
13,NRNWN,161,2,727,Correct,13,774
13,MZMKM,162,2,612,Correct,13,827
13,HLVLV,221,1,765,Correct,13,666
13,DXDGD,222,2,615,Correct,13,751
13,LHLAL,71,3,827,Correct,13,684
13,YMYFY,14,2,769,Correct,13,835
13,AOARA,171,2,1022,Correct,13,768
13,ZKZAZ,16,2,668,Correct,13,898
13,RZRZR,151,1,717,Correct,13,651
13,NFNAN,161,2,677,Correct,13,923
13,KUKEK,162,2,910,Correct,13,910
13,XAXYX,163,2,686,Correct,13,916
13,LKLUL,164,2,584,Correct,13,862
13,NLNLN,151,1,758,Correct,13,902
13,WDWOW,182,2,780,Correct,13,900
13,EWEWE,15,1,682,Correct,13,680
13,VHVHV,8,3,735,Correct,13,656
13,PVPVP,13,1,765,Correct,13,747
13,CRCSC,161,2,810,Correct,13,800
13,NWNWN,151,1,703,Correct,13,873
13,SQSQS,152,1,667,Correct,13,839
13,AEASA,161,2,712,Correct,13,829
13,GOGOG,193,1,618,Correct,13,724
13,QGQGQ,15,2,761,Incorrect,13,828
13,FMFMF,152,1,657,Correct,13,853
13,PFPFP,153,1,801,Correct,13,789
13,SYSHS,92,2,665,Incorrect,13,813
13,QGQKQ,14,2,738,Correct,13,888
13,ELELH,225,1,670,Correct,13,764
13,MRMRM,113,1,648,Correct,13,894
13,GUGNG,161,2,772,Correct,13,858
13,ZOZOZ,194,1,687,Correct,13,798
13,EZEZE,15,1,657,Correct,13,659
13,FHFKF,101,3,653,Correct,13,853
13,GSHLG,233,2,741,Correct,13,945
13,FKFXF,222,2,847,Correct,13,802
13,DEDYD,162,2,740,Correct,13,855
13,UXUVU,163,2,672,Correct,13,755
13,MCMOM,185,2,907,Correct,13,876
13,BXBUH,235,2,715,Correct,13,918
13,DMDMD,113,1,732,Correct,13,652
13,BXBDB,161,2,724,Correct,13,918
13,AVAVA,151,1,721,Correct,13,793
13,QUHUQ,223,2,1066,Incorrect,13,917
13,BRBRB,113,1,639,Correct,13,664
13,ZHZHZ,11,3,765,Correct,13,850
13,VZVZV,13,1,843,Correct,13,707
13,HBUQU,231,2,1013,Correct,13,790
13,EUEUE,113,1,763,Correct,13,701
13,RQRDR,161,2,981,Correct,13,834
13,COCOC,196,1,727,Correct,13,852
13,VNVSV,16,2,721,Correct,13,857
13,WHWHW,12,3,793,Correct,13,924
14,G,5,3,1747,New Target,14,851
14,EBEBE,151,1,704,Correct,14,691
14,QPQUQ,161,2,889,Correct,14,891
14,XDXDX,151,1,685,Correct,14,858
14,YXYXY,152,1,750,Correct,14,728
14,MBMBM,153,1,696,Correct,14,879
14,QMQKQ,161,2,806,Correct,14,827
14,EYETE,162,2,1012,Correct,14,703
14,UKUKU,151,1,857,Correct,14,754
14,MPGPM,223,1,656,Correct,14,859
14,ANANA,113,1,640,Correct,14,767
14,UAUAU,152,1,683,Correct,14,883
14,ADASA,161,2,825,Correct,14,839
14,LKLGL,72,3,795,Correct,14,945
14,UWUWU,13,1,648,Correct,14,732
14,MCMUM,161,2,789,Correct,14,888
14,YMYMY,151,1,588,Correct,14,877
14,RHRWR,171,2,744,Correct,14,939
14,DUDCD,16,2,820,Correct,14,809
14,ASAGA,82,3,802,Correct,14,677
14,DLDLD,13,1,746,Correct,14,783
14,ZXZDZ,161,2,583,Correct,14,786
14,ULUFU,162,2,777,Correct,14,812
14,DPDPG,225,2,663,Incorrect,14,688
14,KHKTK,172,2,666,Correct,14,747
14,ZKZUZ,16,2,488,Correct,14,843
14,AKALA,162,2,586,Correct,14,924
14,CNCNC,151,1,904,Correct,14,922
14,PGPGP,9,3,810,Correct,14,898
14,UPUPU,13,3,628,Incorrect,14,778
14,FSGWF,233,2,715,Correct,14,654
14,CACVC,222,2,980,Correct,14,870
14,FTFTF,151,1,788,Correct,14,896
14,KFKCK,161,2,793,Correct,14,945
14,ZEZHZ,183,2,589,Correct,14,944
14,NSNSN,15,1,744,Correct,14,941
14,ENENE,152,1,689,Correct,14,909
14,LXLWG,235,2,591,Correct,14,770
14,SMSUS,222,2,834,Correct,14,752
14,ZHZHZ,194,1,841,Correct,14,790
14,PFPFP,15,1,637,Correct,14,908
14,BABAB,152,1,894,Correct,14,791
14,XPXUX,161,2,882,Correct,14,861
14,ACACA,151,1,853,Correct,14,855
14,RGRGR,10,3,665,Correct,14,870
14,URURU,13,1,691,Correct,14,937
14,PKPTP,161,2,724,Correct,14,743
14,SGSGS,11,3,943,Correct,14,835
14,GZYVY,231,2,889,Correct,14,652
14,UDUTU,222,2,1213,Correct,14,894
14,VHVHV,195,1,697,Correct,14,799
14,LWLNL,16,2,754,Correct,14,898
14,GKPKP,221,1,681,Correct,14,908
14,SQSPS,222,2,754,Correct,14,884
14,WNWNW,151,1,659,Correct,14,654
14,MHMTM,176,2,750,Incorrect,14,886
14,RZRZR,15,2,669,Incorrect,14,683
14,CGCDC,121,1,1083,Incorrect,14,880
15,A,5,3,2418,New Target,15,845
15,WQWEW,161,2,1146,Correct,15,744
15,RWRKR,162,2,857,Correct,15,745
15,YRYRY,151,1,730,Correct,15,947
15,XOXOX,152,1,707,Correct,15,839
15,QPQPQ,153,1,802,Correct,15,682
15,TDTDT,154,1,578,Correct,15,657
15,WXWBW,161,2,680,Correct,15,696
15,TATAT,7,3,791,Correct,15,735
15,MCMYM,14,2,789,Correct,15,705
15,SMSFS,162,2,748,Correct,15,926
15,ZLZMZ,163,2,675,Correct,15,873
15,VDVBV,164,2,581,Correct,15,679
15,XCXVX,165,2,550,Correct,15,818
15,LKLBA,235,2,623,Correct,15,689
15,NDNDN,113,1,831,Correct,15,829
15,YGYGY,191,3,983,Incorrect,15,752
15,VLVLV,15,1,699,Correct,15,773
15,WQWQW,152,1,739,Correct,15,935
15,MAMOM,81,2,784,Incorrect,15,754
15,YZABY,233,2,1254,Correct,15,869
15,CFCFC,113,1,847,Correct,15,742
15,UTULU,161,2,938,Correct,15,754
15,KPKUK,162,2,890,Correct,15,930
15,TCTQT,163,2,689,Correct,15,784
15,FGFGF,192,1,748,Correct,15,897
15,RCRYR,16,2,728,Correct,15,761
15,KRKDK,162,2,720,Correct,15,889
15,CRCRC,151,1,841,Correct,15,942
15,WOAOW,223,1,684,Correct,15,904
15,LPLWL,222,2,728,Correct,15,851
15,DGDUD,173,2,798,Correct,15,924
15,EMEZE,16,2,753,Correct,15,950
15,DADAD,9,3,940,Correct,15,843
15,WDWDW,13,1,831,Correct,15,850
15,AWQWQ,221,2,666,Incorrect,15,734
15,TKTQT,222,2,808,Correct,15,843
15,MTMFM,162,2,1070,Correct,15,872
15,KAKAK,10,1,647,Incorrect,15,944
15,BDBRB,14,2,754,Correct,15,883
15,QPQPQ,151,1,734,Correct,15,774
15,NDNDN,152,1,792,Correct,15,864
15,QYQGQ,184,2,608,Correct,15,816
15,VPVPV,15,1,688,Correct,15,781
15,RDRDA,225,1,1043,Correct,15,673
15,KWKOK,222,2,707,Correct,15,791
15,TPTPT,151,1,674,Correct,15,734
15,DCDCD,152,1,790,Correct,15,728
15,OWOAO,112,3,884,Correct,15,688
15,ZCZNZ,14,2,1222,Correct,15,919
15,MYMGM,185,2,782,Correct,15,806
15,ANLOL,231,2,1035,Correct,15,673
15,DWDPD,222,2,727,Correct,15,910
15,YQYQY,151,1,709,Correct,15,741
15,LGLGL,196,1,814,Correct,15,944
15,VYVLV,16,2,787,Correct,15,860
15,MVMVM,151,1,786,Correct,15,708
15,QMQMQ,152,1,735,Correct,15,749
15,SXSXS,153,1,619,Correct,15,791
15,WAWAW,12,3,745,Correct,15,834
