Trial No,Stimulus,Trigger,Response,Response Time(ms),Correct,Block,Fixation Duration
Practice
OT Practice
1,SKSKS,15,,,False,0,774
1,DLDUD,16,2,1183,Correct,0,654
1,PDPGP,16,2,872,Correct,0,739
1,MWMWM,15,1,1418,Correct,0,870
1,FTFTF,15,1,889,Correct,0,779
1,AXAMA,16,2,854,Correct,0,915
1,RYRGR,16,2,927,Correct,0,687
1,DODOD,15,1,724,Correct,0,685
1,QTQAQ,16,2,794,Correct,0,864
1,YEYEY,15,1,771,Correct,0,725
2,GYGDG,16,2,1013,Correct,0,788
2,SWSWS,15,1,704,Correct,0,902
2,HLHUH,16,2,1002,Correct,0,732
2,DEDED,15,2,686,False,0,688
2,ZPZOZ,16,2,824,Correct,0,798
2,ATATA,15,1,786,Correct,0,689
2,QOQOQ,15,1,804,Correct,0,865
2,FPFGF,16,2,825,Correct,0,832
2,TRTET,16,2,1069,Correct,0,831
2,DQDQD,15,1,759,Correct,0,851
4,PLPLP,15,1,696,Correct,0,897
4,ATAIA,16,2,625,Correct,0,842
4,SKSGS,16,2,684,Correct,0,789
4,ZYZYZ,15,1,584,Correct,0,778
4,QSQSQ,15,1,543,Correct,0,941
4,TZTDT,16,2,689,Correct,0,744
4,JYJGJ,16,1,806,False,0,890
4,DYDYD,15,2,831,False,0,763
4,LTLCL,16,2,970,Correct,0,681
4,FQFEF,16,2,872,Correct,0,878
1,SKSKS,15,1,762,Correct,0,731
1,DLDUD,16,2,625,Correct,0,784
1,PDPGP,16,2,906,Correct,0,920
1,MWMWM,15,1,704,Correct,0,713
1,FTFTF,15,1,812,Correct,0,714
1,AXAMA,16,2,690,Correct,0,809
1,RYRGR,16,2,572,Correct,0,811
1,DODOD,15,1,645,Correct,0,911
1,QTQAQ,16,2,615,Correct,0,665
1,YEYEY,15,2,759,False,0,747
DT Practice
1,TKTKT,15,1,1193,Correct,0,937
1,SLSUS,16,2,912,Correct,0,781
1,VZVGV,7,[2][3],[1036][1196],Correct,0,866
1,XWXZX,7,[2][3],[1043][1187],Correct,0,701
1,ATATA,15,2,926,False,0,850
1,HXZMH,16,,,False,0,883
1,TZTZT,7,[1][3],[1001][1160],Correct,0,737
1,UOUOU,15,1,1042,Correct,0,855
1,ZTWAW,16,2,1188,Correct,0,701
1,RZRER,7,[1][1],[1188][1428],False,0,668
2,JYJDJ,16,2,1125,Correct,0,842
2,DWDWD,15,1,958,Correct,0,836
2,GNGNG,7,[1][3],[804][900],Correct,0,651
2,NEZEZ,16,1,1199,Correct,0,808
2,RNROR,7,[2][3],[858][986],Correct,0,725
2,QTQNQ,7,[2][3],[1053][1165],Correct,0,937
2,HOHON,15,1,1003,Correct,0,887
2,KPKGK,16,2,924,Correct,0,737
2,DRDED,16,,,False,0,789
2,LNLNL,7,[1][3],[919][1031],Correct,0,658
4,GLGLG,15,1,1083,Correct,0,862
4,DTDID,16,2,789,Correct,0,878
4,SMSGS,16,2,871,Correct,0,921
4,ZFZYZ,7,[2][3],[925][1069],Correct,0,742
4,TSTFT,7,[2][3],[1282][1426],Correct,0,917
4,OFOFO,7,[1][3],[900][1044],Correct,0,655
4,WYFGW,16,2,717,Correct,0,877
4,WYWYW,15,1,966,Correct,0,759
4,MFMCM,7,[2][3],[969][1145],Correct,0,757
4,HQHEH,16,2,890,Correct,0,836
Trials
1,D,5,3,6624,New Target,1,807
1,ZNZYZ,161,2,1095,Correct,1,767
1,FZFZF,151,1,851,Correct,1,892
1,RKRKR,152,1,1070,Correct,1,662
1,RXRNR,161,2,815,Correct,1,789
1,CNCFC,162,2,908,Correct,1,741
1,PDPDP,7,[1][3],[896][960],Correct,1,878
1,CPCFC,14,2,1039,Correct,1,785
1,VLVNV,162,2,843,Correct,1,923
1,KFKFK,151,1,1137,Correct,1,884
1,ZNZNZ,152,1,875,Correct,1,858
1,KCKPD,235,2,765,Correct,1,882
1,ZKZFZ,222,2,920,Correct,1,804
1,NRNZN,162,2,808,Correct,1,917
1,KXKRK,163,2,785,Correct,1,784
1,YPYZY,164,2,791,Correct,1,879
1,FKDKF,223,1,851,Correct,1,788
1,RPRPR,113,1,986,Correct,1,764
1,VRVKV,161,2,860,Correct,1,788
1,RFRPR,162,2,901,Correct,1,752
1,KVKVK,151,1,796,Correct,1,777
1,YKYVY,161,2,739,Correct,1,857
1,VDVDV,8,[1][3],[716][796],Correct,1,878
1,DVZVZ,221,2,1018,Incorrect,1,933
1,YFYFY,113,1,797,Correct,1,760
1,ZYZYZ,152,1,867,Correct,1,913
1,VLVXV,161,2,844,Correct,1,729
1,DPXZX,231,2,928,Correct,1,904
1,RYRYR,113,1,840,Correct,1,733
1,PDPNP,91,[2][3],[979][1075],Correct,1,823
1,KXKXK,13,1,840,Correct,1,800
1,ZYZYZ,152,1,899,Correct,1,768
1,VKVKV,153,1,764,Correct,1,671
1,YZYZY,154,1,755,Correct,1,932
1,NLNZN,161,2,783,Correct,1,789
1,ZNDYZ,233,2,1019,Correct,1,792
1,PCPXP,222,2,786,Correct,1,657
1,ZVZFZ,162,2,702,Correct,1,693
1,RCRZR,163,2,698,Correct,1,796
1,LRLRL,151,1,786,Correct,1,902
1,ZDZDZ,10,[1][3],[817][897],Correct,1,758
1,RNRZR,14,2,705,Correct,1,707
1,CXCYC,162,2,1018,Correct,1,949
1,RCRLR,163,2,814,Correct,1,739
1,FRFRF,151,1,788,Correct,1,871
1,XFXFX,152,1,747,Correct,1,878
1,RPRLR,161,2,819,Correct,1,892
1,YXYRY,162,2,735,Correct,1,764
1,FYFYF,151,1,745,Correct,1,797
1,YZYVY,161,2,712,Correct,1,770
1,YKYKY,151,1,901,Correct,1,773
1,XRXRX,152,1,731,Correct,1,774
1,XVXZX,161,2,789,Correct,1,874
1,PDPDP,11,[1][3],[905][953],Correct,1,815
1,ZFZFZ,13,1,968,Correct,1,905
1,PXPXP,152,2,828,Incorrect,1,851
1,LYLYL,153,1,895,Correct,1,905
1,NKNKD,225,1,833,Correct,1,881
1,ZNZNZ,113,1,824,Correct,1,876
1,PYPZP,161,2,829,Correct,1,901
1,XPXPX,151,1,808,Correct,1,793
1,VLVLV,152,1,867,Correct,1,782
1,PKPXP,161,1,683,Incorrect,1,755
1,FZFZF,151,1,698,Correct,1,797
1,LDLDL,12,[1][3],[867][931],Correct,1,663
2,U,5,3,656,New Target,2,698
2,ZVZFZ,161,2,1074,Correct,2,876
2,FZFZF,151,1,836,Correct,2,729
2,RFRFR,152,1,795,Correct,2,835
2,NZNKN,161,2,776,Correct,2,724
2,FZFNF,162,2,918,Correct,2,754
2,RXRXR,151,1,782,Correct,2,665
2,KRKYK,161,2,840,Correct,2,819
2,NZNPN,162,2,995,Correct,2,654
2,XPXPX,151,1,719,Correct,2,945
2,CUCUC,7,[1][3],[723][819],Correct,2,945
2,RFRFR,13,1,709,Correct,2,874
2,VYVXV,161,2,802,Correct,2,818
2,VDVDV,191,1,1247,Correct,2,720
2,ZKZRZ,15,2,883,Correct,2,899
2,XCXCX,151,1,759,Correct,2,803
2,CNCUC,82,[2][3],[1192][1304],Correct,2,712
2,RCRCR,13,1,752,Correct,2,914
2,ZPZXZ,161,2,845,Correct,2,760
2,FKFYF,162,2,762,Correct,2,680
2,ZFZYZ,163,2,854,Correct,2,792
2,PXPXP,151,1,752,Correct,2,702
2,URCKC,231,2,816,Correct,2,673
2,PCPCP,113,1,806,Correct,2,840
2,XNXNX,152,1,841,Correct,2,945
2,RCRZR,161,2,659,Correct,2,762
2,XVXVX,151,1,847,Correct,2,937
2,NRNRN,152,1,758,Correct,2,806
2,FPFPF,225,2,714,Incorrect,2,941
2,XVXFX,222,2,725,Correct,2,854
2,PRPRP,151,2,996,Incorrect,2,775
2,FYFCF,161,2,825,Correct,2,686
2,XUXFX,91,[2][3],[890][1034],Correct,2,847
2,CYCVC,14,2,860,Correct,2,760
2,VDVKV,172,2,832,Correct,2,854
2,YCYCY,15,1,822,Correct,2,896
2,NKNLN,161,2,846,Correct,2,790
2,XPUKX,233,2,1242,Correct,2,678
2,ZPZPZ,113,1,819,Correct,2,833
2,KRKRK,152,1,894,Correct,2,755
2,XKXKX,153,1,789,Correct,2,761
2,YUYVY,101,[2][3],[769][897],Correct,2,781
2,XKXFU,235,2,1067,Correct,2,911
2,NFNFN,113,1,904,Correct,2,889
2,KDKDK,193,1,1019,Correct,2,765
2,XYXKX,16,2,775,Correct,2,903
2,YZUZY,223,1,1189,Correct,2,756
2,KFKVK,222,2,871,Correct,2,657
2,LYLYL,151,1,910,Correct,2,798
2,CXCDC,184,2,1179,Incorrect,2,662
2,XZXNX,16,2,981,Correct,2,808
2,PXPXP,151,1,979,Correct,2,949
2,ZRZYZ,161,2,970,Correct,2,664
2,PUPYP,111,[2][3],[1037][1149],Correct,2,748
2,RNRNR,14,1,963,Correct,2,824
2,KDKDK,195,1,1033,Correct,2,684
2,KNKNK,15,1,734,Correct,2,668
2,PRPKP,161,2,925,Correct,2,703
2,UNYNY,221,1,1108,Correct,2,758
2,NYNYN,113,1,999,Correct,2,684
2,YXYXY,152,1,725,Incorrect,2,935
2,RDRDR,196,1,740,Correct,2,705
2,FCFCF,15,1,642,Correct,2,697
2,ZKZKZ,152,1,850,Correct,2,794
2,ZUZUZ,12,[1][3],[873][985],Correct,2,749
3,E,5,3,1722,New Target,3,813
3,YZYZY,151,1,838,Correct,3,790
3,VFVNV,161,2,788,Correct,3,678
3,KYKYK,151,1,996,Correct,3,664
3,NKNKN,152,1,802,Correct,3,896
3,XVXNX,161,2,682,Correct,3,771
3,RERFR,71,[2][3],[1140][1236],Correct,3,899
3,XNXNX,13,1,821,Correct,3,901
3,NXNXN,152,1,969,Correct,3,939
3,ZLZNZ,161,2,966,Correct,3,938
3,CUCNC,171,2,1161,Correct,3,798
3,FYFRF,16,2,1065,Correct,3,722
3,ZLZLZ,151,1,987,Correct,3,712
3,YZYZY,152,1,702,Correct,3,761
3,CYCYC,153,1,809,Correct,3,848
3,VUVUV,192,2,739,Incorrect,3,776
3,PXPRP,16,2,748,Correct,3,892
3,YPYPY,151,1,714,Correct,3,711
3,CECEC,8,[1][3],[1173][1285],Correct,3,666
3,VNENV,223,1,1057,Correct,3,651
3,KRKFK,222,2,1055,Correct,3,891
3,XLXLE,225,1,596,Correct,3,713
3,RFRUR,183,2,825,Correct,3,710
3,XRXLX,16,2,706,Correct,3,750
3,NZNPN,162,2,848,Correct,3,809
3,XZXZX,151,1,886,Correct,3,766
3,FZFZF,152,1,733,Correct,3,768
3,PFPFP,153,1,935,Correct,3,854
3,YZYXY,161,2,1096,Correct,3,873
3,KEKEK,9,[1][3],[930][1042],Correct,3,754
3,CXCPC,14,2,767,Correct,3,860
3,VXVXV,151,2,839,Incorrect,3,827
3,NUNZN,174,2,910,Correct,3,818
3,RKRVR,16,2,1011,Correct,3,829
3,XRXRX,151,1,1232,Correct,3,911
3,ERNFN,231,2,1321,Incorrect,3,806
3,YRYNY,222,2,736,Correct,3,790
3,PZPEP,102,[2][3],[1015][1127],Correct,3,892
3,ZYZXZ,14,2,1082,Correct,3,894
3,RZRVR,162,2,855,Correct,3,802
3,XRXRX,151,1,834,Correct,3,687
3,KUKFK,175,2,1293,Correct,3,737
3,RKRKR,15,1,1126,Correct,3,700
3,ZFZFZ,152,1,1047,Correct,3,703
3,YZYVY,161,2,754,Correct,3,888
3,XPXNX,162,2,889,Correct,3,910
3,YRYRY,151,1,1134,Correct,3,793
3,EPVPV,221,1,1180,Correct,3,755
3,CRCEC,112,[2][3],[784][912],Correct,3,743
3,RFRCR,14,2,999,Correct,3,721
3,CPCVC,162,1,1132,Incorrect,3,681
3,RXRCR,163,2,920,Correct,3,780
3,VNVLV,164,2,951,Correct,3,942
3,ZXZXZ,151,1,896,Correct,3,714
3,ZCZCZ,152,1,970,Correct,3,654
3,PYPUP,186,2,857,Correct,3,902
3,YKYPY,16,2,1139,Correct,3,711
3,YREXY,233,2,1445,Correct,3,675
3,ZKZKZ,113,1,930,Correct,3,900
3,XLXNX,161,2,762,Correct,3,692
3,KFKRE,235,2,1224,Correct,3,703
3,RXRLR,222,2,1061,Correct,3,733
3,RERXR,121,[2][3],[866][978],Correct,3,722
4,J,5,3,2915,New Target,4,859
4,CYCVC,161,2,971,Correct,4,752
4,RXRCR,162,2,1233,Correct,4,732
4,FPFVF,163,2,1126,Correct,4,894
4,LZLZL,151,1,721,Correct,4,898
4,PLPLP,152,1,683,Correct,4,891
4,NPNPN,153,1,812,Correct,4,689
4,XZXZX,161,1,657,Incorrect,4,924
4,CNCKC,162,2,1045,Correct,4,669
4,PCPYJ,235,2,1177,Correct,4,756
4,VYVYV,113,1,1239,Correct,4,729
4,RLRLR,152,1,1056,Correct,4,820
4,CJCJC,7,[1][2],[1128][1288],Incorrect,4,833
4,ZLZLZ,13,1,1017,Correct,4,926
4,FZFZF,152,1,731,Correct,4,785
4,CFCFC,153,1,923,Correct,4,672
4,PZPZP,154,1,734,Correct,4,828
4,XEXEX,191,1,903,Correct,4,825
4,NVNFN,16,2,898,Correct,4,650
4,KYKYK,151,1,950,Correct,4,809
4,ZNZVZ,161,2,951,Correct,4,876
4,YVJXY,233,2,1114,Correct,4,804
4,XFXFX,113,1,743,Correct,4,788
4,XNXNX,152,1,1079,Correct,4,770
4,FJFKF,81,[2][3],[978][1073],Correct,4,760
4,CZCYC,14,2,1041,Correct,4,735
4,ZXZCZ,162,2,770,Correct,4,734
4,RYRYJ,225,1,943,Correct,4,809
4,FPFZF,222,2,751,Correct,4,927
4,XRXRX,151,1,920,Correct,4,849
4,YPYEY,182,2,750,Correct,4,792
4,XRXRX,15,1,694,Correct,4,878
4,XZXPX,161,2,904,Correct,4,676
4,CJCJC,9,[1][3],[792][1096],Correct,4,846
4,ZXZVZ,14,2,871,Correct,4,715
4,VKVKV,151,1,782,Correct,4,781
4,VEVNV,173,2,787,Correct,4,930
4,ZKZVZ,16,2,973,Correct,4,833
4,XVXJX,102,[1][2],[973][1165],Incorrect,4,683
4,RXRVR,14,2,937,Correct,4,825
4,LRLRL,151,1,992,Correct,4,756
4,YNJNY,223,1,880,Correct,4,913
4,NPNJN,222,2,1012,Correct,4,851
4,ZEZEZ,194,1,785,Correct,4,895
4,ZNZNZ,15,1,1085,Correct,4,777
4,YZYZY,152,1,713,Correct,4,853
4,XYXYX,153,1,871,Correct,4,789
4,ZXZXZ,221,1,686,Correct,4,765
4,LYLZL,222,2,925,Correct,4,805
4,CYCNC,162,2,945,Correct,4,837
4,XEXEX,195,1,900,Correct,4,843
4,CVCXC,16,2,773,Correct,4,923
4,ZPZXZ,162,2,1021,Correct,4,881
4,FZFZF,151,1,792,Correct,4,931
4,RXRJR,112,[2][3],[760][872],Correct,4,777
4,PRPFP,14,2,1011,Correct,4,806
4,PKPEP,186,2,902,Correct,4,727
4,XZXPX,16,2,987,Correct,4,856
4,JCZVZ,231,2,816,Correct,4,679
4,RXRLR,222,2,871,Correct,4,799
4,VZVZV,151,1,1039,Correct,4,758
4,XJXJX,12,[1][3],[818][929],Correct,4,783
5,I,5,3,3911,New Target,5,691
5,PCPCP,151,1,828,Correct,5,944
5,XYXYX,152,1,786,Correct,5,843
5,VXVXV,153,1,850,Correct,5,712
5,XVXVX,154,1,821,Correct,5,904
5,ZRZXZ,161,2,896,Correct,5,743
5,FPFZF,162,2,808,Correct,5,757
5,ZYZYZ,151,1,1051,Correct,5,938
5,RVRZR,161,2,929,Correct,5,677
5,CICIC,7,[1][3],[795][907],Correct,5,783
5,XLXLX,13,1,750,Correct,5,944
5,YVYVY,152,1,692,Correct,5,911
5,CJCJC,191,1,1268,Correct,5,824
5,FNFCF,16,2,859,Correct,5,737
5,PVPRP,162,2,849,Correct,5,874
5,FZFZF,151,1,839,Correct,5,875
5,NVIVN,223,2,901,Incorrect,5,685
5,CVCIC,82,[2][3],[937][1097],Correct,5,774
5,ZXZXZ,13,1,1073,Correct,5,813
5,FCFZF,161,2,923,Correct,5,942
5,IXRXR,221,1,1153,Correct,5,748
5,ZPZNZ,222,2,639,Correct,5,773
5,VZVZV,151,1,1022,Correct,5,780
5,YRYNY,161,2,884,Correct,5,650
5,VNVPV,162,2,795,Correct,5,817
5,RVRJR,182,1,1158,Incorrect,5,748
5,VRVRV,15,1,685,Correct,5,940
5,VIVIV,9,[1][3],[763][875],Correct,5,719
5,CXCVC,14,2,946,Correct,5,667
5,PZPZP,151,2,763,Incorrect,5,684
5,IXVKV,231,2,1103,Correct,5,654
5,YJYCY,173,2,961,Incorrect,5,691
5,VYVYV,15,1,881,Correct,5,890
5,YVYVY,152,1,1109,Correct,5,804
5,NVNVN,153,1,998,Correct,5,749
5,XYXVX,161,2,989,Correct,5,698
5,NJNCN,174,2,854,Correct,5,656
5,NXNYN,16,2,1058,Correct,5,713
5,VXVCV,162,2,736,Correct,5,854
5,ZKZKZ,151,1,1069,Correct,5,752
5,XRXYX,161,2,730,Correct,5,800
5,ZCZXZ,162,2,788,Correct,5,859
5,KVKYI,235,2,988,Correct,5,887
5,CNCNC,113,1,1183,Correct,5,734
5,RIRIR,10,[1][3],[937][1049],Correct,5,719
5,VYVXV,14,2,1022,Correct,5,660
5,FXIRF,233,2,1261,Correct,5,801
5,PFPFP,113,1,1426,Correct,5,942
5,VPVPV,152,1,667,Correct,5,651
5,ZJZJZ,195,1,632,Correct,5,781
5,ZVZNZ,16,2,902,Correct,5,860
5,YVYXY,162,2,687,Correct,5,670
5,PRPRP,151,1,976,Correct,5,688
5,YPYPY,152,1,977,Correct,5,813
5,ZIZPZ,111,[2][3],[724][852],Correct,5,848
5,NKNXN,14,2,1046,Correct,5,697
5,RZRXR,162,2,707,Correct,5,872
5,RXRXR,151,1,940,Correct,5,875
5,ZJZJZ,196,1,724,Correct,5,658
5,CVCVI,225,1,1030,Incorrect,5,707
5,NKNKN,113,1,872,Correct,5,711
5,NRNZN,161,2,1055,Correct,5,843
5,CNCNC,151,1,849,Correct,5,725
5,RFRIR,122,[2][3],[1046][1158],Correct,5,687
6,B,5,3,2779,New Target,6,881
6,YKYZY,161,2,901,Correct,6,803
6,VCVRV,162,2,936,Correct,6,845
6,XVXVX,151,1,864,Correct,6,691
6,KZKRK,161,2,666,Correct,6,705
6,ZVZXZ,162,2,678,Correct,6,803
6,RCRNR,163,2,631,Correct,6,725
6,CXCRC,164,2,860,Correct,6,669
6,VNBCV,233,2,1038,Correct,6,886
6,CXCVC,222,2,1024,Correct,6,734
6,RFRFR,151,1,1108,Correct,6,698
6,XPXRX,161,1,816,Incorrect,6,850
6,RYRBR,72,[2],[824],Incorrect,6,748
6,ZKZKZ,13,1,943,Correct,6,824
6,FIFRF,171,2,1016,Correct,6,651
6,VZVLV,16,2,857,Correct,6,782
6,RPRVR,162,2,947,Correct,6,690
6,YBYBY,8,[1][3],[878][990],Correct,6,839
6,PYPVP,14,2,967,Correct,6,682
6,NININ,192,1,985,Correct,6,815
6,RNRNR,15,1,1181,Correct,6,722
6,NXNVN,161,2,714,Correct,6,727
6,RNRNR,151,1,843,Correct,6,654
6,FRFVF,161,2,926,Correct,6,914
6,YVYFB,235,2,1246,Incorrect,6,927
6,ZRZXZ,222,2,967,Correct,6,825
6,VNVIV,193,2,1099,Incorrect,6,741
6,PXPNP,16,2,839,Correct,6,881
6,ZXZPZ,162,2,1117,Correct,6,852
6,VBVBV,9,[1][3],[1078][1158],Correct,6,688
6,CXCXC,13,1,882,Correct,6,858
6,PCPFP,161,2,1352,Correct,6,831
6,KNKNK,151,1,865,Correct,6,726
6,XIXIX,194,1,881,Correct,6,942
6,CYCYC,15,1,1095,Correct,6,765
6,FVFYF,161,2,981,Correct,6,793
6,YNYRY,162,2,1470,Correct,6,683
6,BVPXP,231,2,945,Correct,6,716
6,NXNXN,113,1,907,Correct,6,662
6,FRFRF,152,1,797,Correct,6,852
6,YVYVY,153,1,923,Correct,6,650
6,ZKZCZ,161,2,658,Correct,6,719
6,VIVXV,175,2,838,Correct,6,653
6,PRBRP,223,1,1247,Correct,6,755
6,YZYBY,102,[2][1],[745][1321],Incorrect,6,918
6,CXCVC,14,2,911,Correct,6,867
6,FYFYF,151,1,647,Correct,6,752
6,VKVXV,161,2,874,Correct,6,741
6,ZBZBZ,11,[1][3],[834][962],Correct,6,890
6,FPFNF,14,2,727,Correct,6,800
6,CXCXC,151,1,694,Correct,6,735
6,YCYCY,152,1,662,Correct,6,714
6,FPFPF,153,1,609,Correct,6,897
6,CVCVB,225,1,932,Correct,6,700
6,ZCZCZ,113,1,731,Correct,6,714
6,CZCNC,161,2,749,Correct,6,711
6,KIKFK,176,2,871,Correct,6,850
6,PXPXP,15,1,683,Correct,6,901
6,RYRYR,152,1,1115,Correct,6,762
6,ZRZCZ,161,2,731,Correct,6,771
6,RVRVR,151,1,926,Correct,6,664
6,XYXNX,161,2,739,Correct,6,760
6,BVKVK,221,1,884,Correct,6,696
6,CBCBC,12,[1][3],[799][911],Correct,6,808
7,W,5,3,2791,New Target,7,751
7,RKRKR,151,1,956,Correct,7,899
7,CVCRC,161,2,650,Correct,7,935
7,PKPKP,151,1,668,Correct,7,678
7,FPFPF,152,1,604,Correct,7,735
7,VRVPV,161,2,859,Correct,7,846
7,ZKZYZ,162,2,756,Correct,7,765
7,PVPCP,233,2,817,Correct,7,729
7,KVKVK,113,1,925,Correct,7,673
7,YXYVY,161,2,795,Correct,7,940
7,FNFNF,151,1,869,Correct,7,775
7,YWYWY,7,[1][3],[766][878],Correct,7,801
7,ZYZYZ,13,1,876,Correct,7,747
7,PYPYP,152,1,673,Correct,7,858
7,XRXRX,153,1,706,Correct,7,690
7,PXPXP,154,1,793,Correct,7,938
7,FCFBF,181,2,675,Correct,7,802
7,FVFVF,15,1,1048,Correct,7,657
7,CYCZC,161,2,796,Correct,7,724
7,XZXVX,162,2,774,Correct,7,782
7,PFPFP,151,1,1220,Correct,7,745
7,RVRLR,161,2,705,Correct,7,719
7,ZBZBZ,192,1,795,Correct,7,873
7,VCVNV,16,2,787,Correct,7,887
7,NWNWN,8,[1],[1222],Incorrect,7,837
7,XNXVX,14,2,1074,Correct,7,837
7,CXCNC,162,2,721,Correct,7,819
7,YVYVW,225,1,1066,Correct,7,903
7,VFVFV,113,1,710,Correct,7,909
7,VFWFV,223,1,1122,Correct,7,794
7,CVCFC,222,2,707,Correct,7,755
7,YBYBY,193,1,819,Correct,7,740
7,PYPYP,15,1,1002,Correct,7,850
7,NKNWN,91,[2],[1173],Incorrect,7,694
7,VNVNV,13,1,821,Correct,7,759
7,RVRVR,152,1,862,Correct,7,799
7,FVFBF,184,2,746,Incorrect,7,651
7,VZVKV,16,2,881,Correct,7,928
7,VPVCV,162,2,1109,Correct,7,890
7,WYZCZ,231,2,1170,Correct,7,796
7,PFPFP,113,1,1244,Correct,7,760
7,PRPRP,152,1,966,Correct,7,827
7,NWNWN,10,[1][1],[1117][1597],Incorrect,7,795
7,VKVCV,14,2,1476,Correct,7,650
7,WPYPY,221,1,1000,Correct,7,675
7,VBVBV,195,2,1015,Incorrect,7,842
7,ZKZYZ,16,2,1001,Correct,7,753
7,XYXYX,151,1,661,Correct,7,918
7,FZFXF,161,2,824,Correct,7,655
7,XKXKX,151,1,1499,Correct,7,914
7,XPXPX,152,1,1140,Correct,7,915
7,FWFWF,11,,,Incorrect,7,793
7,FNFBF,186,2,1051,Correct,7,653
7,ZVZYZ,16,2,955,Correct,7,803
7,FZFZF,151,1,780,Correct,7,879
7,NPNFW,235,2,1048,Correct,7,809
7,PCPCP,113,1,813,Correct,7,684
7,NKNWN,122,[2][3],[1094][1190],Correct,7,946
8,M,5,3,3604,New Target,8,912
8,VYVNV,161,2,1206,Correct,8,833
8,KLKNK,162,2,829,Correct,8,818
8,NRNRN,151,1,929,Correct,8,903
8,VNVFV,161,2,947,Correct,8,839
8,XNXNM,225,1,1266,Correct,8,936
8,CXCVC,222,2,647,Correct,8,824
8,KRKZK,162,2,745,Correct,8,764
8,NMNFN,71,[2],[898],Incorrect,8,868
8,ZFZFZ,13,1,923,Correct,8,683
8,YPYCY,161,2,963,Correct,8,758
8,KCKCK,151,1,710,Correct,8,801
8,VNVNV,152,1,767,Correct,8,854
8,LXLXL,153,1,903,Correct,8,900
8,CLCLC,154,1,1408,Correct,8,687
8,NYNYN,155,1,1090,Correct,8,859
8,LCMYL,233,2,1266,Correct,8,736
8,NCNCN,113,1,775,Correct,8,866
8,ZVZRZ,161,2,792,Correct,8,673
8,ZVZVZ,151,2,1040,Incorrect,8,861
8,PZPVP,161,2,703,Correct,8,885
8,PWPNP,171,2,1467,Correct,8,841
8,KLKCM,235,2,1265,Correct,8,663
8,XMXMX,8,[1][3],[1059][1171],Correct,8,795
8,PRPXP,14,2,777,Correct,8,843
8,CVCYC,162,2,1125,Correct,8,774
8,PXPMP,92,[2][3],[1013][1173],Correct,8,706
8,ZCZLZ,14,2,1171,Correct,8,950
8,XWXWX,192,1,1501,Correct,8,790
8,ZCZLZ,16,2,739,Correct,8,658
8,MNCYC,231,2,1182,Correct,8,874
8,ZXZXZ,113,1,924,Correct,8,670
8,YRYNY,161,2,815,Correct,8,878
8,ZLZPZ,162,,,Incorrect,8,827
8,VZVZV,151,1,703,Correct,8,886
8,MXPXP,221,1,1343,Correct,8,756
8,VWVWV,193,2,808,Incorrect,8,707
8,PYPYP,16,1,739,Incorrect,8,682
8,XPXVX,162,2,749,Correct,8,883
8,XLXLX,151,1,922,Correct,8,729
8,YMYMY,10,[1][3],[896][1040],Correct,8,864
8,VYVYV,13,1,826,Correct,8,710
8,PWPZP,174,2,746,Correct,8,677
8,PYPKP,16,2,1250,Correct,8,837
8,NPNXN,162,1,1576,Incorrect,8,895
8,KVKVK,223,1,1136,Correct,8,863
8,NVNFN,222,2,1212,Correct,8,853
8,XNXNX,151,1,960,Correct,8,904
8,YZYMY,112,[2][3],[1112][1224],Correct,8,710
8,PFPFP,13,1,935,Correct,8,844
8,ZWZWZ,195,1,1053,Correct,8,728
8,PCPZP,16,2,1067,Correct,8,881
8,LRLPL,162,,,Incorrect,8,709
8,CZCZC,151,1,1145,Correct,8,775
8,NZNZN,152,1,730,Correct,8,657
8,CVCXC,161,2,1082,Correct,8,710
8,XCXCX,151,2,1068,Incorrect,8,759
8,YWYWY,196,1,1080,Correct,8,863
8,NLNLN,15,,,Incorrect,8,721
8,VNVNV,152,1,1174,Correct,8,795
8,ZMZMZ,12,[1],[928],Incorrect,8,913
9,S,5,3,4599,New Target,9,709
9,NZNZN,151,1,871,Correct,9,942
9,KVKZK,161,2,722,Correct,9,705
9,LZLZL,151,1,753,Correct,9,760
9,XLXLX,152,1,878,Correct,9,748
9,ZXZXZ,153,1,949,Correct,9,795
9,KNKZK,161,2,764,Correct,9,713
9,NRNYN,162,2,1083,Correct,9,658
9,CLCVC,163,2,807,Correct,9,891
9,ZCZFZ,164,2,952,Correct,9,698
9,NSNSN,7,[1][3],[769][833],Correct,9,764
9,VZVZV,13,2,765,Incorrect,9,781
9,NVNCN,161,2,716,Correct,9,697
9,VMVMV,191,1,826,Correct,9,772
9,CVCXC,16,2,722,Correct,9,817
9,ZYZRZ,162,2,683,Correct,9,946
9,XNXZX,163,2,698,Correct,9,797
9,PXPXP,151,1,822,Correct,9,840
9,VCVSV,82,[2][3],[898][994],Correct,9,699
9,PRPCP,14,2,744,Correct,9,928
9,ZMZMZ,192,1,854,Incorrect,9,705
9,ZFZFZ,15,1,895,Correct,9,782
9,FCFCF,152,1,931,Correct,9,859
9,YLYZY,161,2,757,Correct,9,827
9,KNKVK,162,2,1200,Correct,9,828
9,SFPCP,231,2,984,Correct,9,862
9,RPRPR,113,1,941,Correct,9,758
9,XMXMX,193,1,1026,Correct,9,765
9,KFKFK,15,1,766,Correct,9,911
9,VSVSV,9,[1][3],[889][969],Correct,9,762
9,YVSVY,223,1,967,Correct,9,805
9,VPVPV,113,1,663,Correct,9,871
9,XZXZX,152,1,724,Correct,9,837
9,KZKXK,161,2,798,Correct,9,903
9,RFRPR,162,2,935,Correct,9,816
9,NVNVS,225,1,909,Correct,9,731
9,ZXZXZ,113,1,865,Correct,9,797
9,SRVRV,221,1,969,Correct,9,717
9,YCYCY,113,1,994,Correct,9,686
9,KMKZK,174,2,1350,Correct,9,764
9,FZSVF,233,2,861,Correct,9,688
9,VYVYV,113,1,807,Correct,9,736
9,LVLVL,152,1,805,Correct,9,699
9,YFYFY,153,1,848,Correct,9,779
9,NXNSN,102,[2],[1244],Incorrect,9,915
9,FNFCF,14,2,812,Correct,9,744
9,KVKVK,151,2,777,Incorrect,9,758
9,VZVCV,161,2,1120,Correct,9,924
9,ZYZMZ,185,2,1143,Correct,9,914
9,VXVZV,16,2,933,Correct,9,789
9,VPVPV,151,1,910,Correct,9,695
9,RVRNS,235,2,736,Correct,9,867
9,YZYZY,113,1,715,Correct,9,803
9,ZSZSZ,11,[1][3],[998][1126],Correct,9,751
9,FRFRF,13,1,734,Correct,9,831
9,ZMZMZ,196,1,814,Correct,9,688
9,NZNXN,16,2,1025,Correct,9,945
9,LSLFL,121,[2][3],[1028][1156],Correct,9,703
10,Q,5,3,10006,New Target,10,660
10,ZVZPZ,161,2,876,Correct,10,811
10,RZRZR,151,1,887,Correct,10,745
10,ZFZFZ,152,1,1005,Correct,10,752
10,RZRZR,153,1,704,Correct,10,799
10,PZPXP,161,2,859,Correct,10,871
10,VFQPV,233,2,1023,Correct,10,886
10,ZPZRZ,222,2,992,Correct,10,853
10,CYCVC,162,2,1057,Correct,10,803
10,CPCPC,151,1,1008,Correct,10,824
10,YZYQY,72,[2][2],[795][1339],Incorrect,10,813
10,FVFXF,14,2,919,Correct,10,655
10,YNYNQ,225,2,801,Incorrect,10,675
10,ZYZYZ,113,1,1014,Correct,10,942
10,FRFSF,181,2,1161,Incorrect,10,725
10,XNXPX,16,2,821,Correct,10,785
10,NXNXN,151,1,1146,Correct,10,834
10,PVPZP,161,2,860,Correct,10,653
10,XVXPX,162,,,Incorrect,10,804
10,FXFVF,163,2,1569,Correct,10,764
10,NSNKN,172,2,1083,Incorrect,10,811
10,VXVNV,16,2,1334,Correct,10,912
10,XZXZX,151,1,1544,Correct,10,926
10,VQVQV,8,[1][3],[1044][1140],Correct,10,882
10,ZYZPZ,14,2,986,Correct,10,767
10,PZPSP,183,2,1022,Correct,10,703
10,YVYVY,15,1,696,Correct,10,924
10,NCNQN,92,[2][3],[1216][1344],Correct,10,781
10,FCFVF,14,2,679,Correct,10,798
10,ZFZFZ,151,1,1247,Correct,10,935
10,NSNSN,194,1,745,Correct,10,747
10,YPYFY,16,2,977,Correct,10,910
10,ZKZKZ,151,1,1073,Correct,10,804
10,QZRCR,231,2,774,Correct,10,740
10,YPYVY,222,2,885,Correct,10,682
10,ZNZNZ,151,1,1095,Correct,10,939
10,VQVQV,10,[1][3],[874][986],Correct,10,894
10,RVRZR,14,,,Incorrect,10,820
10,KRKSK,185,,,Incorrect,10,732
10,NPNPN,15,1,1179,Correct,10,699
10,YPYPY,152,1,626,Correct,10,895
10,VCVYV,161,,,Incorrect,10,755
10,FPFNF,162,2,1504,Correct,10,700
10,QVXVX,221,2,1019,Incorrect,10,905
10,ZVZRZ,222,2,768,Correct,10,694
10,LFLFL,151,1,683,Correct,10,801
10,VLVLV,152,1,818,Correct,10,904
10,KXQXK,223,1,1565,Correct,10,791
10,YQYQY,11,[1][3],[1056][1216],Correct,10,694
10,YCYCY,13,1,1215,Correct,10,825
10,PZPYP,161,2,1144,Correct,10,805
10,LPLFL,162,2,1081,Correct,10,744
10,VSVSV,196,1,957,Correct,10,685
10,VFVYQ,235,2,1142,Correct,10,688
10,CZCXC,222,2,896,Correct,10,908
10,PVPCP,162,2,1213,Correct,10,653
10,CXCXC,151,1,1043,Correct,10,929
10,NZNZN,152,1,1323,Correct,10,663
10,YPYCY,161,,,Incorrect,10,827
10,ZQZQZ,12,[1][3],[865][977],Correct,10,696
11,T,5,3,2107,New Target,11,712
11,KFKFK,151,1,980,Correct,11,879
11,LZLZL,152,1,785,Correct,11,941
11,PFPVP,161,2,909,Correct,11,711
11,FRFPF,162,2,1140,Correct,11,748
11,FZFZF,151,1,882,Correct,11,762
11,VTVTV,7,[1][3],[720][800],Correct,11,690
11,KYKCK,14,2,638,Correct,11,814
11,VPVPV,151,1,915,Correct,11,661
11,XQXQX,191,1,809,Correct,11,784
11,PZPYP,16,2,734,Correct,11,944
11,KXKLK,162,2,887,Correct,11,931
11,TCNCN,221,1,851,Correct,11,659
11,PZPNP,222,2,927,Correct,11,698
11,RCRPR,162,2,719,Correct,11,885
11,PZPRT,235,2,863,Correct,11,653
11,XFXVX,222,2,790,Correct,11,826
11,LTLVL,81,[2][3],[847][943],Correct,11,700
11,ZCZPZ,14,2,623,Correct,11,890
11,NCNQN,182,,,Incorrect,11,912
11,XZXNX,16,2,852,Correct,11,929
11,ZPZPZ,151,1,1336,Correct,11,946
11,CFCFC,152,1,984,Correct,11,940
11,VXTRV,233,2,920,Correct,11,835
11,CFCVC,222,2,940,Correct,11,844
11,PYPYP,151,1,1102,Correct,11,870
11,FQFYF,173,2,831,Correct,11,691
11,CNCFC,16,2,1546,Correct,11,682
11,PTPTP,9,,,Incorrect,11,839
11,ZCZCZ,13,1,733,Correct,11,715
11,KZKZK,152,1,875,Correct,11,742
11,RLRVR,161,2,771,Correct,11,743
11,ZRZKZ,162,2,847,Correct,11,710
11,KLKLT,225,1,932,Correct,11,860
11,ZQZQZ,194,1,892,Correct,11,730
11,VZVZV,15,,,Incorrect,11,937
11,RVRZR,161,2,1015,Correct,11,844
11,ZPZCZ,162,2,696,Correct,11,807
11,VYVYV,151,1,709,Correct,11,852
11,RVRVR,152,1,1091,Correct,11,807
11,PTPTP,10,[2],[773],Incorrect,11,753
11,PXPXP,13,1,775,Correct,11,818
11,KCKCK,152,1,822,Correct,11,673
11,YVYVY,153,1,563,Correct,11,693
11,CYCYC,154,1,1199,Correct,11,932
11,XCXCX,155,1,1254,Correct,11,908
11,CYCQC,185,2,1521,Correct,11,697
11,KCKNK,16,2,1291,Correct,11,927
11,VPVPV,151,1,657,Correct,11,809
11,TXFZF,231,2,1343,Correct,11,828
11,NYNVN,222,1,1180,Incorrect,11,670
11,VQVXV,176,2,1417,Correct,11,763
11,ZRZRZ,15,2,667,Incorrect,11,782
11,VTVZV,111,[2][3],[967][1079],Correct,11,902
11,PXPVP,14,2,925,Correct,11,815
11,FVFVF,151,1,1143,Correct,11,678
11,VRVLV,161,2,944,Correct,11,899
11,YCYCY,151,1,737,Correct,11,900
11,XZTZX,223,2,1081,Incorrect,11,925
11,VTVTV,12,[1][3],[918][1046],Correct,11,925
12,O,5,3,2241,New Target,12,947
12,VXVLV,161,2,1459,Correct,12,857
12,KVKCK,162,2,898,Correct,12,823
12,VLVLV,151,1,687,Correct,12,656
12,ZCZVZ,161,2,640,Correct,12,700
12,KFKFK,151,1,604,Correct,12,910
12,XKXKX,152,1,674,Correct,12,727
12,YXYXY,153,1,641,Correct,12,769
12,FVFVF,154,1,900,Correct,12,758
12,PVPOP,72,[2][3],[964][1076],Correct,12,827
12,ZXZYZ,14,2,718,Correct,12,843
12,PXPVP,162,2,872,Correct,12,819
12,ZTZTZ,191,1,1067,Correct,12,925
12,CVCKC,16,2,1176,Correct,12,880
12,CKCKC,151,1,818,Correct,12,807
12,NPNPN,152,2,1247,Incorrect,12,743
12,ZRZNZ,161,2,1160,Correct,12,733
12,OZCZC,221,1,1286,Correct,12,721
12,LFLFL,113,1,681,Correct,12,933
12,CXCXC,152,1,1380,Correct,12,866
12,KPKPK,153,1,802,Correct,12,919
12,FRFKF,161,2,1033,Correct,12,810
12,FOFOF,8,[1][3],[922][1050],Correct,12,759
12,ZFZFZ,13,1,1299,Correct,12,806
12,LKLZO,235,2,1052,Correct,12,762
12,KLKZK,222,2,1373,Correct,12,830
12,YXYCY,162,2,1181,Correct,12,896
12,LOLOL,9,,,Incorrect,12,701
12,XLXLX,13,1,739,Correct,12,713
12,XVXVX,152,1,941,Correct,12,783
12,FTFTF,192,1,896,Correct,12,845
12,OXNZN,231,2,772,Correct,12,835
12,CZCZC,113,1,1264,Correct,12,761
12,LZLZL,152,1,1238,Correct,12,837
12,VLVPV,161,2,650,Correct,12,929
12,VYVYO,225,2,1446,Incorrect,12,941
12,XKXKX,113,1,1059,Correct,12,821
12,RTRTR,193,2,1535,Incorrect,12,916
12,KVKCK,16,,,Incorrect,12,922
12,ROROR,101,[1][3],[830][942],Correct,12,764
12,PRPRP,13,,,Incorrect,12,676
12,LYLVL,161,2,1358,Correct,12,893
12,PLPLP,151,1,1239,Correct,12,716
12,CTCTC,194,1,1135,Correct,12,829
12,XZXYX,16,2,871,Correct,12,927
12,NKNKN,151,1,811,Correct,12,849
12,VLVZV,161,2,630,Correct,12,729
12,YOYOY,11,[1],[1213],Incorrect,12,797
12,PZOZP,223,2,1225,Incorrect,12,817
12,FYFYF,113,1,711,Correct,12,689
12,ZXZVZ,161,2,1479,Correct,12,736
12,VKVZV,162,1,1589,Incorrect,12,838
12,ZTZTZ,195,1,1054,Correct,12,902
12,LKLZL,16,,,Incorrect,12,789
12,KCKVK,162,2,746,Correct,12,789
12,PXPKP,163,2,615,Correct,12,809
12,KCOZK,233,2,1001,Correct,12,723
12,FKFKF,113,1,984,Correct,12,905
12,CTCRC,176,2,1018,Correct,12,857
12,NXNXN,15,1,1147,Correct,12,852
12,KXKVK,161,2,905,Correct,12,740
12,CPCOC,122,[2][3],[1072][1135],Correct,12,744
13,H,5,3,959,New Target,13,939
13,VFVNV,151,2,1560,Incorrect,13,738
13,YVYVY,152,1,981,Correct,13,749
13,XVXVX,153,1,981,Correct,13,816
13,NRNXN,161,2,772,Correct,13,921
13,PZPKP,162,2,1039,Correct,13,779
13,HLVLV,221,1,924,Correct,13,935
13,CXCZC,222,2,908,Correct,13,898
13,LHLYL,71,[1][3],[859][1019],Incorrect,13,877
13,YKYFY,14,2,951,Correct,13,839
13,YOYRY,171,2,1113,Correct,13,909
13,ZKZYZ,16,2,1432,Correct,13,775
13,RZRZR,151,1,874,Correct,13,785
13,NFNYN,161,2,1416,Correct,13,663
13,KVKFK,162,2,1046,Correct,13,852
13,XFXYX,163,2,693,Correct,13,810
13,LKLVL,164,2,847,Correct,13,916
13,NLNLN,151,2,1014,Incorrect,13,848
13,XCXOX,182,2,1068,Correct,13,655
13,FXFXF,15,2,761,Incorrect,13,819
13,VHVHV,8,[1][3],[878][1038],Correct,13,781
13,PVPVP,13,1,914,Correct,13,704
13,CRCXC,161,2,724,Correct,13,903
13,NXNXN,151,1,950,Correct,13,660
13,XRXRX,152,1,876,Correct,13,733
13,YFYXY,161,2,742,Correct,13,761
13,ZOZOZ,193,1,792,Correct,13,674
13,RZRZR,15,1,1059,Correct,13,781
13,FKFKF,152,1,931,Correct,13,841
13,PFPFP,153,2,1330,Incorrect,13,950
13,XYXHX,92,[2][3],[1170][1330],Correct,13,839
13,RZRKR,14,2,1174,Correct,13,744
13,FLFLH,225,1,884,Correct,13,780
13,KRKRK,113,1,696,Correct,13,859
13,ZVZNZ,161,1,1114,Incorrect,13,701
13,ZOZOZ,194,2,1068,Incorrect,13,702
13,FZFZF,15,1,660,Correct,13,918
13,FHFKF,101,[2],[1051],Incorrect,13,781
13,ZXHLZ,233,2,1068,Correct,13,764
13,FKFXF,222,,,Incorrect,13,689
13,CFCYC,162,2,1176,Correct,13,873
13,ZXZVZ,163,2,805,Correct,13,689
13,KCKOK,185,2,1489,Correct,13,747
13,ZXZVH,235,2,1422,Correct,13,930
13,CKCKC,113,2,1424,Incorrect,13,766
13,ZXZCZ,161,2,836,Correct,13,733
13,YVYVY,151,1,637,Correct,13,726
13,RVHVR,223,2,815,Incorrect,13,771
13,ZRZRZ,113,1,1222,Correct,13,863
13,ZHZHZ,11,[1][3],[877][1021],Correct,13,728
13,VZVZV,13,1,768,Correct,13,776
13,HZVRV,231,2,655,Correct,13,690
13,FVFVF,113,1,917,Correct,13,672
13,RNRCR,161,2,701,Correct,13,729
13,COCOC,196,2,962,Incorrect,13,944
13,VNVXV,16,1,884,Incorrect,13,865
13,XHXHX,12,[1][3],[931][1139],Correct,13,702
14,G,5,3,1599,New Target,14,667
14,FZFZF,151,1,1120,Correct,14,680
14,RPRVR,161,2,834,Correct,14,734
14,XCXCX,151,1,782,Correct,14,722
14,YXYXY,152,1,1033,Correct,14,720
14,KZKZK,153,1,775,Correct,14,904
14,RYRKR,161,2,882,Correct,14,830
14,FYFNF,162,2,807,Correct,14,806
14,VKVKV,151,1,1005,Correct,14,884
14,KPGPK,223,2,1187,Incorrect,14,742
14,YNYNY,113,1,812,Correct,14,852
14,VYVYV,152,2,1146,Incorrect,14,694
14,YCYXY,161,2,902,Correct,14,837
14,LKLGL,72,[2],[1139],Incorrect,14,752
14,VXVXV,13,2,871,Incorrect,14,668
14,KCKVK,161,2,1231,Correct,14,702
14,YKYKY,151,1,854,Correct,14,897
14,RHRXR,171,2,752,Correct,14,723
14,FVFCF,16,,,Incorrect,14,868
14,YXYGY,82,[2],[1302],Incorrect,14,864
14,CLCLC,13,1,992,Correct,14,931
14,ZXZCZ,161,2,952,Correct,14,675
14,VLVFV,162,2,1003,Correct,14,766
14,CPCPG,225,1,756,Correct,14,650
14,KHKNK,172,2,1187,Correct,14,687
14,ZKZVZ,16,2,972,Correct,14,880
14,YKYLY,162,1,930,Incorrect,14,681
14,CNCNC,151,1,1105,Correct,14,932
14,PGPGP,9,[1][3],[1008][1232],Correct,14,772
14,VPVPV,13,1,950,Correct,14,657
14,FXGRF,233,2,1099,Correct,14,777
14,CYCVC,222,1,1053,Incorrect,14,711
14,FNFNF,151,1,663,Correct,14,882
14,KFKCK,161,2,1026,Correct,14,868
14,ZFZHZ,183,1,1261,Incorrect,14,928
14,NXNXN,15,,,Incorrect,14,838
14,FNFNF,152,1,1089,Correct,14,781
14,LXLNG,235,2,884,Correct,14,720
14,XKXVX,222,2,957,Correct,14,736
14,ZHZHZ,194,1,879,Correct,14,894
14,PFPFP,15,1,1508,Correct,14,834
14,ZYZYZ,152,1,1013,Correct,14,795
14,XPXVX,161,2,1001,Correct,14,724
14,YCYCY,151,1,758,Correct,14,867
14,RGRGR,10,[1][3],[1004][1132],Correct,14,819
14,VRVRV,13,1,902,Correct,14,850
14,PKPNP,161,2,985,Correct,14,817
14,XGXGX,11,[1],[701],Incorrect,14,891
14,GZYVY,231,2,942,Correct,14,738
14,VCVNV,222,2,840,Correct,14,695
14,VHVHV,195,1,798,Correct,14,853
14,LXLNL,16,2,682,Correct,14,795
14,GKPKP,221,1,1226,Correct,14,739
14,XRXPX,222,1,688,Incorrect,14,922
14,XNXNX,151,1,528,Correct,14,722
14,KHKNK,176,2,891,Incorrect,14,663
14,RZRZR,15,2,754,Incorrect,14,806
14,CGCFC,121,[2],[1570],Incorrect,14,739
15,A,5,3,4851,New Target,15,768
15,XRXFX,161,,,Incorrect,15,911
15,RXRKR,162,2,940,Correct,15,737
15,YRYRY,151,1,946,Correct,15,701
15,XPXPX,152,1,952,Correct,15,845
15,RPRPR,153,1,680,Correct,15,853
15,NCNCN,154,1,662,Correct,15,699
15,RXRZR,161,2,792,Correct,15,740
15,NANAN,7,[1][3],[825][936],Correct,15,890
15,KCKYK,14,2,912,Correct,15,715
15,XKXFX,162,2,862,Correct,15,947
15,ZLZKZ,163,2,1033,Correct,15,713
15,VCVZV,164,2,726,Correct,15,922
15,XCXVX,165,2,661,Correct,15,745
15,LKLZA,235,2,1013,Correct,15,732
15,NCNCN,113,1,1288,Correct,15,750
15,YGYGY,191,1,1009,Correct,15,770
15,VLVLV,15,1,705,Correct,15,886
15,XRXRX,152,,,Incorrect,15,947
15,KAKPK,81,[2][3],[1107][1203],Correct,15,866
15,YZAZY,233,1,1152,Incorrect,15,928
15,CFCFC,113,1,888,Correct,15,899
15,VNVLV,161,2,1288,Correct,15,927
15,KPKVK,162,2,866,Correct,15,669
15,NCNRN,163,2,1027,Correct,15,940
15,FGFGF,192,1,803,Correct,15,790
15,RCRYR,16,2,712,Correct,15,939
15,KRKCK,162,2,987,Correct,15,673
15,CRCRC,151,1,877,Correct,15,826
15,XPAPX,223,2,1210,Incorrect,15,675
15,LPLXL,222,2,917,Correct,15,814
15,CGCVC,173,,,Incorrect,15,829
15,FKFZF,16,2,1121,Correct,15,882
15,CACAC,9,[1][3],[982][1094],Correct,15,718
15,XCXCX,13,1,682,Correct,15,784
15,AXRXR,221,1,1226,Correct,15,738
15,NKNRN,222,2,1215,Correct,15,884
15,KNKFK,162,2,889,Correct,15,800
15,KAKAK,10,[1][3],[950][1398],Correct,15,744
15,ZCZRZ,14,2,764,Correct,15,843
15,RPRPR,151,2,1044,Incorrect,15,846
15,NCNCN,152,1,1079,Correct,15,758
15,RYRGR,184,2,1205,Correct,15,826
15,VPVPV,15,1,747,Correct,15,943
15,RCRCA,225,1,1340,Correct,15,688
15,KXKPK,222,2,1551,Correct,15,911
15,NPNPN,151,1,907,Correct,15,805
15,YCYCY,152,1,961,Correct,15,777
15,PXPAP,112,,,Incorrect,15,838
15,ZCZNZ,14,2,803,Correct,15,923
15,KYKGK,185,2,922,Correct,15,848
15,ANLPL,231,2,1467,Correct,15,934
15,CXCPC,222,,,Incorrect,15,946
15,YRYRY,151,1,1175,Correct,15,695
15,LGLGL,196,1,1168,Correct,15,865
15,VYVLV,16,2,1008,Correct,15,668
15,KVKVK,151,1,991,Correct,15,930
15,RKRKR,152,1,1262,Correct,15,893
15,VXVXV,153,1,979,Correct,15,836
15,XAXAX,12,[1][3],[933][1109],Correct,15,908
