Trial No,Stimulus,Trigger,Response,Response Time(ms),Correct,Block,Fixation Duration
Practice
OT Practice
1,SKSKS,15,,,False,0,656
1,DLDUD,16,,,False,0,850
1,PDPGP,16,2,850,Correct,0,788
1,MWMWM,15,1,696,Correct,0,777
1,FTFTF,15,1,638,Correct,0,876
1,AXAMA,16,2,666,Correct,0,772
1,RYRGR,16,2,658,Correct,0,886
1,DODOD,15,1,569,Correct,0,942
1,QTQAQ,16,2,667,Correct,0,749
1,YEYEY,15,1,566,Correct,0,813
2,GYGDG,16,2,839,Correct,0,903
2,SWSWS,15,1,624,Correct,0,752
2,HLHUH,16,2,762,Correct,0,810
2,DEDED,15,1,656,Correct,0,807
2,ZPZOZ,16,2,621,Correct,0,804
2,ATATA,15,1,518,Correct,0,846
2,QOQOQ,15,1,515,Correct,0,850
2,FPFGF,16,2,535,Correct,0,695
2,TRTET,16,2,613,Correct,0,905
2,DQDQD,15,2,707,False,0,740
4,PLPLP,15,2,586,False,0,793
4,ATAIA,16,2,697,Correct,0,786
4,SKSGS,16,2,599,Correct,0,674
4,ZYZYZ,15,1,930,Correct,0,883
4,QSQSQ,15,1,552,Correct,0,675
4,TZTDT,16,2,600,Correct,0,764
4,JYJGJ,16,2,682,Correct,0,668
4,DYDYD,15,1,601,Correct,0,677
4,LTLCL,16,2,570,Correct,0,714
4,FQFEF,16,2,616,Correct,0,810
AT Practice
1,TKTKT,15,1,796,Correct,0,784
1,SLSUS,16,2,675,Correct,0,731
1,VZVGV,7,3,977,Correct,0,658
1,XWXZX,7,3,822,Correct,0,709
1,ATATA,15,1,834,Correct,0,686
1,HXZMH,16,2,1082,Correct,0,677
1,TZTZT,7,3,566,Correct,0,746
1,UOUOU,15,1,917,Correct,0,777
1,ZTWAW,16,2,984,Correct,0,714
1,RZRER,7,3,802,Correct,0,947
2,JYJDJ,16,2,689,Correct,0,772
2,DWDWD,15,1,768,Correct,0,674
2,GNGNG,7,3,595,Correct,0,876
2,NEZEZ,16,1,690,Correct,0,816
2,RNROR,7,2,590,False,0,719
2,QTQNQ,7,3,698,Correct,0,850
2,HOHON,15,1,591,Correct,0,863
2,KPKGK,16,2,651,Correct,0,822
2,DRDED,16,2,667,Correct,0,666
2,LNLNL,7,3,876,Correct,0,680
4,GLGLG,15,1,968,Correct,0,883
4,DTDID,16,2,904,Correct,0,795
4,SMSGS,16,2,788,Correct,0,933
4,ZFZYZ,7,3,649,Correct,0,859
4,TSTFT,7,3,992,Correct,0,894
4,OFOFO,7,3,657,Correct,0,736
4,WYFGW,16,1,1081,False,0,886
4,WYWYW,15,1,1312,Correct,0,865
4,MFMCM,7,3,1143,Correct,0,722
4,HQHEH,16,2,916,Correct,0,659
Trials
1,D,5,3,2919,New Target,1,860
1,ZNZYZ,161,2,827,Correct,1,719
1,FZFZF,151,1,743,Correct,1,750
1,RKRKR,152,1,641,Correct,1,805
1,RXRNR,161,2,626,Correct,1,763
1,CNCFC,162,2,803,Correct,1,789
1,PDPDP,7,1,610,Incorrect,1,668
1,CPCFC,14,2,1091,Correct,1,826
1,VLVNV,162,2,678,Correct,1,706
1,KFKFK,151,1,935,Correct,1,740
1,ZNZNZ,152,1,790,Correct,1,899
1,KCKPD,235,2,814,Correct,1,896
1,ZKZFZ,222,2,675,Correct,1,898
1,NRNZN,162,2,673,Correct,1,805
1,KXKRK,163,2,668,Correct,1,946
1,YPYZY,164,2,715,Correct,1,813
1,FKDKF,223,2,823,Incorrect,1,766
1,RPRPR,113,1,1481,Correct,1,930
1,VRVKV,161,2,747,Correct,1,706
1,RFRPR,162,2,838,Correct,1,831
1,KVKVK,151,1,879,Correct,1,763
1,YKYVY,161,2,721,Correct,1,867
1,VDVDV,8,3,795,Correct,1,895
1,DVZVZ,221,2,1150,Incorrect,1,927
1,YFYFY,113,1,716,Correct,1,776
1,ZYZYZ,152,1,860,Correct,1,731
1,VLVXV,161,2,624,Correct,1,883
1,DPXZX,231,2,605,Correct,1,902
1,RYRYR,113,1,895,Correct,1,701
1,PDPNP,91,3,1009,Correct,1,932
1,KXKXK,13,1,879,Correct,1,912
1,ZYZYZ,152,1,905,Correct,1,672
1,VKVKV,153,1,832,Correct,1,819
1,YZYZY,154,1,1276,Correct,1,666
1,NLNZN,161,2,1212,Correct,1,946
1,ZNDYZ,233,2,651,Correct,1,653
1,PCPXP,222,2,586,Correct,1,797
1,ZVZFZ,162,2,654,Correct,1,688
1,RCRZR,163,2,569,Correct,1,913
1,LRLRL,151,1,668,Correct,1,756
1,ZDZDZ,10,3,939,Correct,1,788
1,RNRZR,14,2,781,Correct,1,886
1,CXCYC,162,2,821,Correct,1,874
1,RCRLR,163,2,765,Correct,1,779
1,FRFRF,151,1,698,Correct,1,713
1,XFXFX,152,1,805,Correct,1,868
1,RPRLR,161,2,906,Correct,1,891
1,YXYRY,162,2,730,Correct,1,931
1,FYFYF,151,1,723,Correct,1,890
1,YZYVY,161,2,688,Correct,1,866
1,YKYKY,151,1,785,Correct,1,660
1,XRXRX,152,1,621,Correct,1,771
1,XVXZX,161,2,1138,Correct,1,701
1,PDPDP,11,3,889,Correct,1,950
1,ZFZFZ,13,1,795,Correct,1,930
1,PXPXP,152,1,744,Correct,1,655
1,LYLYL,153,1,776,Correct,1,694
1,NKNKD,225,1,785,Correct,1,849
1,ZNZNZ,113,1,748,Correct,1,784
1,PYPZP,161,2,743,Correct,1,833
1,XPXPX,151,1,737,Correct,1,822
1,VLVLV,152,1,672,Correct,1,692
1,PKPXP,161,2,788,Correct,1,671
1,FZFZF,151,1,722,Correct,1,656
1,LDLDL,12,3,744,Correct,1,928
2,U,5,3,1764,New Target,2,745
2,ZVZFZ,161,2,989,Correct,2,786
2,FZFZF,151,1,908,Correct,2,900
2,RFRFR,152,1,1025,Correct,2,798
2,NZNKN,161,2,1293,Correct,2,948
2,FZFNF,162,2,791,Correct,2,659
2,RXRXR,151,1,767,Correct,2,879
2,KRKYK,161,2,726,Correct,2,905
2,NZNPN,162,2,756,Correct,2,798
2,XPXPX,151,1,799,Correct,2,789
2,CUCUC,7,3,1037,Correct,2,673
2,RFRFR,13,1,1032,Correct,2,874
2,VYVXV,161,2,840,Correct,2,838
2,VDVDV,191,1,1439,Correct,2,796
2,ZKZRZ,15,2,1195,Correct,2,945
2,XCXCX,151,1,871,Correct,2,820
2,CNCUC,82,3,1451,Correct,2,853
2,RCRCR,13,1,993,Correct,2,699
2,ZPZXZ,161,2,664,Correct,2,707
2,FKFYF,162,2,801,Correct,2,932
2,ZFZYZ,163,2,699,Correct,2,817
2,PXPXP,151,1,918,Correct,2,893
2,URCKC,231,2,837,Correct,2,930
2,PCPCP,113,1,896,Correct,2,673
2,XNXNX,152,1,1060,Correct,2,868
2,RCRZR,161,2,885,Correct,2,754
2,XVXVX,151,1,1114,Correct,2,849
2,NRNRN,152,1,1390,Correct,2,670
2,FPFPF,225,1,757,Correct,2,734
2,XVXFX,222,2,654,Correct,2,803
2,PRPRP,151,1,747,Correct,2,828
2,FYFCF,161,2,940,Correct,2,694
2,XUXFX,91,2,1220,Incorrect,2,758
2,CYCVC,14,2,1164,Correct,2,872
2,VDVKV,172,2,899,Correct,2,892
2,YCYCY,15,1,853,Correct,2,893
2,NKNLN,161,2,1004,Correct,2,813
2,XPUKX,233,,,Incorrect,2,929
2,ZPZPZ,113,1,1302,Correct,2,752
2,KRKRK,152,1,1132,Correct,2,804
2,XKXKX,153,1,1061,Correct,2,866
2,YUYVY,101,2,728,Incorrect,2,708
2,XKXFU,235,2,1144,Correct,2,684
2,NFNFN,113,1,889,Correct,2,720
2,KDKDK,193,1,756,Correct,2,678
2,XYXKX,16,2,835,Correct,2,667
2,YZUZY,223,1,764,Correct,2,724
2,KFKVK,222,,,Incorrect,2,697
2,LYLYL,151,1,667,Correct,2,667
2,CXCDC,184,2,634,Incorrect,2,736
2,XZXNX,16,2,670,Correct,2,721
2,PXPXP,151,1,829,Correct,2,783
2,ZRZYZ,161,2,757,Correct,2,838
2,PUPYP,111,3,801,Correct,2,804
2,RNRNR,14,1,791,Correct,2,845
2,KDKDK,195,1,765,Correct,2,910
2,KNKNK,15,1,653,Correct,2,689
2,PRPKP,161,2,653,Correct,2,756
2,UNYNY,221,1,1179,Correct,2,839
2,NYNYN,113,1,1173,Correct,2,859
2,YXYXY,152,1,884,Incorrect,2,742
2,RDRDR,196,1,568,Correct,2,869
2,FCFCF,15,1,665,Correct,2,833
2,ZKZKZ,152,1,692,Correct,2,897
2,ZUZUZ,12,1,630,Incorrect,2,714
3,E,5,3,8163,New Target,3,864
3,YZYZY,151,1,705,Correct,3,945
3,VFVNV,161,2,1042,Correct,3,707
3,KYKYK,151,1,920,Correct,3,697
3,NKNKN,152,1,914,Correct,3,702
3,XVXNX,161,2,1400,Correct,3,744
3,RERFR,71,3,1002,Correct,3,765
3,XNXNX,13,1,735,Correct,3,704
3,NXNXN,152,1,970,Correct,3,897
3,ZLZNZ,161,2,810,Correct,3,829
3,CUCNC,171,,,Incorrect,3,726
3,FYFRF,16,2,885,Correct,3,735
3,ZLZLZ,151,,,Incorrect,3,674
3,YZYZY,152,1,619,Correct,3,827
3,CYCYC,153,1,657,Correct,3,684
3,VUVUV,192,1,1041,Correct,3,733
3,PXPRP,16,2,1507,Correct,3,709
3,YPYPY,151,,,Incorrect,3,655
3,CECEC,8,3,1569,Correct,3,865
3,VNENV,223,1,1332,Correct,3,655
3,KRKFK,222,2,1019,Correct,3,748
3,XLXLE,225,,,Incorrect,3,701
3,RFRUR,183,2,1101,Correct,3,788
3,XRXLX,16,2,720,Correct,3,720
3,NZNPN,162,2,860,Correct,3,788
3,XZXZX,151,1,1106,Correct,3,845
3,FZFZF,152,1,892,Correct,3,928
3,PFPFP,153,1,875,Correct,3,914
3,YZYXY,161,2,815,Correct,3,886
3,KEKEK,9,3,1160,Correct,3,820
3,CXCPC,14,2,916,Correct,3,785
3,VXVXV,151,1,1178,Correct,3,728
3,NUNZN,174,,,Incorrect,3,754
3,RKRVR,16,2,754,Correct,3,864
3,XRXRX,151,1,1482,Correct,3,805
3,ERNFN,231,2,940,Incorrect,3,709
3,YRYNY,222,2,999,Correct,3,663
3,PZPEP,102,2,949,Incorrect,3,908
3,ZYZXZ,14,2,1242,Correct,3,721
3,RZRVR,162,2,934,Correct,3,765
3,XRXRX,151,1,829,Correct,3,700
3,KUKFK,175,2,1316,Correct,3,866
3,RKRKR,15,1,1153,Correct,3,650
3,ZFZFZ,152,1,1038,Correct,3,726
3,YZYVY,161,,,Incorrect,3,825
3,XPXNX,162,2,1098,Correct,3,815
3,YRYRY,151,1,1080,Correct,3,824
3,EPVPV,221,1,741,Correct,3,834
3,CRCEC,112,3,1070,Correct,3,821
3,RFRCR,14,2,1069,Correct,3,758
3,CPCVC,162,2,663,Correct,3,942
3,RXRCR,163,2,1113,Correct,3,772
3,VNVLV,164,2,824,Correct,3,737
3,ZXZXZ,151,1,815,Correct,3,822
3,ZCZCZ,152,2,681,Incorrect,3,718
3,PYPUP,186,2,730,Correct,3,698
3,YKYPY,16,2,745,Correct,3,692
3,YREXY,233,2,723,Correct,3,865
3,ZKZKZ,113,1,771,Correct,3,699
3,XLXNX,161,2,882,Correct,3,711
3,KFKRE,235,2,1127,Correct,3,816
3,RXRLR,222,2,752,Correct,3,876
3,RERXR,121,3,1463,Correct,3,898
4,J,5,3,2509,New Target,4,707
4,CYCVC,161,2,1072,Correct,4,769
4,RXRCR,162,2,619,Correct,4,922
4,FPFVF,163,2,1000,Correct,4,862
4,LZLZL,151,1,1128,Correct,4,826
4,PLPLP,152,1,695,Correct,4,762
4,NPNPN,153,1,1044,Correct,4,849
4,XZXZX,161,1,945,Incorrect,4,803
4,CNCKC,162,2,1252,Correct,4,890
4,PCPYJ,235,,,Incorrect,4,775
4,VYVYV,113,1,1115,Correct,4,702
4,RLRLR,152,1,837,Correct,4,864
4,CJCJC,7,1,1028,Incorrect,4,677
4,ZLZLZ,13,1,888,Correct,4,745
4,FZFZF,152,1,961,Correct,4,775
4,CFCFC,153,,,Incorrect,4,703
4,PZPZP,154,,,Incorrect,4,827
4,XEXEX,191,1,1040,Correct,4,730
4,NVNFN,16,2,836,Correct,4,709
4,KYKYK,151,1,1022,Correct,4,779
4,ZNZVZ,161,2,927,Correct,4,798
4,YVJXY,233,,,Incorrect,4,674
4,XFXFX,113,1,756,Correct,4,834
4,XNXNX,152,1,1357,Correct,4,816
4,FJFKF,81,3,1038,Correct,4,864
4,CZCYC,14,2,1028,Correct,4,667
4,ZXZCZ,162,2,836,Correct,4,837
4,RYRYJ,225,,,Incorrect,4,746
4,FPFZF,222,2,1334,Correct,4,837
4,XRXRX,151,1,797,Correct,4,735
4,YPYEY,182,2,743,Correct,4,813
4,XRXRX,15,1,694,Correct,4,718
4,XZXPX,161,2,1409,Correct,4,847
4,CJCJC,9,3,1141,Correct,4,810
4,ZXZVZ,14,,,Incorrect,4,942
4,VKVKV,151,,,Incorrect,4,841
4,VEVNV,173,,,Incorrect,4,925
4,ZKZVZ,16,2,1167,Correct,4,867
4,XVXJX,102,,,Incorrect,4,723
4,RXRVR,14,,,Incorrect,4,686
4,LRLRL,151,,,Incorrect,4,698
4,YNJNY,223,1,1033,Correct,4,732
4,NPNJN,222,3,1273,Incorrect,4,755
4,ZEZEZ,194,1,945,Correct,4,751
4,ZNZNZ,15,1,850,Correct,4,868
4,YZYZY,152,1,1478,Correct,4,922
4,XYXYX,153,1,749,Correct,4,672
4,ZXZXZ,221,1,899,Correct,4,950
4,LYLZL,222,2,1319,Correct,4,806
4,CYCNC,162,2,1033,Correct,4,818
4,XEXEX,195,,,Incorrect,4,861
4,CVCXC,16,2,723,Correct,4,810
4,ZPZXZ,162,2,1038,Correct,4,846
4,FZFZF,151,1,771,Correct,4,729
4,RXRJR,112,2,1010,Incorrect,4,709
4,PRPFP,14,,,Incorrect,4,811
4,PKPEP,186,2,739,Correct,4,779
4,XZXPX,16,2,859,Correct,4,808
4,JCZVZ,231,2,740,Correct,4,806
4,RXRLR,222,2,974,Correct,4,911
4,VZVZV,151,1,769,Correct,4,810
4,XJXJX,12,3,951,Correct,4,910
5,I,5,3,1604,New Target,5,768
5,PCPCP,151,1,665,Correct,5,926
5,XYXYX,152,1,518,Correct,5,864
5,VXVXV,153,1,848,Correct,5,687
5,XVXVX,154,1,643,Correct,5,903
5,ZRZXZ,161,2,638,Correct,5,902
5,FPFZF,162,2,636,Correct,5,864
5,ZYZYZ,151,1,844,Correct,5,816
5,RVRZR,161,2,916,Correct,5,718
5,CICIC,7,3,1197,Correct,5,710
5,XLXLX,13,,,Incorrect,5,725
5,YVYVY,152,1,1112,Correct,5,812
5,CJCJC,191,1,1379,Correct,5,834
5,FNFCF,16,2,804,Correct,5,879
5,PVPRP,162,2,713,Correct,5,916
5,FZFZF,151,1,970,Correct,5,675
5,NVIVN,223,1,761,Correct,5,770
5,CVCIC,82,3,942,Correct,5,765
5,ZXZXZ,13,1,769,Correct,5,730
5,FCFZF,161,2,653,Correct,5,950
5,IXRXR,221,1,987,Correct,5,806
5,ZPZNZ,222,2,699,Correct,5,703
5,VZVZV,151,1,1056,Correct,5,790
5,YRYNY,161,2,840,Correct,5,833
5,VNVPV,162,2,887,Correct,5,913
5,RVRJR,182,2,950,Correct,5,902
5,VRVRV,15,,,Incorrect,5,879
5,VIVIV,9,3,1161,Correct,5,754
5,CXCVC,14,,,Incorrect,5,754
5,PZPZP,151,,,Incorrect,5,744
5,IXVKV,231,1,733,Incorrect,5,870
5,YJYCY,173,2,782,Incorrect,5,880
5,VYVYV,15,,,Incorrect,5,700
5,YVYVY,152,1,908,Correct,5,869
5,NVNVN,153,1,999,Correct,5,835
5,XYXVX,161,2,969,Correct,5,769
5,NJNCN,174,2,726,Correct,5,704
5,NXNYN,16,2,1026,Correct,5,735
5,VXVCV,162,2,638,Correct,5,838
5,ZKZKZ,151,1,941,Correct,5,711
5,XRXYX,161,2,691,Correct,5,665
5,ZCZXZ,162,2,1316,Correct,5,882
5,KVKYI,235,2,1577,Correct,5,739
5,CNCNC,113,1,965,Correct,5,682
5,RIRIR,10,3,1122,Correct,5,906
5,VYVXV,14,2,905,Correct,5,791
5,FXIRF,233,2,998,Correct,5,908
5,PFPFP,113,1,957,Correct,5,857
5,VPVPV,152,1,935,Correct,5,945
5,ZJZJZ,195,1,1203,Correct,5,944
5,ZVZNZ,16,2,798,Correct,5,909
5,YVYXY,162,2,857,Correct,5,651
5,PRPRP,151,1,1260,Correct,5,731
5,YPYPY,152,1,1120,Correct,5,795
5,ZIZPZ,111,2,1107,Incorrect,5,835
5,NKNXN,14,2,1134,Correct,5,795
5,RZRXR,162,2,803,Correct,5,935
5,RXRXR,151,1,1258,Correct,5,772
5,ZJZJZ,196,,,Incorrect,5,707
5,CVCVI,225,2,836,Correct,5,779
5,NKNKN,113,1,838,Correct,5,828
5,NRNZN,161,,,Incorrect,5,658
5,CNCNC,151,1,789,Correct,5,827
5,RFRIR,122,,,Incorrect,5,758
6,B,5,3,1699,New Target,6,825
6,YKYZY,161,2,889,Correct,6,680
6,VCVRV,162,2,734,Correct,6,695
6,XVXVX,151,1,790,Correct,6,725
6,KZKRK,161,2,778,Correct,6,788
6,ZVZXZ,162,2,646,Correct,6,657
6,RCRNR,163,2,1393,Correct,6,787
6,CXCRC,164,2,1134,Correct,6,875
6,VNBCV,233,,,Incorrect,6,807
6,CXCVC,222,2,622,Correct,6,724
6,RFRFR,151,1,840,Correct,6,762
6,XPXRX,161,1,949,Incorrect,6,912
6,RYRBR,72,2,705,Incorrect,6,875
6,ZKZKZ,13,1,1289,Correct,6,792
6,FIFRF,171,,,Incorrect,6,756
6,VZVLV,16,2,1202,Correct,6,893
6,RPRVR,162,2,1064,Correct,6,653
6,YBYBY,8,3,997,Correct,6,708
6,PYPVP,14,2,933,Correct,6,734
6,NININ,192,1,1415,Correct,6,745
6,RNRNR,15,,,Incorrect,6,878
6,NXNVN,161,2,691,Correct,6,926
6,RNRNR,151,,,Incorrect,6,858
6,FRFVF,161,,,Incorrect,6,716
6,YVYFB,235,2,778,Incorrect,6,718
6,ZRZXZ,222,2,623,Correct,6,764
6,VNVIV,193,,,Incorrect,6,655
6,PXPNP,16,2,548,Correct,6,818
6,ZXZPZ,162,2,868,Correct,6,741
6,VBVBV,9,1,759,Incorrect,6,761
6,CXCXC,13,1,734,Correct,6,717
6,PCPFP,161,1,633,Incorrect,6,666
6,KNKNK,151,1,659,Correct,6,831
6,XIXIX,194,1,1120,Correct,6,735
6,CYCYC,15,1,1171,Correct,6,940
6,FVFYF,161,2,1140,Correct,6,867
6,YNYRY,162,,,Incorrect,6,682
6,BVPXP,231,,,Incorrect,6,782
6,NXNXN,113,1,1389,Correct,6,899
6,FRFRF,152,1,1179,Correct,6,780
6,YVYVY,153,,,Incorrect,6,893
6,ZKZCZ,161,2,592,Correct,6,925
6,VIVXV,175,2,617,Correct,6,940
6,PRBRP,223,,,Incorrect,6,720
6,YZYBY,102,,,Incorrect,6,681
6,CXCVC,14,2,861,Correct,6,941
6,FYFYF,151,1,973,Correct,6,887
6,VKVXV,161,2,891,Correct,6,822
6,ZBZBZ,11,3,1113,Correct,6,824
6,FPFNF,14,2,860,Correct,6,898
6,CXCXC,151,1,773,Correct,6,688
6,YCYCY,152,,,Incorrect,6,718
6,FPFPF,153,,,Incorrect,6,830
6,CVCVB,225,,,Incorrect,6,824
6,ZCZCZ,113,20,1024,Incorrect,6,839
6,CZCNC,161,2,1130,Correct,6,806
6,KIKFK,176,2,741,Correct,6,682
6,PXPXP,15,1,812,Correct,6,800
6,RYRYR,152,1,1123,Correct,6,690
6,ZRZCZ,161,2,632,Correct,6,944
6,RVRVR,151,,,Incorrect,6,936
6,XYXNX,161,,,Incorrect,6,806
6,BVKVK,221,,,Incorrect,6,678
6,CBCBC,12,3,1076,Correct,6,667
7,W,5,3,1166,New Target,7,856
7,RKRKR,151,2,1108,Incorrect,7,721
7,CVCRC,161,2,752,Correct,7,667
7,PKPKP,151,1,705,Correct,7,877
7,FPFPF,152,1,829,Correct,7,702
7,VRVPV,161,2,1219,Correct,7,679
7,ZKZYZ,162,2,827,Correct,7,764
7,PVPCP,233,,,Incorrect,7,786
7,KVKVK,113,,,Incorrect,7,885
7,YXYVY,161,2,601,Correct,7,741
7,FNFNF,151,1,706,Correct,7,820
7,YWYWY,7,1,630,Incorrect,7,854
7,ZYZYZ,13,1,815,Correct,7,861
7,PYPYP,152,1,961,Correct,7,847
7,XRXRX,153,,,Incorrect,7,923
7,PXPXP,154,1,677,Correct,7,726
7,FCFBF,181,2,780,Correct,7,817
7,FVFVF,15,1,896,Correct,7,889
7,CYCZC,161,,,Incorrect,7,921
7,XZXVX,162,2,1313,Correct,7,755
7,PFPFP,151,1,1379,Correct,7,753
7,RVRLR,161,,,Incorrect,7,947
7,ZBZBZ,192,,,Incorrect,7,835
7,VCVNV,16,2,696,Correct,7,713
7,NWNWN,8,,,Incorrect,7,785
7,XNXVX,14,2,1010,Correct,7,875
7,CXCNC,162,2,1449,Correct,7,901
7,YVYVW,225,,,Incorrect,7,802
7,VFVFV,113,,,Incorrect,7,936
7,VFWFV,223,,,Incorrect,7,877
7,CVCFC,222,2,1169,Correct,7,887
7,YBYBY,193,,,Incorrect,7,832
7,PYPYP,15,1,784,Correct,7,657
7,NKNWN,91,,,Incorrect,7,873
7,VNVNV,13,,,Incorrect,7,824
7,RVRVR,152,,,Incorrect,7,827
7,FVFBF,184,,,Incorrect,7,853
7,VZVKV,16,2,649,Correct,7,716
7,VPVCV,162,2,740,Correct,7,766
7,WYZCZ,231,2,668,Correct,7,722
7,PFPFP,113,,,Incorrect,7,733
7,PRPRP,152,1,746,Correct,7,882
7,NWNWN,10,1,1019,Incorrect,7,942
7,VKVCV,14,2,669,Correct,7,668
7,WPYPY,221,1,1203,Correct,7,884
7,VBVBV,195,1,681,Correct,7,749
7,ZKZYZ,16,,,Incorrect,7,813
7,XYXYX,151,1,1068,Correct,7,738
7,FZFXF,161,2,758,Correct,7,701
7,XKXKX,151,,,Incorrect,7,717
7,XPXPX,152,1,749,Correct,7,729
7,FWFWF,11,1,1007,Incorrect,7,873
7,FNFBF,186,2,1028,Correct,7,946
7,ZVZYZ,16,2,733,Correct,7,849
7,FZFZF,151,1,687,Correct,7,809
7,NPNFW,235,2,597,Correct,7,908
7,PCPCP,113,1,564,Correct,7,703
7,NKNWN,122,2,1281,Incorrect,7,843
8,M,5,3,1806,New Target,8,948
8,VYVNV,161,2,1303,Correct,8,744
8,KLKNK,162,2,874,Correct,8,839
8,NRNRN,151,1,731,Correct,8,720
8,VNVFV,161,2,792,Correct,8,670
8,XNXNM,225,1,1200,Correct,8,667
8,CXCVC,222,2,613,Correct,8,757
8,KRKZK,162,2,992,Correct,8,855
8,NMNFN,71,,,Incorrect,8,811
8,ZFZFZ,13,1,765,Correct,8,924
8,YPYCY,161,2,658,Correct,8,766
8,KCKCK,151,,,Incorrect,8,850
8,VNVNV,152,1,1118,Correct,8,821
8,LXLXL,153,1,723,Correct,8,859
8,CLCLC,154,1,1237,Correct,8,826
8,NYNYN,155,,,Incorrect,8,896
8,LCMYL,233,2,1160,Correct,8,895
8,NCNCN,113,,,Incorrect,8,758
8,ZVZRZ,161,,,Incorrect,8,909
8,ZVZVZ,151,1,1310,Correct,8,665
8,PZPVP,161,2,704,Correct,8,824
8,PWPNP,171,2,707,Correct,8,893
8,KLKCM,235,,,Incorrect,8,877
8,XMXMX,8,,,Incorrect,8,751
8,PRPXP,14,2,767,Correct,8,911
8,CVCYC,162,2,1285,Correct,8,838
8,PXPMP,92,2,584,Incorrect,8,691
8,ZCZLZ,14,2,906,Correct,8,686
8,XWXWX,192,1,922,Correct,8,860
8,ZCZLZ,16,2,1140,Correct,8,896
8,MNCYC,231,,,Incorrect,8,653
8,ZXZXZ,113,1,1121,Correct,8,924
8,YRYNY,161,2,630,Correct,8,854
8,ZLZPZ,162,2,787,Correct,8,704
8,VZVZV,151,1,1196,Correct,8,680
8,MXPXP,221,1,1358,Correct,8,950
8,VWVWV,193,1,1068,Correct,8,824
8,PYPYP,16,1,1244,Incorrect,8,688
8,XPXVX,162,,,Incorrect,8,753
8,XLXLX,151,1,627,Correct,8,950
8,YMYMY,10,1,1565,Incorrect,8,831
8,VYVYV,13,1,689,Correct,8,887
8,PWPZP,174,,,Incorrect,8,789
8,PYPKP,16,2,1167,Correct,8,810
8,NPNXN,162,,,Incorrect,8,936
8,KVKVK,223,,,Incorrect,8,911
8,NVNFN,222,2,491,Correct,8,680
8,XNXNX,151,1,893,Correct,8,747
8,YZYMY,112,2,581,Incorrect,8,678
8,PFPFP,13,,,Incorrect,8,931
8,ZWZWZ,195,,,Incorrect,8,722
8,PCPZP,16,2,643,Correct,8,664
8,LRLPL,162,2,1078,Correct,8,927
8,CZCZC,151,1,690,Correct,8,737
8,NZNZN,152,3,487,Incorrect,8,847
8,CVCXC,161,2,580,Correct,8,871
8,XCXCX,151,1,739,Correct,8,754
8,YWYWY,196,1,1036,Correct,8,820
8,NLNLN,15,,,Incorrect,8,928
8,VNVNV,152,,,Incorrect,8,910
8,ZMZMZ,12,,,Incorrect,8,712
9,S,5,3,1175,New Target,9,837
9,NZNZN,151,1,1212,Correct,9,765
9,KVKZK,161,2,732,Correct,9,932
9,LZLZL,151,1,674,Correct,9,863
9,XLXLX,152,1,909,Correct,9,668
9,ZXZXZ,153,1,994,Correct,9,714
9,KNKZK,161,2,901,Correct,9,703
9,NRNYN,162,,,Incorrect,9,882
9,CLCVC,163,2,1474,Correct,9,944
9,ZCZFZ,164,,,Incorrect,9,930
9,NSNSN,7,,,Incorrect,9,732
9,VZVZV,13,1,643,Correct,9,935
9,NVNCN,161,2,710,Correct,9,883
9,VMVMV,191,1,707,Correct,9,814
9,CVCXC,16,2,627,Correct,9,924
9,ZYZRZ,162,2,846,Correct,9,713
9,XNXZX,163,2,710,Correct,9,670
9,PXPXP,151,1,913,Correct,9,714
9,VCVSV,82,2,1218,Incorrect,9,829
9,PRPCP,14,2,653,Correct,9,945
9,ZMZMZ,192,1,1132,Incorrect,9,712
9,ZFZFZ,15,,,Incorrect,9,709
9,FCFCF,152,1,711,Correct,9,928
9,YLYZY,161,2,1387,Correct,9,843
9,KNKVK,162,,,Incorrect,9,943
9,SFPCP,231,2,617,Correct,9,836
9,RPRPR,113,1,1142,Correct,9,715
9,XMXMX,193,1,723,Correct,9,676
9,KFKFK,15,1,858,Correct,9,859
9,VSVSV,9,3,993,Correct,9,672
9,YVSVY,223,,,Incorrect,9,732
9,VPVPV,113,1,725,Correct,9,803
9,XZXZX,152,1,1192,Correct,9,885
9,KZKXK,161,2,1418,Correct,9,814
9,RFRPR,162,,,Incorrect,9,753
9,NVNVS,225,2,1406,Incorrect,9,778
9,ZXZXZ,113,1,878,Correct,9,730
9,SRVRV,221,1,862,Correct,9,844
9,YCYCY,113,1,597,Correct,9,670
9,KMKZK,174,2,717,Correct,9,937
9,FZSVF,233,,,Incorrect,9,819
9,VYVYV,113,1,800,Correct,9,686
9,LVLVL,152,,,Incorrect,9,868
9,YFYFY,153,,,Incorrect,9,950
9,NXNSN,102,,,Incorrect,9,674
9,FNFCF,14,,,Incorrect,9,878
9,KVKVK,151,,,Incorrect,9,764
9,VZVCV,161,2,1073,Correct,9,806
9,ZYZMZ,185,2,924,Correct,9,755
9,VXVZV,16,,,Incorrect,9,726
9,VPVPV,151,,,Incorrect,9,694
9,RVRNS,235,2,801,Correct,9,900
9,YZYZY,113,1,735,Correct,9,887
9,ZSZSZ,11,1,678,Incorrect,9,902
9,FRFRF,13,1,1476,Correct,9,670
9,ZMZMZ,196,1,669,Correct,9,824
9,NZNXN,16,2,1008,Correct,9,897
9,LSLFL,121,2,932,Incorrect,9,938
10,Q,5,3,1905,New Target,10,817
10,ZVZPZ,161,2,850,Correct,10,720
10,RZRZR,151,1,1011,Correct,10,808
10,ZFZFZ,152,1,811,Correct,10,914
10,RZRZR,153,1,813,Correct,10,761
10,PZPXP,161,2,684,Correct,10,932
10,VFQPV,233,2,1311,Correct,10,912
10,ZPZRZ,222,2,933,Correct,10,680
10,CYCVC,162,2,720,Correct,10,934
10,CPCPC,151,1,947,Correct,10,927
10,YZYQY,72,3,1070,Correct,10,855
10,FVFXF,14,2,711,Correct,10,905
10,YNYNQ,225,1,928,Correct,10,793
10,ZYZYZ,113,1,701,Correct,10,726
10,FRFSF,181,2,675,Incorrect,10,928
10,XNXPX,16,2,784,Correct,10,681
10,NXNXN,151,1,1256,Correct,10,695
10,PVPZP,161,2,747,Correct,10,765
10,XVXPX,162,2,695,Correct,10,741
10,FXFVF,163,2,672,Correct,10,748
10,NSNKN,172,2,662,Incorrect,10,936
10,VXVNV,16,2,542,Correct,10,813
10,XZXZX,151,1,782,Correct,10,844
10,VQVQV,8,3,737,Correct,10,764
10,ZYZPZ,14,2,587,Correct,10,711
10,PZPSP,183,2,654,Correct,10,678
10,YVYVY,15,1,853,Correct,10,931
10,NCNQN,92,3,866,Correct,10,849
10,FCFVF,14,2,827,Correct,10,669
10,ZFZFZ,151,1,731,Correct,10,941
10,NSNSN,194,1,860,Correct,10,905
10,YPYFY,16,2,686,Correct,10,729
10,ZKZKZ,151,1,779,Correct,10,804
10,QZRCR,231,2,1049,Correct,10,946
10,YPYVY,222,1,883,Incorrect,10,754
10,ZNZNZ,151,1,667,Correct,10,661
10,VQVQV,10,3,674,Correct,10,867
10,RVRZR,14,2,840,Correct,10,905
10,KRKSK,185,2,825,Correct,10,784
10,NPNPN,15,1,764,Correct,10,832
10,YPYPY,152,1,757,Correct,10,665
10,VCVYV,161,2,891,Correct,10,802
10,FPFNF,162,2,652,Correct,10,892
10,QVXVX,221,2,975,Incorrect,10,837
10,ZVZRZ,222,2,658,Correct,10,711
10,LFLFL,151,1,798,Correct,10,797
10,VLVLV,152,1,931,Correct,10,754
10,KXQXK,223,1,890,Correct,10,937
10,YQYQY,11,3,923,Correct,10,805
10,YCYCY,13,1,1453,Correct,10,728
10,PZPYP,161,2,1221,Correct,10,853
10,LPLFL,162,2,922,Correct,10,760
10,VSVSV,196,1,1093,Correct,10,914
10,VFVYQ,235,2,736,Correct,10,740
10,CZCXC,222,2,707,Correct,10,849
10,PVPCP,162,2,809,Correct,10,852
10,CXCXC,151,1,1009,Correct,10,738
10,NZNZN,152,1,763,Correct,10,844
10,YPYCY,161,2,964,Correct,10,741
10,ZQZQZ,12,3,855,Correct,10,681
11,T,5,3,6703,New Target,11,815
11,KFKFK,151,,,Incorrect,11,731
11,LZLZL,152,1,724,Correct,11,687
11,PFPVP,161,2,619,Correct,11,765
11,FRFPF,162,2,923,Correct,11,720
11,FZFZF,151,1,717,Correct,11,665
11,VTVTV,7,3,899,Correct,11,716
11,KYKCK,14,2,638,Correct,11,909
11,VPVPV,151,1,533,Correct,11,879
11,XQXQX,191,1,1141,Correct,11,801
11,PZPYP,16,2,657,Correct,11,717
11,KXKLK,162,2,685,Correct,11,734
11,TCNCN,221,1,1268,Correct,11,920
11,PZPNP,222,2,863,Correct,11,919
11,RCRPR,162,2,611,Correct,11,725
11,PZPRT,235,2,673,Correct,11,742
11,XFXVX,222,2,637,Correct,11,698
11,LTLVL,81,3,778,Correct,11,772
11,ZCZPZ,14,2,716,Correct,11,939
11,NCNQN,182,2,816,Correct,11,922
11,XZXNX,16,2,709,Correct,11,763
11,ZPZPZ,151,1,703,Correct,11,761
11,CFCFC,152,1,1158,Correct,11,843
11,VXTRV,233,2,729,Correct,11,874
11,CFCVC,222,2,768,Correct,11,829
11,PYPYP,151,1,998,Correct,11,701
11,FQFYF,173,2,944,Correct,11,850
11,CNCFC,16,2,684,Correct,11,828
11,PTPTP,9,3,1388,Correct,11,680
11,ZCZCZ,13,1,628,Correct,11,884
11,KZKZK,152,1,1026,Correct,11,768
11,RLRVR,161,2,816,Correct,11,716
11,ZRZKZ,162,2,708,Correct,11,736
11,KLKLT,225,1,1294,Correct,11,779
11,ZQZQZ,194,1,673,Correct,11,733
11,VZVZV,15,1,925,Correct,11,711
11,RVRZR,161,2,743,Correct,11,920
11,ZPZCZ,162,2,826,Correct,11,895
11,VYVYV,151,1,776,Correct,11,890
11,RVRVR,152,1,898,Correct,11,670
11,PTPTP,10,,,Incorrect,11,663
11,PXPXP,13,1,1247,Correct,11,796
11,KCKCK,152,1,620,Correct,11,892
11,YVYVY,153,1,904,Correct,11,723
11,CYCYC,154,1,622,Correct,11,696
11,XCXCX,155,1,539,Correct,11,756
11,CYCQC,185,2,747,Correct,11,780
11,KCKNK,16,2,767,Correct,11,789
11,VPVPV,151,1,679,Correct,11,849
11,TXFZF,231,2,751,Correct,11,818
11,NYNVN,222,2,612,Correct,11,870
11,VQVXV,176,2,745,Correct,11,901
11,ZRZRZ,15,1,849,Correct,11,813
11,VTVZV,111,2,588,Incorrect,11,851
11,PXPVP,14,2,1349,Correct,11,906
11,FVFVF,151,1,742,Correct,11,742
11,VRVLV,161,2,607,Correct,11,780
11,YCYCY,151,1,982,Correct,11,933
11,XZTZX,223,1,677,Correct,11,781
11,VTVTV,12,1,530,Incorrect,11,671
12,O,5,3,1313,New Target,12,852
12,VXVLV,161,2,959,Correct,12,721
12,KVKCK,162,2,547,Correct,12,696
12,VLVLV,151,1,624,Correct,12,858
12,ZCZVZ,161,2,623,Correct,12,661
12,KFKFK,151,1,725,Correct,12,896
12,XKXKX,152,1,809,Correct,12,942
12,YXYXY,153,1,1355,Correct,12,719
12,FVFVF,154,1,1558,Correct,12,888
12,PVPOP,72,2,979,Incorrect,12,739
12,ZXZYZ,14,2,790,Correct,12,660
12,PXPVP,162,2,695,Correct,12,902
12,ZTZTZ,191,1,863,Correct,12,679
12,CVCKC,16,2,917,Correct,12,770
12,CKCKC,151,1,753,Correct,12,909
12,NPNPN,152,1,627,Correct,12,944
12,ZRZNZ,161,2,723,Correct,12,755
12,OZCZC,221,1,1293,Correct,12,702
12,LFLFL,113,1,633,Correct,12,934
12,CXCXC,152,1,1096,Correct,12,705
12,KPKPK,153,1,559,Correct,12,877
12,FRFKF,161,2,687,Correct,12,655
12,FOFOF,8,3,786,Correct,12,916
12,ZFZFZ,13,,,Incorrect,12,796
12,LKLZO,235,2,826,Correct,12,860
12,KLKZK,222,2,719,Correct,12,766
12,YXYCY,162,2,545,Correct,12,945
12,LOLOL,9,3,923,Correct,12,800
12,XLXLX,13,1,682,Correct,12,820
12,XVXVX,152,1,840,Correct,12,674
12,FTFTF,192,1,1291,Correct,12,826
12,OXNZN,231,2,1019,Correct,12,915
12,CZCZC,113,1,822,Correct,12,771
12,LZLZL,152,1,729,Correct,12,846
12,VLVPV,161,2,669,Correct,12,877
12,VYVYO,225,2,743,Incorrect,12,751
12,XKXKX,113,1,987,Correct,12,811
12,RTRTR,193,1,730,Correct,12,705
12,KVKCK,16,,,Incorrect,12,721
12,ROROR,101,3,807,Correct,12,890
12,PRPRP,13,1,842,Correct,12,833
12,LYLVL,161,2,1264,Correct,12,683
12,PLPLP,151,1,856,Correct,12,708
12,CTCTC,194,1,889,Correct,12,789
12,XZXYX,16,2,1480,Correct,12,795
12,NKNKN,151,1,1076,Correct,12,831
12,VLVZV,161,2,824,Correct,12,934
12,YOYOY,11,3,1017,Correct,12,852
12,PZOZP,223,1,866,Correct,12,898
12,FYFYF,113,1,697,Correct,12,655
12,ZXZVZ,161,2,1284,Correct,12,778
12,VKVZV,162,2,1090,Correct,12,923
12,ZTZTZ,195,1,718,Correct,12,823
12,LKLZL,16,2,873,Correct,12,674
12,KCKVK,162,2,684,Correct,12,742
12,PXPKP,163,2,958,Correct,12,900
12,KCOZK,233,2,698,Correct,12,895
12,FKFKF,113,1,1083,Correct,12,924
12,CTCRC,176,2,873,Correct,12,706
12,NXNXN,15,1,938,Correct,12,728
12,KXKVK,161,2,984,Correct,12,817
12,CPCOC,122,2,1199,Incorrect,12,891
13,H,5,3,1742,New Target,13,650
13,VFVNV,151,2,1029,Incorrect,13,708
13,YVYVY,152,1,791,Correct,13,936
13,XVXVX,153,1,641,Correct,13,654
13,NRNXN,161,2,841,Correct,13,839
13,PZPKP,162,2,804,Correct,13,650
13,HLVLV,221,1,1481,Correct,13,770
13,CXCZC,222,2,621,Correct,13,938
13,LHLYL,71,3,875,Correct,13,754
13,YKYFY,14,2,893,Correct,13,795
13,YOYRY,171,2,715,Correct,13,865
13,ZKZYZ,16,2,742,Correct,13,658
13,RZRZR,151,2,455,Incorrect,13,847
13,NFNYN,161,2,525,Correct,13,734
13,KVKFK,162,2,463,Correct,13,689
13,XFXYX,163,2,542,Correct,13,885
13,LKLVL,164,2,561,Correct,13,681
13,NLNLN,151,1,890,Correct,13,862
13,XCXOX,182,2,1308,Correct,13,747
13,FXFXF,15,1,847,Correct,13,822
13,VHVHV,8,1,859,Incorrect,13,882
13,PVPVP,13,1,631,Correct,13,930
13,CRCXC,161,2,883,Correct,13,711
13,NXNXN,151,1,1122,Correct,13,948
13,XRXRX,152,1,890,Correct,13,874
13,YFYXY,161,2,699,Correct,13,763
13,ZOZOZ,193,1,708,Correct,13,677
13,RZRZR,15,1,865,Correct,13,715
13,FKFKF,152,1,878,Correct,13,853
13,PFPFP,153,1,1134,Correct,13,789
13,XYXHX,92,3,808,Correct,13,702
13,RZRKR,14,2,1008,Correct,13,665
13,FLFLH,225,1,1129,Correct,13,948
13,KRKRK,113,1,891,Correct,13,933
13,ZVZNZ,161,3,810,Incorrect,13,824
13,ZOZOZ,194,1,638,Correct,13,752
13,FZFZF,15,1,647,Correct,13,823
13,FHFKF,101,3,887,Correct,13,657
13,ZXHLZ,233,2,1108,Correct,13,838
13,FKFXF,222,2,874,Correct,13,936
13,CFCYC,162,2,1062,Correct,13,871
13,ZXZVZ,163,2,604,Correct,13,835
13,KCKOK,185,2,1371,Correct,13,808
13,ZXZVH,235,2,1164,Correct,13,652
13,CKCKC,113,1,1537,Correct,13,869
13,ZXZCZ,161,2,866,Correct,13,909
13,YVYVY,151,1,987,Correct,13,724
13,RVHVR,223,1,1588,Correct,13,923
13,ZRZRZ,113,1,1210,Correct,13,826
13,ZHZHZ,11,3,1201,Correct,13,745
13,VZVZV,13,1,757,Correct,13,875
13,HZVRV,231,2,1046,Correct,13,872
13,FVFVF,113,1,743,Correct,13,677
13,RNRCR,161,2,1343,Correct,13,853
13,COCOC,196,1,1056,Correct,13,656
13,VNVXV,16,2,1565,Correct,13,856
13,XHXHX,12,3,1472,Correct,13,849
14,G,5,3,1474,New Target,14,660
14,FZFZF,151,1,781,Correct,14,890
14,RPRVR,161,2,1013,Correct,14,723
14,XCXCX,151,1,838,Correct,14,662
14,YXYXY,152,1,773,Correct,14,879
14,KZKZK,153,1,741,Correct,14,814
14,RYRKR,161,2,701,Correct,14,782
14,FYFNF,162,2,726,Correct,14,806
14,VKVKV,151,1,845,Correct,14,770
14,KPGPK,223,1,1331,Correct,14,744
14,YNYNY,113,1,773,Correct,14,700
14,VYVYV,152,1,668,Correct,14,772
14,YCYXY,161,2,1175,Correct,14,699
14,LKLGL,72,2,860,Incorrect,14,802
14,VXVXV,13,1,732,Correct,14,924
14,KCKVK,161,2,670,Correct,14,902
14,YKYKY,151,1,645,Correct,14,774
14,RHRXR,171,2,571,Correct,14,949
14,FVFCF,16,2,731,Correct,14,697
14,YXYGY,82,2,532,Incorrect,14,687
14,CLCLC,13,1,724,Correct,14,729
14,ZXZCZ,161,2,588,Correct,14,790
14,VLVFV,162,1,580,Incorrect,14,925
14,CPCPG,225,1,559,Correct,14,813
14,KHKNK,172,2,571,Correct,14,766
14,ZKZVZ,16,2,577,Correct,14,656
14,YKYLY,162,2,574,Correct,14,772
14,CNCNC,151,1,651,Correct,14,680
14,PGPGP,9,3,614,Correct,14,766
14,VPVPV,13,1,723,Correct,14,770
14,FXGRF,233,2,598,Correct,14,862
14,CYCVC,222,2,639,Correct,14,908
14,FNFNF,151,1,893,Correct,14,693
14,KFKCK,161,,,Incorrect,14,824
14,ZFZHZ,183,,,Incorrect,14,765
14,NXNXN,15,1,878,Correct,14,764
14,FNFNF,152,1,752,Correct,14,730
14,LXLNG,235,2,768,Correct,14,870
14,XKXVX,222,2,603,Correct,14,734
14,ZHZHZ,194,1,1352,Correct,14,683
14,PFPFP,15,1,951,Correct,14,708
14,ZYZYZ,152,1,1240,Correct,14,816
14,XPXVX,161,,,Incorrect,14,911
14,YCYCY,151,2,979,Incorrect,14,704
14,RGRGR,10,3,1390,Correct,14,859
14,VRVRV,13,,,Incorrect,14,812
14,PKPNP,161,2,788,Correct,14,664
14,XGXGX,11,3,1257,Correct,14,773
14,GZYVY,231,2,890,Correct,14,834
14,VCVNV,222,2,696,Correct,14,912
14,VHVHV,195,,,Incorrect,14,874
14,LXLNL,16,2,639,Correct,14,868
14,GKPKP,221,1,1231,Correct,14,761
14,XRXPX,222,2,1465,Correct,14,943
14,XNXNX,151,1,673,Correct,14,900
14,KHKNK,176,2,734,Incorrect,14,697
14,RZRZR,15,1,1047,Correct,14,680
14,CGCFC,121,2,1189,Incorrect,14,756
15,A,5,3,1566,New Target,15,776
15,XRXFX,161,2,903,Correct,15,734
15,RXRKR,162,2,867,Correct,15,936
15,YRYRY,151,1,916,Correct,15,874
15,XPXPX,152,1,977,Correct,15,885
15,RPRPR,153,1,653,Correct,15,858
15,NCNCN,154,1,660,Correct,15,807
15,RXRZR,161,2,674,Correct,15,737
15,NANAN,7,3,1172,Correct,15,897
15,KCKYK,14,2,731,Correct,15,807
15,XKXFX,162,2,756,Correct,15,652
15,ZLZKZ,163,2,558,Correct,15,731
15,VCVZV,164,2,631,Correct,15,860
15,XCXVX,165,2,655,Correct,15,875
15,LKLZA,235,2,732,Correct,15,773
15,NCNCN,113,1,1357,Correct,15,946
15,YGYGY,191,1,1162,Correct,15,854
15,VLVLV,15,1,753,Correct,15,731
15,XRXRX,152,1,1115,Correct,15,702
15,KAKPK,81,3,817,Correct,15,858
15,YZAZY,233,1,1414,Incorrect,15,865
15,CFCFC,113,1,774,Correct,15,666
15,VNVLV,161,2,906,Correct,15,886
15,KPKVK,162,2,885,Correct,15,933
15,NCNRN,163,2,735,Correct,15,915
15,FGFGF,192,1,618,Correct,15,698
15,RCRYR,16,2,660,Correct,15,801
15,KRKCK,162,2,749,Correct,15,745
15,CRCRC,151,,,Incorrect,15,910
15,XPAPX,223,1,1032,Correct,15,863
15,LPLXL,222,2,701,Correct,15,856
15,CGCVC,173,2,1083,Correct,15,677
15,FKFZF,16,2,1112,Correct,15,679
15,CACAC,9,3,875,Correct,15,916
15,XCXCX,13,1,753,Correct,15,721
15,AXRXR,221,1,1203,Correct,15,872
15,NKNRN,222,2,695,Correct,15,800
15,KNKFK,162,2,893,Correct,15,936
15,KAKAK,10,3,1033,Correct,15,904
15,ZCZRZ,14,2,758,Correct,15,817
15,RPRPR,151,1,1463,Correct,15,842
15,NCNCN,152,1,711,Correct,15,663
15,RYRGR,184,,,Incorrect,15,747
15,VPVPV,15,1,745,Correct,15,821
15,RCRCA,225,1,875,Correct,15,899
15,KXKPK,222,2,685,Correct,15,745
15,NPNPN,151,1,599,Correct,15,744
15,YCYCY,152,1,599,Correct,15,716
15,PXPAP,112,2,1112,Incorrect,15,706
15,ZCZNZ,14,2,626,Correct,15,740
15,KYKGK,185,2,505,Correct,15,828
15,ANLPL,231,2,728,Correct,15,900
15,CXCPC,222,2,524,Correct,15,844
15,YRYRY,151,2,1515,Incorrect,15,811
15,LGLGL,196,1,882,Correct,15,873
15,VYVLV,16,2,639,Correct,15,766
15,KVKVK,151,1,1035,Correct,15,824
15,RKRKR,152,1,1143,Correct,15,803
15,VXVXV,153,1,1120,Correct,15,703
15,XAXAX,12,3,1532,Correct,15,681
