Trial No,Stimulus,Trigger,Response,Response Time(ms),Correct,Block,Fixation Duration
Practice
OT Practice
1,SKSKS,15,1,1420,Correct,0,847
1,DLDUD,16,2,922,Correct,0,839
1,PDPGP,16,2,837,Correct,0,925
1,MWMWM,15,1,1015,Correct,0,889
1,FTFTF,15,1,818,Correct,0,833
1,AXAMA,16,2,795,Correct,0,708
1,RYRGR,16,2,676,Correct,0,720
1,DODOD,15,1,622,Correct,0,820
1,QTQAQ,16,2,1097,Correct,0,876
1,YEYEY,15,1,756,Correct,0,782
2,GYGDG,16,1,1127,False,0,662
2,SWSWS,15,1,812,Correct,0,890
2,HLHUH,16,2,958,Correct,0,935
2,DEDED,15,1,845,Correct,0,748
2,ZPZOZ,16,2,895,Correct,0,878
2,ATATA,15,1,863,Correct,0,842
2,QOQOQ,15,1,704,Correct,0,909
2,FPFGF,16,2,716,Correct,0,789
2,TRTET,16,2,759,Correct,0,698
2,DQDQD,15,1,1025,Correct,0,665
AT Practice
1,TKTKT,15,,,False,0,748
1,SLSUS,16,2,1150,Correct,0,786
1,VZVGV,7,,,False,0,775
1,XWXZX,7,2,1025,False,0,723
1,ATATA,15,1,734,Correct,0,780
1,HXZMH,16,,,False,0,736
1,TZTZT,7,3,679,Correct,0,719
1,UOUOU,15,2,1034,False,0,945
1,ZTWAW,16,3,875,False,0,685
1,RZRER,7,,,False,0,764
2,JYJDJ,16,2,1092,Correct,0,761
2,DWDWD,15,1,1137,Correct,0,749
2,GNGNG,7,3,1053,Correct,0,750
2,NEZEZ,16,1,983,Correct,0,846
2,RNROR,7,3,876,Correct,0,673
2,QTQNQ,7,2,826,False,0,935
2,HOHON,15,1,954,Correct,0,922
2,KPKGK,16,2,1051,Correct,0,764
2,DRDED,16,2,948,Correct,0,919
2,LNLNL,7,3,682,Correct,0,653
4,GLGLG,15,1,1061,Correct,0,847
4,DTDID,16,2,1180,Correct,0,851
4,SMSGS,16,2,1060,Correct,0,770
4,ZFZYZ,7,3,771,Correct,0,746
4,TSTFT,7,3,956,Correct,0,740
4,OFOFO,7,3,695,Correct,0,941
4,WYFGW,16,2,1150,Correct,0,854
4,WYWYW,15,1,833,Correct,0,915
4,MFMCM,7,3,753,Correct,0,870
4,HQHEH,16,2,1080,Correct,0,863
Trials
1,D,5,3,17274,New Target,1,786
1,ZNZYZ,161,,,Incorrect,1,706
1,FZFZF,151,,,Incorrect,1,813
1,RKRKR,152,,,Incorrect,1,761
1,RXRNR,161,2,1211,Correct,1,815
1,CNCFC,162,2,1132,Correct,1,673
1,PDPDP,7,1,670,Incorrect,1,666
1,CPCFC,14,2,1002,Correct,1,851
1,VLVNV,162,2,922,Correct,1,882
1,KFKFK,151,1,1510,Correct,1,655
1,ZNZNZ,152,2,774,Incorrect,1,816
1,KCKPD,235,2,1120,Correct,1,732
1,ZKZFZ,222,2,931,Correct,1,651
1,NRNZN,162,2,1239,Correct,1,808
1,KXKRK,163,2,788,Correct,1,672
1,YPYZY,164,2,1162,Correct,1,915
1,FKDKF,223,1,938,Correct,1,696
1,RPRPR,113,1,900,Correct,1,658
1,VRVKV,161,2,780,Correct,1,705
1,RFRPR,162,2,795,Correct,1,695
1,KVKVK,151,1,851,Correct,1,802
1,YKYVY,161,2,1068,Correct,1,688
1,VDVDV,8,3,1183,Correct,1,660
1,DVZVZ,221,2,918,Incorrect,1,938
1,YFYFY,113,1,827,Correct,1,798
1,ZYZYZ,152,1,946,Correct,1,858
1,VLVXV,161,2,743,Correct,1,784
1,DPXZX,231,2,935,Correct,1,652
1,RYRYR,113,1,957,Correct,1,718
1,PDPNP,91,3,897,Correct,1,821
1,KXKXK,13,1,902,Correct,1,813
1,ZYZYZ,152,1,687,Correct,1,733
1,VKVKV,153,1,722,Correct,1,723
1,YZYZY,154,1,1385,Correct,1,848
1,NLNZN,161,2,1165,Correct,1,798
1,ZNDYZ,233,2,1226,Correct,1,772
1,PCPXP,222,2,642,Correct,1,841
1,ZVZFZ,162,2,1015,Correct,1,706
1,RCRZR,163,2,710,Correct,1,896
1,LRLRL,151,1,722,Correct,1,818
1,ZDZDZ,10,1,757,Incorrect,1,667
1,RNRZR,14,2,785,Correct,1,770
1,CXCYC,162,2,940,Correct,1,786
1,RCRLR,163,2,539,Correct,1,917
1,FRFRF,151,1,655,Correct,1,732
1,XFXFX,152,1,1411,Correct,1,682
1,RPRLR,161,2,851,Correct,1,848
1,YXYRY,162,,,Incorrect,1,777
1,FYFYF,151,1,679,Correct,1,763
1,YZYVY,161,2,707,Correct,1,836
1,YKYKY,151,1,831,Correct,1,822
1,XRXRX,152,1,585,Correct,1,754
1,XVXZX,161,2,767,Correct,1,651
1,PDPDP,11,1,705,Incorrect,1,661
1,ZFZFZ,13,1,762,Correct,1,927
1,PXPXP,152,1,760,Correct,1,724
1,LYLYL,153,1,948,Correct,1,797
1,NKNKD,225,1,690,Correct,1,906
1,ZNZNZ,113,1,741,Correct,1,711
1,PYPZP,161,2,996,Correct,1,722
1,XPXPX,151,1,1237,Correct,1,860
1,VLVLV,152,1,955,Correct,1,844
1,PKPXP,161,2,893,Correct,1,885
1,FZFZF,151,1,823,Correct,1,719
1,LDLDL,12,3,1167,Correct,1,841
2,U,5,3,4073,New Target,2,908
2,ZVZFZ,161,2,1207,Correct,2,767
2,FZFZF,151,1,1234,Correct,2,740
2,RFRFR,152,1,983,Correct,2,889
2,NZNKN,161,2,953,Correct,2,784
2,FZFNF,162,2,851,Correct,2,679
2,RXRXR,151,1,1274,Correct,2,839
2,KRKYK,161,2,1068,Correct,2,922
2,NZNPN,162,2,924,Correct,2,816
2,XPXPX,151,1,802,Correct,2,739
2,CUCUC,7,1,1163,Incorrect,2,802
2,RFRFR,13,1,884,Correct,2,895
2,VYVXV,161,2,807,Correct,2,842
2,VDVDV,191,1,898,Correct,2,731
2,ZKZRZ,15,2,1142,Correct,2,822
2,XCXCX,151,1,868,Correct,2,755
2,CNCUC,82,3,1286,Correct,2,888
2,RCRCR,13,1,936,Correct,2,905
2,ZPZXZ,161,2,943,Correct,2,721
2,FKFYF,162,2,967,Correct,2,729
2,ZFZYZ,163,2,681,Correct,2,842
2,PXPXP,151,1,979,Correct,2,873
2,URCKC,231,,,Incorrect,2,878
2,PCPCP,113,1,795,Correct,2,867
2,XNXNX,152,2,682,Incorrect,2,726
2,RCRZR,161,2,923,Correct,2,723
2,XVXVX,151,1,693,Correct,2,678
2,NRNRN,152,2,871,Incorrect,2,719
2,FPFPF,225,1,698,Correct,2,839
2,XVXFX,222,2,914,Correct,2,950
2,PRPRP,151,1,887,Correct,2,738
2,FYFCF,161,2,807,Correct,2,904
2,XUXFX,91,3,577,Correct,2,805
2,CYCVC,14,2,809,Correct,2,685
2,VDVKV,172,2,894,Correct,2,942
2,YCYCY,15,1,953,Correct,2,675
2,NKNLN,161,2,906,Correct,2,904
2,XPUKX,233,2,1094,Correct,2,685
2,ZPZPZ,113,1,727,Correct,2,747
2,KRKRK,152,1,1142,Correct,2,714
2,XKXKX,153,1,770,Correct,2,775
2,YUYVY,101,3,739,Correct,2,662
2,XKXFU,235,2,1183,Correct,2,774
2,NFNFN,113,1,891,Correct,2,757
2,KDKDK,193,1,997,Correct,2,725
2,XYXKX,16,2,1404,Correct,2,669
2,YZUZY,223,1,882,Correct,2,690
2,KFKVK,222,,,Incorrect,2,732
2,LYLYL,151,1,818,Correct,2,913
2,CXCDC,184,2,826,Incorrect,2,847
2,XZXNX,16,2,902,Correct,2,697
2,PXPXP,151,1,896,Correct,2,654
2,ZRZYZ,161,2,691,Correct,2,930
2,PUPYP,111,3,595,Correct,2,714
2,RNRNR,14,1,1106,Correct,2,897
2,KDKDK,195,1,673,Correct,2,803
2,KNKNK,15,1,784,Correct,2,737
2,PRPKP,161,2,1270,Correct,2,855
2,UNYNY,221,1,1396,Correct,2,725
2,NYNYN,113,1,858,Correct,2,660
2,YXYXY,152,1,676,Incorrect,2,761
2,RDRDR,196,1,689,Correct,2,892
2,FCFCF,15,1,643,Correct,2,684
2,ZKZKZ,152,1,707,Correct,2,831
2,ZUZUZ,12,1,1036,Incorrect,2,935
3,E,5,3,5827,New Target,3,937
3,YZYZY,151,1,1230,Correct,3,881
3,VFVNV,161,2,747,Correct,3,687
3,KYKYK,151,1,892,Correct,3,653
3,NKNKN,152,1,1025,Correct,3,843
3,XVXNX,161,2,864,Correct,3,789
3,RERFR,71,3,733,Correct,3,694
3,XNXNX,13,1,870,Correct,3,871
3,NXNXN,152,1,766,Correct,3,743
3,ZLZNZ,161,2,922,Correct,3,748
3,CUCNC,171,3,1066,Incorrect,3,881
3,FYFRF,16,2,1498,Correct,3,745
3,ZLZLZ,151,1,1390,Correct,3,651
3,YZYZY,152,1,1088,Correct,3,804
3,CYCYC,153,1,1028,Correct,3,692
3,VUVUV,192,1,1304,Correct,3,761
3,PXPRP,16,2,1310,Correct,3,798
3,YPYPY,151,1,856,Correct,3,678
3,CECEC,8,3,756,Correct,3,722
3,VNENV,223,1,1163,Correct,3,942
3,KRKFK,222,2,994,Correct,3,915
3,XLXLE,225,1,1225,Correct,3,706
3,RFRUR,183,2,1069,Correct,3,917
3,XRXLX,16,2,990,Correct,3,719
3,NZNPN,162,2,649,Correct,3,931
3,XZXZX,151,1,901,Correct,3,916
3,FZFZF,152,1,817,Correct,3,674
3,PFPFP,153,1,760,Correct,3,812
3,YZYXY,161,2,769,Correct,3,872
3,KEKEK,9,3,897,Correct,3,660
3,CXCPC,14,2,853,Correct,3,898
3,VXVXV,151,1,827,Correct,3,753
3,NUNZN,174,2,1131,Correct,3,661
3,RKRVR,16,1,921,Incorrect,3,792
3,XRXRX,151,1,818,Correct,3,680
3,ERNFN,231,2,1050,Incorrect,3,833
3,YRYNY,222,2,925,Correct,3,735
3,PZPEP,102,3,1026,Correct,3,774
3,ZYZXZ,14,2,838,Correct,3,703
3,RZRVR,162,2,942,Correct,3,795
3,XRXRX,151,1,883,Correct,3,724
3,KUKFK,175,2,1143,Correct,3,899
3,RKRKR,15,1,947,Correct,3,832
3,ZFZFZ,152,1,1538,Correct,3,872
3,YZYVY,161,2,899,Correct,3,745
3,XPXNX,162,2,1045,Correct,3,885
3,YRYRY,151,1,1318,Correct,3,818
3,EPVPV,221,1,1243,Correct,3,881
3,CRCEC,112,3,1007,Correct,3,922
3,RFRCR,14,2,1189,Correct,3,728
3,CPCVC,162,2,1155,Correct,3,710
3,RXRCR,163,2,797,Correct,3,808
3,VNVLV,164,2,1309,Correct,3,652
3,ZXZXZ,151,1,832,Correct,3,901
3,ZCZCZ,152,1,884,Correct,3,914
3,PYPUP,186,2,935,Correct,3,895
3,YKYPY,16,2,1196,Correct,3,804
3,YREXY,233,2,940,Correct,3,690
3,ZKZKZ,113,1,750,Correct,3,880
3,XLXNX,161,2,746,Correct,3,830
3,KFKRE,235,2,866,Correct,3,871
3,RXRLR,222,2,1038,Correct,3,669
3,RERXR,121,3,732,Correct,3,865
4,J,5,3,8171,New Target,4,720
4,CYCVC,161,2,1010,Correct,4,875
4,RXRCR,162,2,1173,Correct,4,788
4,FPFVF,163,2,1007,Correct,4,790
4,LZLZL,151,1,787,Correct,4,786
4,PLPLP,152,1,969,Correct,4,890
4,NPNPN,153,1,821,Correct,4,925
4,XZXZX,161,1,1070,Incorrect,4,829
4,CNCKC,162,2,799,Correct,4,716
4,PCPYJ,235,2,1369,Correct,4,795
4,VYVYV,113,1,863,Correct,4,709
4,RLRLR,152,1,938,Correct,4,744
4,CJCJC,7,3,702,Correct,4,847
4,ZLZLZ,13,1,959,Correct,4,699
4,FZFZF,152,1,722,Correct,4,788
4,CFCFC,153,1,642,Correct,4,724
4,PZPZP,154,1,723,Correct,4,788
4,XEXEX,191,1,1300,Correct,4,670
4,NVNFN,16,2,1064,Correct,4,898
4,KYKYK,151,1,1203,Correct,4,896
4,ZNZVZ,161,2,865,Correct,4,682
4,YVJXY,233,2,1252,Correct,4,893
4,XFXFX,113,1,699,Correct,4,875
4,XNXNX,152,1,1021,Correct,4,689
4,FJFKF,81,3,1070,Correct,4,770
4,CZCYC,14,2,994,Correct,4,667
4,ZXZCZ,162,2,929,Correct,4,934
4,RYRYJ,225,2,1331,Incorrect,4,836
4,FPFZF,222,2,858,Correct,4,773
4,XRXRX,151,1,756,Correct,4,713
4,YPYEY,182,2,1188,Correct,4,695
4,XRXRX,15,1,873,Correct,4,930
4,XZXPX,161,2,1010,Correct,4,794
4,CJCJC,9,3,902,Correct,4,729
4,ZXZVZ,14,2,1178,Correct,4,786
4,VKVKV,151,1,871,Correct,4,789
4,VEVNV,173,2,1075,Correct,4,681
4,ZKZVZ,16,2,916,Correct,4,778
4,XVXJX,102,2,734,Incorrect,4,680
4,RXRVR,14,2,1347,Correct,4,927
4,LRLRL,151,1,1258,Correct,4,744
4,YNJNY,223,,,Incorrect,4,663
4,NPNJN,222,3,1061,Incorrect,4,710
4,ZEZEZ,194,1,1138,Correct,4,855
4,ZNZNZ,15,1,815,Correct,4,805
4,YZYZY,152,1,675,Correct,4,875
4,XYXYX,153,1,748,Correct,4,921
4,ZXZXZ,221,1,862,Correct,4,653
4,LYLZL,222,2,881,Correct,4,932
4,CYCNC,162,2,1068,Correct,4,741
4,XEXEX,195,1,1029,Correct,4,871
4,CVCXC,16,2,923,Correct,4,654
4,ZPZXZ,162,2,972,Correct,4,899
4,FZFZF,151,1,1202,Correct,4,747
4,RXRJR,112,3,1324,Correct,4,792
4,PRPFP,14,2,846,Correct,4,875
4,PKPEP,186,2,1556,Correct,4,871
4,XZXPX,16,2,849,Correct,4,778
4,JCZVZ,231,2,1064,Correct,4,789
4,RXRLR,222,2,932,Correct,4,836
4,VZVZV,151,1,766,Correct,4,702
4,XJXJX,12,3,1254,Correct,4,856
5,I,5,3,4607,New Target,5,903
5,PCPCP,151,1,1526,Correct,5,747
5,XYXYX,152,1,705,Correct,5,909
5,VXVXV,153,1,764,Correct,5,887
5,XVXVX,154,1,978,Correct,5,894
5,ZRZXZ,161,2,1058,Correct,5,852
5,FPFZF,162,2,823,Correct,5,666
5,ZYZYZ,151,1,707,Correct,5,672
5,RVRZR,161,2,821,Correct,5,675
5,CICIC,7,3,834,Correct,5,718
5,XLXLX,13,1,1120,Correct,5,697
5,YVYVY,152,1,735,Correct,5,744
5,CJCJC,191,1,1228,Correct,5,725
5,FNFCF,16,2,874,Correct,5,719
5,PVPRP,162,2,1102,Correct,5,895
5,FZFZF,151,1,887,Correct,5,906
5,NVIVN,223,1,1310,Correct,5,744
5,CVCIC,82,3,1030,Correct,5,706
5,ZXZXZ,13,1,825,Correct,5,736
5,FCFZF,161,2,819,Correct,5,812
5,IXRXR,221,1,1100,Correct,5,770
5,ZPZNZ,222,2,957,Correct,5,704
5,VZVZV,151,1,1167,Correct,5,880
5,YRYNY,161,2,798,Correct,5,700
5,VNVPV,162,2,953,Correct,5,798
5,RVRJR,182,2,1197,Correct,5,807
5,VRVRV,15,1,914,Correct,5,940
5,VIVIV,9,3,747,Correct,5,693
5,CXCVC,14,2,777,Correct,5,758
5,PZPZP,151,1,680,Correct,5,669
5,IXVKV,231,2,1197,Correct,5,669
5,YJYCY,173,2,1014,Incorrect,5,777
5,VYVYV,15,1,948,Correct,5,864
5,YVYVY,152,1,775,Correct,5,818
5,NVNVN,153,1,624,Correct,5,788
5,XYXVX,161,2,1166,Correct,5,828
5,NJNCN,174,2,1174,Correct,5,849
5,NXNYN,16,2,1173,Correct,5,682
5,VXVCV,162,2,621,Correct,5,909
5,ZKZKZ,151,1,1246,Correct,5,823
5,XRXYX,161,2,731,Correct,5,708
5,ZCZXZ,162,2,844,Correct,5,675
5,KVKYI,235,2,1012,Correct,5,848
5,CNCNC,113,1,967,Correct,5,683
5,RIRIR,10,3,831,Correct,5,715
5,VYVXV,14,2,776,Correct,5,823
5,FXIRF,233,2,975,Correct,5,907
5,PFPFP,113,1,789,Correct,5,713
5,VPVPV,152,1,900,Correct,5,669
5,ZJZJZ,195,1,1302,Correct,5,922
5,ZVZNZ,16,2,929,Correct,5,674
5,YVYXY,162,2,1099,Correct,5,710
5,PRPRP,151,2,1208,Incorrect,5,800
5,YPYPY,152,1,612,Correct,5,780
5,ZIZPZ,111,3,824,Correct,5,727
5,NKNXN,14,2,1061,Correct,5,708
5,RZRXR,162,2,1205,Correct,5,757
5,RXRXR,151,1,826,Correct,5,895
5,ZJZJZ,196,1,1270,Correct,5,710
5,CVCVI,225,1,1048,Incorrect,5,939
5,NKNKN,113,1,836,Correct,5,869
5,NRNZN,161,2,1305,Correct,5,927
5,CNCNC,151,1,705,Correct,5,727
5,RFRIR,122,3,1405,Correct,5,782
6,B,5,3,6021,New Target,6,753
6,YKYZY,161,,,Incorrect,6,794
6,VCVRV,162,2,928,Correct,6,845
6,XVXVX,151,1,746,Correct,6,689
6,KZKRK,161,2,773,Correct,6,814
6,ZVZXZ,162,2,1579,Correct,6,859
6,RCRNR,163,2,1085,Correct,6,706
6,CXCRC,164,2,669,Correct,6,771
6,VNBCV,233,2,988,Correct,6,725
6,CXCVC,222,2,797,Correct,6,858
6,RFRFR,151,1,758,Correct,6,816
6,XPXRX,161,1,658,Incorrect,6,746
6,RYRBR,72,3,1109,Correct,6,661
6,ZKZKZ,13,1,1509,Correct,6,796
6,FIFRF,171,2,1016,Correct,6,704
6,VZVLV,16,2,1097,Correct,6,819
6,RPRVR,162,2,921,Correct,6,705
6,YBYBY,8,3,769,Correct,6,695
6,PYPVP,14,2,1325,Correct,6,784
6,NININ,192,1,1230,Correct,6,868
6,RNRNR,15,1,872,Correct,6,806
6,NXNVN,161,2,992,Correct,6,779
6,RNRNR,151,1,848,Correct,6,890
6,FRFVF,161,2,1466,Correct,6,731
6,YVYFB,235,2,823,Incorrect,6,866
6,ZRZXZ,222,2,846,Correct,6,872
6,VNVIV,193,2,1077,Incorrect,6,819
6,PXPNP,16,2,1534,Correct,6,921
6,ZXZPZ,162,2,942,Correct,6,828
6,VBVBV,9,3,868,Correct,6,717
6,CXCXC,13,1,919,Correct,6,918
6,PCPFP,161,2,815,Correct,6,750
6,KNKNK,151,1,1004,Correct,6,679
6,XIXIX,194,1,947,Correct,6,677
6,CYCYC,15,1,907,Correct,6,679
6,FVFYF,161,2,977,Correct,6,748
6,YNYRY,162,2,870,Correct,6,731
6,BVPXP,231,2,1198,Correct,6,785
6,NXNXN,113,1,1063,Correct,6,839
6,FRFRF,152,1,819,Correct,6,895
6,YVYVY,153,1,833,Correct,6,675
6,ZKZCZ,161,2,886,Correct,6,850
6,VIVXV,175,2,1041,Correct,6,685
6,PRBRP,223,,,Incorrect,6,747
6,YZYBY,102,3,820,Correct,6,752
6,CXCVC,14,2,1159,Correct,6,921
6,FYFYF,151,1,881,Correct,6,869
6,VKVXV,161,2,1317,Correct,6,828
6,ZBZBZ,11,3,796,Correct,6,787
6,FPFNF,14,2,869,Correct,6,782
6,CXCXC,151,1,1033,Correct,6,827
6,YCYCY,152,1,827,Correct,6,809
6,FPFPF,153,1,805,Correct,6,803
6,CVCVB,225,1,850,Correct,6,660
6,ZCZCZ,113,1,803,Correct,6,939
6,CZCNC,161,2,1057,Correct,6,667
6,KIKFK,176,2,1474,Correct,6,777
6,PXPXP,15,1,1201,Correct,6,809
6,RYRYR,152,1,1035,Correct,6,759
6,ZRZCZ,161,2,840,Correct,6,853
6,RVRVR,151,1,1044,Correct,6,675
6,XYXNX,161,2,999,Correct,6,772
6,BVKVK,221,1,1301,Correct,6,912
6,CBCBC,12,3,921,Correct,6,886
7,W,5,3,4318,New Target,7,778
7,RKRKR,151,1,1105,Correct,7,861
7,CVCRC,161,2,859,Correct,7,929
7,PKPKP,151,1,705,Correct,7,880
7,FPFPF,152,1,858,Correct,7,921
7,VRVPV,161,2,853,Correct,7,714
7,ZKZYZ,162,2,1023,Correct,7,757
7,PVPCP,233,2,800,Correct,7,767
7,KVKVK,113,1,1017,Correct,7,841
7,YXYVY,161,2,1529,Correct,7,801
7,FNFNF,151,1,963,Correct,7,883
7,YWYWY,7,3,1466,Correct,7,686
7,ZYZYZ,13,1,718,Correct,7,715
7,PYPYP,152,1,810,Correct,7,831
7,XRXRX,153,1,894,Correct,7,908
7,PXPXP,154,1,1104,Correct,7,907
7,FCFBF,181,2,1341,Correct,7,800
7,FVFVF,15,1,1127,Correct,7,692
7,CYCZC,161,2,964,Correct,7,776
7,XZXVX,162,2,1512,Correct,7,773
7,PFPFP,151,1,821,Correct,7,777
7,RVRLR,161,2,794,Correct,7,908
7,ZBZBZ,192,1,1428,Correct,7,766
7,VCVNV,16,2,804,Correct,7,814
7,NWNWN,8,3,990,Correct,7,811
7,XNXVX,14,2,1111,Correct,7,686
7,CXCNC,162,2,819,Correct,7,785
7,YVYVW,225,1,837,Correct,7,917
7,VFVFV,113,1,701,Correct,7,820
7,VFWFV,223,1,768,Correct,7,689
7,CVCFC,222,2,702,Correct,7,677
7,YBYBY,193,1,812,Correct,7,828
7,PYPYP,15,1,1017,Correct,7,672
7,NKNWN,91,2,1306,Incorrect,7,775
7,VNVNV,13,2,815,Incorrect,7,787
7,RVRVR,152,1,755,Correct,7,881
7,FVFBF,184,2,799,Incorrect,7,778
7,VZVKV,16,2,1145,Correct,7,751
7,VPVCV,162,2,939,Correct,7,686
7,WYZCZ,231,2,1124,Correct,7,651
7,PFPFP,113,1,992,Correct,7,829
7,PRPRP,152,1,1486,Correct,7,885
7,NWNWN,10,3,688,Correct,7,721
7,VKVCV,14,2,1211,Correct,7,910
7,WPYPY,221,1,713,Correct,7,676
7,VBVBV,195,1,700,Correct,7,678
7,ZKZYZ,16,2,813,Correct,7,676
7,XYXYX,151,1,808,Correct,7,715
7,FZFXF,161,2,823,Correct,7,674
7,XKXKX,151,1,930,Correct,7,787
7,XPXPX,152,1,834,Correct,7,916
7,FWFWF,11,3,686,Correct,7,718
7,FNFBF,186,2,839,Correct,7,883
7,ZVZYZ,16,2,1138,Correct,7,742
7,FZFZF,151,1,741,Correct,7,712
7,NPNFW,235,2,787,Correct,7,704
7,PCPCP,113,1,830,Correct,7,830
7,NKNWN,122,3,1300,Correct,7,856
8,M,5,3,11148,New Target,8,843
8,VYVNV,161,2,1471,Correct,8,686
8,KLKNK,162,2,1022,Correct,8,845
8,NRNRN,151,3,721,Incorrect,8,741
8,VNVFV,161,2,1383,Correct,8,929
8,XNXNM,225,,,Incorrect,8,755
8,CXCVC,222,2,725,Correct,8,881
8,KRKZK,162,2,1007,Correct,8,863
8,NMNFN,71,3,868,Correct,8,719
8,ZFZFZ,13,1,750,Correct,8,680
8,YPYCY,161,2,855,Correct,8,843
8,KCKCK,151,1,809,Correct,8,949
8,VNVNV,152,1,1472,Correct,8,921
8,LXLXL,153,1,763,Correct,8,947
8,CLCLC,154,1,629,Correct,8,801
8,NYNYN,155,1,730,Correct,8,650
8,LCMYL,233,2,936,Correct,8,713
8,NCNCN,113,1,718,Correct,8,747
8,ZVZRZ,161,,,Incorrect,8,947
8,ZVZVZ,151,1,800,Correct,8,798
8,PZPVP,161,2,760,Correct,8,782
8,PWPNP,171,2,1458,Correct,8,849
8,KLKCM,235,2,971,Correct,8,654
8,XMXMX,8,3,689,Correct,8,721
8,PRPXP,14,,,Incorrect,8,806
8,CVCYC,162,2,950,Correct,8,892
8,PXPMP,92,3,935,Correct,8,864
8,ZCZLZ,14,2,936,Correct,8,883
8,XWXWX,192,1,1231,Correct,8,753
8,ZCZLZ,16,2,852,Correct,8,927
8,MNCYC,231,2,809,Correct,8,838
8,ZXZXZ,113,1,1284,Correct,8,791
8,YRYNY,161,2,930,Correct,8,859
8,ZLZPZ,162,2,1466,Correct,8,871
8,VZVZV,151,1,731,Correct,8,771
8,MXPXP,221,1,923,Correct,8,737
8,VWVWV,193,1,1395,Correct,8,704
8,PYPYP,16,1,801,Incorrect,8,884
8,XPXVX,162,2,831,Correct,8,697
8,XLXLX,151,1,947,Correct,8,941
8,YMYMY,10,3,1075,Correct,8,918
8,VYVYV,13,1,799,Correct,8,941
8,PWPZP,174,2,922,Correct,8,668
8,PYPKP,16,2,898,Correct,8,714
8,NPNXN,162,2,1286,Correct,8,816
8,KVKVK,223,1,1055,Correct,8,768
8,NVNFN,222,2,938,Correct,8,898
8,XNXNX,151,1,1212,Correct,8,832
8,YZYMY,112,3,1286,Correct,8,831
8,PFPFP,13,,,Incorrect,8,750
8,ZWZWZ,195,,,Incorrect,8,680
8,PCPZP,16,2,907,Correct,8,902
8,LRLPL,162,2,1359,Correct,8,769
8,CZCZC,151,1,678,Correct,8,683
8,NZNZN,152,1,664,Correct,8,750
8,CVCXC,161,2,775,Correct,8,787
8,XCXCX,151,1,781,Correct,8,875
8,YWYWY,196,1,887,Correct,8,762
8,NLNLN,15,1,879,Correct,8,722
8,VNVNV,152,1,777,Correct,8,695
8,ZMZMZ,12,3,698,Correct,8,651
9,S,5,3,9620,New Target,9,667
9,NZNZN,151,1,1053,Correct,9,748
9,KVKZK,161,2,879,Correct,9,778
9,LZLZL,151,1,695,Correct,9,722
9,XLXLX,152,1,931,Correct,9,856
9,ZXZXZ,153,1,904,Correct,9,849
9,KNKZK,161,2,977,Correct,9,713
9,NRNYN,162,2,823,Correct,9,746
9,CLCVC,163,2,734,Correct,9,778
9,ZCZFZ,164,2,776,Correct,9,880
9,NSNSN,7,1,1296,Incorrect,9,913
9,VZVZV,13,1,1046,Correct,9,795
9,NVNCN,161,2,875,Correct,9,689
9,VMVMV,191,1,1279,Correct,9,915
9,CVCXC,16,2,840,Correct,9,765
9,ZYZRZ,162,2,810,Correct,9,911
9,XNXZX,163,2,985,Correct,9,662
9,PXPXP,151,1,847,Correct,9,661
9,VCVSV,82,3,873,Correct,9,706
9,PRPCP,14,2,1008,Correct,9,788
9,ZMZMZ,192,,,Incorrect,9,889
9,ZFZFZ,15,1,761,Correct,9,830
9,FCFCF,152,1,644,Correct,9,807
9,YLYZY,161,2,800,Correct,9,902
9,KNKVK,162,2,1253,Correct,9,883
9,SFPCP,231,2,1163,Correct,9,842
9,RPRPR,113,1,1042,Correct,9,861
9,XMXMX,193,1,1317,Correct,9,721
9,KFKFK,15,1,839,Correct,9,913
9,VSVSV,9,3,673,Correct,9,734
9,YVSVY,223,1,787,Correct,9,673
9,VPVPV,113,1,811,Correct,9,830
9,XZXZX,152,1,582,Correct,9,768
9,KZKXK,161,2,1032,Correct,9,808
9,RFRPR,162,2,1192,Correct,9,804
9,NVNVS,225,1,834,Correct,9,736
9,ZXZXZ,113,1,748,Correct,9,700
9,SRVRV,221,1,910,Correct,9,664
9,YCYCY,113,1,787,Correct,9,849
9,KMKZK,174,2,993,Correct,9,718
9,FZSVF,233,2,1331,Correct,9,801
9,VYVYV,113,1,860,Correct,9,753
9,LVLVL,152,1,854,Correct,9,763
9,YFYFY,153,1,712,Correct,9,947
9,NXNSN,102,3,915,Correct,9,860
9,FNFCF,14,2,1255,Correct,9,790
9,KVKVK,151,1,1037,Correct,9,822
9,VZVCV,161,2,920,Correct,9,911
9,ZYZMZ,185,2,754,Correct,9,722
9,VXVZV,16,2,785,Correct,9,668
9,VPVPV,151,1,778,Correct,9,816
9,RVRNS,235,2,632,Correct,9,746
9,YZYZY,113,1,796,Correct,9,655
9,ZSZSZ,11,3,635,Correct,9,703
9,FRFRF,13,1,856,Correct,9,855
9,ZMZMZ,196,1,610,Correct,9,721
9,NZNXN,16,2,812,Correct,9,941
9,LSLFL,121,3,1046,Correct,9,792
10,Q,5,3,5855,New Target,10,729
10,ZVZPZ,161,2,1192,Correct,10,694
10,RZRZR,151,1,943,Correct,10,924
10,ZFZFZ,152,1,831,Correct,10,901
10,RZRZR,153,1,690,Correct,10,949
10,PZPXP,161,2,884,Correct,10,718
10,VFQPV,233,,,Incorrect,10,728
10,ZPZRZ,222,2,1369,Correct,10,738
10,CYCVC,162,2,909,Correct,10,774
10,CPCPC,151,1,722,Correct,10,824
10,YZYQY,72,3,1089,Correct,10,731
10,FVFXF,14,2,768,Correct,10,835
10,YNYNQ,225,1,969,Correct,10,761
10,ZYZYZ,113,1,772,Correct,10,940
10,FRFSF,181,,,Incorrect,10,789
10,XNXPX,16,2,1226,Correct,10,787
10,NXNXN,151,1,1295,Correct,10,904
10,PVPZP,161,2,1220,Correct,10,833
10,XVXPX,162,2,895,Correct,10,740
10,FXFVF,163,2,1110,Correct,10,836
10,NSNKN,172,2,1064,Incorrect,10,664
10,VXVNV,16,2,1173,Correct,10,856
10,XZXZX,151,1,832,Correct,10,839
10,VQVQV,8,3,732,Correct,10,688
10,ZYZPZ,14,2,903,Correct,10,791
10,PZPSP,183,2,771,Correct,10,664
10,YVYVY,15,1,909,Correct,10,818
10,NCNQN,92,2,1074,Incorrect,10,861
10,FCFVF,14,2,1125,Correct,10,697
10,ZFZFZ,151,1,840,Correct,10,683
10,NSNSN,194,1,1205,Correct,10,706
10,YPYFY,16,2,989,Correct,10,843
10,ZKZKZ,151,1,1291,Correct,10,934
10,QZRCR,231,2,1062,Correct,10,695
10,YPYVY,222,2,834,Correct,10,860
10,ZNZNZ,151,1,1196,Correct,10,752
10,VQVQV,10,3,900,Correct,10,860
10,RVRZR,14,2,941,Correct,10,677
10,KRKSK,185,2,780,Correct,10,897
10,NPNPN,15,1,1059,Correct,10,905
10,YPYPY,152,1,752,Correct,10,819
10,VCVYV,161,2,846,Correct,10,687
10,FPFNF,162,2,710,Correct,10,786
10,QVXVX,221,,,Incorrect,10,916
10,ZVZRZ,222,2,893,Correct,10,778
10,LFLFL,151,1,990,Correct,10,934
10,VLVLV,152,1,882,Correct,10,736
10,KXQXK,223,1,1212,Correct,10,738
10,YQYQY,11,3,920,Correct,10,702
10,YCYCY,13,1,1137,Correct,10,722
10,PZPYP,161,2,1138,Correct,10,683
10,LPLFL,162,2,1387,Correct,10,891
10,VSVSV,196,1,938,Correct,10,880
10,VFVYQ,235,2,773,Correct,10,666
10,CZCXC,222,2,898,Correct,10,782
10,PVPCP,162,2,695,Correct,10,807
10,CXCXC,151,1,1139,Correct,10,802
10,NZNZN,152,1,1178,Correct,10,944
10,YPYCY,161,,,Incorrect,10,841
10,ZQZQZ,12,3,929,Correct,10,702
11,T,5,3,21304,New Target,11,812
11,KFKFK,151,1,1310,Correct,11,654
11,LZLZL,152,1,818,Correct,11,871
11,PFPVP,161,2,917,Correct,11,892
11,FRFPF,162,2,1179,Correct,11,773
11,FZFZF,151,1,742,Correct,11,807
11,VTVTV,7,3,738,Correct,11,841
11,KYKCK,14,2,689,Correct,11,703
11,VPVPV,151,1,749,Correct,11,806
11,XQXQX,191,,,Incorrect,11,803
11,PZPYP,16,2,947,Correct,11,795
11,KXKLK,162,2,1227,Correct,11,728
11,TCNCN,221,1,801,Correct,11,862
11,PZPNP,222,2,824,Correct,11,905
11,RCRPR,162,2,1008,Correct,11,803
11,PZPRT,235,2,1296,Correct,11,832
11,XFXVX,222,2,1015,Correct,11,742
11,LTLVL,81,3,764,Correct,11,673
11,ZCZPZ,14,2,773,Correct,11,878
11,NCNQN,182,2,668,Correct,11,934
11,XZXNX,16,2,651,Correct,11,758
11,ZPZPZ,151,1,827,Correct,11,774
11,CFCFC,152,1,672,Correct,11,859
11,VXTRV,233,2,785,Correct,11,703
11,CFCVC,222,2,681,Correct,11,876
11,PYPYP,151,1,1319,Correct,11,757
11,FQFYF,173,2,1344,Correct,11,762
11,CNCFC,16,,,Incorrect,11,940
11,PTPTP,9,3,815,Correct,11,725
11,ZCZCZ,13,1,1579,Correct,11,724
11,KZKZK,152,1,1131,Correct,11,741
11,RLRVR,161,,,Incorrect,11,795
11,ZRZKZ,162,2,937,Correct,11,672
11,KLKLT,225,1,751,Correct,11,797
11,ZQZQZ,194,1,1164,Correct,11,736
11,VZVZV,15,1,1134,Correct,11,650
11,RVRZR,161,2,1185,Correct,11,662
11,ZPZCZ,162,2,735,Correct,11,702
11,VYVYV,151,1,697,Correct,11,841
11,RVRVR,152,1,1075,Correct,11,878
11,PTPTP,10,3,1116,Correct,11,937
11,PXPXP,13,1,1285,Correct,11,888
11,KCKCK,152,1,658,Correct,11,652
11,YVYVY,153,,,Incorrect,11,755
11,CYCYC,154,1,692,Correct,11,682
11,XCXCX,155,1,628,Correct,11,719
11,CYCQC,185,2,854,Correct,11,726
11,KCKNK,16,2,880,Correct,11,733
11,VPVPV,151,1,915,Correct,11,946
11,TXFZF,231,2,823,Correct,11,812
11,NYNVN,222,2,1003,Correct,11,949
11,VQVXV,176,2,973,Correct,11,814
11,ZRZRZ,15,,,Incorrect,11,720
11,VTVZV,111,3,732,Correct,11,927
11,PXPVP,14,2,954,Correct,11,759
11,FVFVF,151,1,768,Correct,11,753
11,VRVLV,161,2,700,Correct,11,704
11,YCYCY,151,1,749,Correct,11,672
11,XZTZX,223,1,781,Correct,11,701
11,VTVTV,12,1,707,Incorrect,11,854
12,O,5,3,2591,New Target,12,935
12,VXVLV,161,2,1026,Correct,12,881
12,KVKCK,162,2,776,Correct,12,693
12,VLVLV,151,1,911,Correct,12,911
12,ZCZVZ,161,2,706,Correct,12,856
12,KFKFK,151,1,813,Correct,12,841
12,XKXKX,152,1,688,Correct,12,944
12,YXYXY,153,1,744,Correct,12,897
12,FVFVF,154,1,756,Correct,12,815
12,PVPOP,72,2,776,Incorrect,12,939
12,ZXZYZ,14,2,851,Correct,12,745
12,PXPVP,162,,,Incorrect,12,675
12,ZTZTZ,191,1,1238,Correct,12,896
12,CVCKC,16,2,973,Correct,12,878
12,CKCKC,151,1,1173,Correct,12,678
12,NPNPN,152,1,883,Correct,12,740
12,ZRZNZ,161,2,1582,Correct,12,710
12,OZCZC,221,1,1351,Correct,12,834
12,LFLFL,113,1,975,Correct,12,758
12,CXCXC,152,1,855,Correct,12,748
12,KPKPK,153,1,673,Correct,12,667
12,FRFKF,161,2,829,Correct,12,854
12,FOFOF,8,3,1026,Correct,12,899
12,ZFZFZ,13,1,790,Correct,12,718
12,LKLZO,235,2,1058,Correct,12,731
12,KLKZK,222,2,1281,Correct,12,788
12,YXYCY,162,2,796,Correct,12,702
12,LOLOL,9,3,839,Correct,12,774
12,XLXLX,13,1,1019,Correct,12,945
12,XVXVX,152,1,1351,Correct,12,932
12,FTFTF,192,1,641,Correct,12,688
12,OXNZN,231,2,1214,Correct,12,902
12,CZCZC,113,1,807,Correct,12,793
12,LZLZL,152,1,911,Correct,12,851
12,VLVPV,161,,,Incorrect,12,847
12,VYVYO,225,1,1342,Correct,12,791
12,XKXKX,113,1,769,Correct,12,826
12,RTRTR,193,1,748,Correct,12,761
12,KVKCK,16,2,803,Correct,12,932
12,ROROR,101,3,902,Correct,12,949
12,PRPRP,13,1,1079,Correct,12,919
12,LYLVL,161,2,1140,Correct,12,897
12,PLPLP,151,1,1344,Correct,12,763
12,CTCTC,194,1,1279,Correct,12,938
12,XZXYX,16,2,800,Correct,12,937
12,NKNKN,151,1,923,Correct,12,793
12,VLVZV,161,2,1023,Correct,12,836
12,YOYOY,11,,,Incorrect,12,781
12,PZOZP,223,,,Incorrect,12,839
12,FYFYF,113,1,764,Correct,12,906
12,ZXZVZ,161,2,963,Correct,12,876
12,VKVZV,162,2,760,Correct,12,707
12,ZTZTZ,195,1,754,Correct,12,835
12,LKLZL,16,2,913,Correct,12,754
12,KCKVK,162,2,884,Correct,12,822
12,PXPKP,163,2,1080,Correct,12,810
12,KCOZK,233,2,861,Correct,12,691
12,FKFKF,113,1,820,Correct,12,785
12,CTCRC,176,2,1209,Correct,12,899
12,NXNXN,15,1,1408,Correct,12,908
12,KXKVK,161,2,895,Correct,12,869
12,CPCOC,122,3,1450,Correct,12,718
13,H,5,3,705,New Target,13,889
13,VFVNV,151,2,1386,Incorrect,13,820
13,YVYVY,152,1,892,Correct,13,814
13,XVXVX,153,1,725,Correct,13,684
13,NRNXN,161,2,789,Correct,13,685
13,PZPKP,162,2,716,Correct,13,819
13,HLVLV,221,1,742,Correct,13,925
13,CXCZC,222,2,707,Correct,13,786
13,LHLYL,71,3,1072,Correct,13,778
13,YKYFY,14,2,739,Correct,13,747
13,YOYRY,171,2,757,Correct,13,651
13,ZKZYZ,16,2,667,Correct,13,881
13,RZRZR,151,1,762,Correct,13,754
13,NFNYN,161,2,849,Correct,13,923
13,KVKFK,162,2,602,Correct,13,812
13,XFXYX,163,2,566,Correct,13,888
13,LKLVL,164,2,938,Correct,13,725
13,NLNLN,151,1,719,Correct,13,743
13,XCXOX,182,2,941,Correct,13,781
13,FXFXF,15,1,836,Correct,13,726
13,VHVHV,8,3,914,Correct,13,686
13,PVPVP,13,1,1112,Correct,13,776
13,CRCXC,161,2,711,Correct,13,736
13,NXNXN,151,1,915,Correct,13,782
13,XRXRX,152,1,823,Correct,13,846
13,YFYXY,161,2,1311,Correct,13,810
13,ZOZOZ,193,1,804,Correct,13,784
13,RZRZR,15,1,1009,Correct,13,757
13,FKFKF,152,1,645,Correct,13,651
13,PFPFP,153,1,607,Correct,13,933
13,XYXHX,92,2,814,Incorrect,13,869
13,RZRKR,14,2,1250,Correct,13,905
13,FLFLH,225,1,762,Correct,13,820
13,KRKRK,113,,,Incorrect,13,858
13,ZVZNZ,161,2,747,Correct,13,911
13,ZOZOZ,194,1,663,Correct,13,800
13,FZFZF,15,1,789,Correct,13,832
13,FHFKF,101,3,875,Correct,13,907
13,ZXHLZ,233,2,1378,Correct,13,764
13,FKFXF,222,2,720,Correct,13,949
13,CFCYC,162,2,755,Correct,13,670
13,ZXZVZ,163,2,1001,Correct,13,908
13,KCKOK,185,2,906,Correct,13,787
13,ZXZVH,235,2,1309,Correct,13,863
13,CKCKC,113,1,689,Correct,13,844
13,ZXZCZ,161,2,876,Correct,13,859
13,YVYVY,151,1,737,Correct,13,885
13,RVHVR,223,1,1255,Correct,13,908
13,ZRZRZ,113,1,880,Correct,13,739
13,ZHZHZ,11,3,705,Correct,13,880
13,VZVZV,13,1,866,Correct,13,750
13,HZVRV,231,2,823,Correct,13,810
13,FVFVF,113,1,794,Correct,13,944
13,RNRCR,161,2,1027,Correct,13,814
13,COCOC,196,1,1233,Correct,13,908
13,VNVXV,16,2,720,Correct,13,659
13,XHXHX,12,3,824,Correct,13,940
14,G,5,3,4267,New Target,14,775
14,FZFZF,151,1,921,Correct,14,872
14,RPRVR,161,2,995,Correct,14,672
14,XCXCX,151,1,745,Correct,14,733
14,YXYXY,152,1,565,Correct,14,768
14,KZKZK,153,1,748,Correct,14,655
14,RYRKR,161,2,822,Correct,14,815
14,FYFNF,162,2,1280,Correct,14,782
14,VKVKV,151,1,923,Correct,14,699
14,KPGPK,223,1,853,Correct,14,696
14,YNYNY,113,1,652,Correct,14,791
14,VYVYV,152,1,1351,Correct,14,904
14,YCYXY,161,2,732,Correct,14,790
14,LKLGL,72,3,1114,Correct,14,701
14,VXVXV,13,1,578,Correct,14,944
14,KCKVK,161,2,980,Correct,14,785
14,YKYKY,151,1,727,Correct,14,734
14,RHRXR,171,1,1568,Incorrect,14,862
14,FVFCF,16,,,Incorrect,14,849
14,YXYGY,82,3,1333,Correct,14,709
14,CLCLC,13,1,779,Correct,14,784
14,ZXZCZ,161,2,1223,Correct,14,787
14,VLVFV,162,2,1421,Correct,14,936
14,CPCPG,225,1,897,Correct,14,654
14,KHKNK,172,2,1507,Correct,14,930
14,ZKZVZ,16,2,1252,Correct,14,721
14,YKYLY,162,2,974,Correct,14,733
14,CNCNC,151,1,836,Correct,14,762
14,PGPGP,9,3,856,Correct,14,893
14,VPVPV,13,1,692,Correct,14,663
14,FXGRF,233,2,895,Correct,14,907
14,CYCVC,222,,,Incorrect,14,937
14,FNFNF,151,1,741,Correct,14,887
14,KFKCK,161,2,1381,Correct,14,721
14,ZFZHZ,183,2,1422,Correct,14,661
14,NXNXN,15,1,994,Correct,14,737
14,FNFNF,152,1,788,Correct,14,785
14,LXLNG,235,2,1038,Correct,14,815
14,XKXVX,222,2,1197,Correct,14,817
14,ZHZHZ,194,1,1237,Correct,14,877
14,PFPFP,15,1,1209,Correct,14,921
14,ZYZYZ,152,1,1088,Correct,14,826
14,XPXVX,161,2,1459,Correct,14,745
14,YCYCY,151,1,663,Correct,14,655
14,RGRGR,10,3,1030,Correct,14,807
14,VRVRV,13,1,1288,Correct,14,821
14,PKPNP,161,2,1124,Correct,14,659
14,XGXGX,11,3,1169,Correct,14,803
14,GZYVY,231,2,1311,Correct,14,729
14,VCVNV,222,2,1302,Correct,14,824
14,VHVHV,195,,,Incorrect,14,855
14,LXLNL,16,2,1120,Correct,14,899
14,GKPKP,221,1,1119,Correct,14,737
14,XRXPX,222,,,Incorrect,14,668
14,XNXNX,151,1,890,Correct,14,879
14,KHKNK,176,2,1523,Incorrect,14,747
14,RZRZR,15,1,720,Correct,14,839
14,CGCFC,121,3,734,Correct,14,764
15,A,5,3,19517,New Target,15,940
15,XRXFX,161,2,980,Correct,15,719
15,RXRKR,162,2,901,Correct,15,824
15,YRYRY,151,1,727,Correct,15,871
15,XPXPX,152,1,880,Correct,15,936
15,RPRPR,153,1,653,Correct,15,652
15,NCNCN,154,1,1234,Correct,15,674
15,RXRZR,161,,,Incorrect,15,826
15,NANAN,7,3,1014,Correct,15,802
15,KCKYK,14,2,1577,Correct,15,746
15,XKXFX,162,2,841,Correct,15,700
15,ZLZKZ,163,2,752,Correct,15,806
15,VCVZV,164,2,796,Correct,15,716
15,XCXVX,165,2,853,Correct,15,799
15,LKLZA,235,2,1057,Correct,15,683
15,NCNCN,113,1,886,Correct,15,683
15,YGYGY,191,1,1152,Correct,15,684
15,VLVLV,15,1,795,Correct,15,792
15,XRXRX,152,1,769,Correct,15,900
15,KAKPK,81,3,798,Correct,15,792
15,YZAZY,233,1,615,Incorrect,15,812
15,CFCFC,113,1,710,Correct,15,825
15,VNVLV,161,2,805,Correct,15,769
15,KPKVK,162,2,1243,Correct,15,854
15,NCNRN,163,2,867,Correct,15,783
15,FGFGF,192,1,1033,Correct,15,800
15,RCRYR,16,2,672,Correct,15,660
15,KRKCK,162,2,604,Correct,15,817
15,CRCRC,151,1,1531,Correct,15,894
15,XPAPX,223,1,904,Correct,15,842
15,LPLXL,222,2,1113,Correct,15,933
15,CGCVC,173,2,1076,Correct,15,825
15,FKFZF,16,2,895,Correct,15,950
15,CACAC,9,3,691,Correct,15,912
15,XCXCX,13,1,849,Correct,15,755
15,AXRXR,221,1,875,Correct,15,719
15,NKNRN,222,,,Incorrect,15,939
15,KNKFK,162,2,1099,Correct,15,694
15,KAKAK,10,3,796,Correct,15,716
15,ZCZRZ,14,2,1033,Correct,15,740
15,RPRPR,151,1,1146,Correct,15,740
15,NCNCN,152,1,1271,Correct,15,803
15,RYRGR,184,2,989,Correct,15,834
15,VPVPV,15,1,677,Correct,15,650
15,RCRCA,225,1,856,Correct,15,656
15,KXKPK,222,2,785,Correct,15,728
15,NPNPN,151,1,744,Correct,15,875
15,YCYCY,152,1,611,Correct,15,833
15,PXPAP,112,3,1154,Correct,15,811
15,ZCZNZ,14,1,736,Incorrect,15,766
15,KYKGK,185,2,911,Correct,15,745
15,ANLPL,231,2,1215,Correct,15,931
15,CXCPC,222,2,811,Correct,15,698
15,YRYRY,151,1,864,Correct,15,921
15,LGLGL,196,1,867,Correct,15,938
15,VYVLV,16,2,780,Correct,15,696
15,KVKVK,151,1,1210,Correct,15,716
15,RKRKR,152,1,869,Correct,15,813
15,VXVXV,153,1,816,Correct,15,723
15,XAXAX,12,3,1101,Correct,15,685
