Trial No,Stimulus,Trigger,Response,Response Time(ms),Correct,Block,Fixation Duration
Practice
OT Practice
1,SKSKS,15,,,False,0,926
1,DLDUD,16,,,False,0,716
1,PDPGP,16,,,False,0,780
1,MWMWM,15,,,False,0,654
1,FTFTF,15,,,False,0,843
1,AXAMA,16,,,False,0,700
1,RYRGR,16,,,False,0,734
1,DODOD,15,12,1231,False,0,948
1,QTQAQ,16,,,False,0,664
1,YEYEY,15,,,False,0,756
2,GYGDG,16,2,1479,Correct,0,703
2,SWSWS,15,1,1118,Correct,0,894
2,HLHUH,16,2,1083,Correct,0,705
2,DEDED,15,1,1103,Correct,0,938
2,ZPZOZ,16,2,860,Correct,0,827
2,ATATA,15,1,1197,Correct,0,786
2,QOQOQ,15,1,1102,Correct,0,898
2,FPFGF,16,2,1098,Correct,0,740
2,TRTET,16,2,1161,Correct,0,697
2,DQDQD,15,,,False,0,720
4,PLPLP,15,1,903,Correct,0,919
4,ATAIA,16,2,981,Correct,0,875
4,SKSGS,16,2,1139,Correct,0,801
4,ZYZYZ,15,1,775,Correct,0,924
4,QSQSQ,15,1,849,Correct,0,723
4,TZTDT,16,2,1013,Correct,0,828
4,JYJGJ,16,2,900,Correct,0,777
4,DYDYD,15,1,884,Correct,0,845
4,LTLCL,16,2,806,Correct,0,811
4,FQFEF,16,2,919,Correct,0,894
AT Practice
1,TKTKT,15,,,False,0,821
1,SLSUS,16,2,910,Correct,0,763
1,VZVGV,7,2,1499,False,0,909
1,XWXZX,7,,,False,0,819
1,ATATA,15,1,1039,Correct,0,743
1,HXZMH,16,3,1100,False,0,753
1,TZTZT,7,3,1081,Correct,0,750
1,UOUOU,15,3,985,False,0,697
1,ZTWAW,16,2,1064,Correct,0,812
1,RZRER,7,3,1382,Correct,0,693
2,JYJDJ,16,2,1078,Correct,0,918
2,DWDWD,15,1,1313,Correct,0,786
2,GNGNG,7,3,1166,Correct,0,879
2,NEZEZ,16,1,1042,Correct,0,870
2,RNROR,7,3,870,Correct,0,682
2,QTQNQ,7,3,986,Correct,0,774
2,HOHON,15,1,798,Correct,0,690
2,KPKGK,16,3,990,False,0,949
2,DRDED,16,1,1179,False,0,851
2,LNLNL,7,3,964,Correct,0,746
4,GLGLG,15,1,950,Correct,0,845
4,DTDID,16,2,1495,Correct,0,715
4,SMSGS,16,2,1511,Correct,0,691
4,ZFZYZ,7,2,1063,False,0,664
4,TSTFT,7,,,False,0,831
4,OFOFO,7,2,1545,False,0,807
4,WYFGW,16,2,1510,Correct,0,684
4,WYWYW,15,1,979,Correct,0,738
4,MFMCM,7,2,1324,False,0,930
4,HQHEH,16,1,993,False,0,694
1,TKTKT,15,2,1482,False,0,728
1,SLSUS,16,3,823,False,0,749
1,VZVGV,7,2,732,False,0,799
1,XWXZX,7,3,986,Correct,0,667
1,ATATA,15,2,854,False,0,911
1,HXZMH,16,2,1315,Correct,0,944
1,TZTZT,7,,,False,0,847
1,UOUOU,15,1,884,Correct,0,940
1,ZTWAW,16,2,944,Correct,0,888
1,RZRER,7,2,910,False,0,871
2,JYJDJ,16,1,854,False,0,776
2,DWDWD,15,1,1159,Correct,0,818
2,GNGNG,7,3,1071,Correct,0,846
2,NEZEZ,16,1,1018,Correct,0,773
2,RNROR,7,3,873,Correct,0,775
2,QTQNQ,7,3,858,Correct,0,869
2,HOHON,15,1,921,Correct,0,911
2,KPKGK,16,2,1414,Correct,0,897
2,DRDED,16,1,816,False,0,897
2,LNLNL,7,20,962,False,0,919
4,GLGLG,15,1,684,Correct,0,753
4,DTDID,16,2,1047,Correct,0,812
4,SMSGS,16,2,1352,Correct,0,702
4,ZFZYZ,7,2,1258,False,0,770
4,TSTFT,7,2,1470,False,0,772
4,OFOFO,7,1,874,False,0,755
4,WYFGW,16,,,False,0,865
4,WYWYW,15,1,1125,Correct,0,691
4,MFMCM,7,2,1449,False,0,913
4,HQHEH,16,,,False,0,823
1,TKTKT,15,1,998,Correct,0,736
1,SLSUS,16,2,1138,Correct,0,841
1,VZVGV,7,3,1303,Correct,0,926
1,XWXZX,7,2,1386,False,0,757
1,ATATA,15,1,701,Correct,0,657
1,HXZMH,16,3,1381,False,0,841
1,TZTZT,7,3,947,Correct,0,828
1,UOUOU,15,1,803,Correct,0,782
1,ZTWAW,16,2,956,Correct,0,780
1,RZRER,7,3,1053,Correct,0,737
Trials
1,D,5,3,1072,New Target,1,884
1,ZNZYZ,161,2,1468,Correct,1,758
1,FZFZF,151,1,1560,Correct,1,937
1,RKRKR,152,1,958,Correct,1,910
1,RXRNR,161,2,1198,Correct,1,934
1,CNCFC,162,2,1511,Correct,1,848
1,PDPDP,7,3,836,Correct,1,883
1,CPCFC,14,2,1566,Correct,1,796
1,VLVNV,162,2,1017,Correct,1,822
1,KFKFK,151,1,877,Correct,1,723
1,ZNZNZ,152,1,1181,Correct,1,924
1,KCKPD,235,2,1113,Correct,1,809
1,ZKZFZ,222,2,1001,Correct,1,655
1,NRNZN,162,2,1415,Correct,1,904
1,KXKRK,163,2,1125,Correct,1,890
1,YPYZY,164,2,1162,Correct,1,651
1,FKDKF,223,2,1007,Incorrect,1,948
1,RPRPR,113,1,795,Correct,1,919
1,VRVKV,161,2,1091,Correct,1,839
1,RFRPR,162,2,1293,Correct,1,941
1,KVKVK,151,1,985,Correct,1,710
1,YKYVY,161,2,1015,Correct,1,867
1,VDVDV,8,3,888,Correct,1,818
1,DVZVZ,221,1,910,Correct,1,831
1,YFYFY,113,1,803,Correct,1,830
1,ZYZYZ,152,1,721,Correct,1,725
1,VLVXV,161,2,777,Correct,1,890
1,DPXZX,231,1,1157,Incorrect,1,783
1,RYRYR,113,1,1072,Correct,1,859
1,PDPNP,91,3,859,Correct,1,894
1,KXKXK,13,1,882,Correct,1,781
1,ZYZYZ,152,1,681,Correct,1,742
1,VKVKV,153,1,845,Correct,1,662
1,YZYZY,154,1,897,Correct,1,863
1,NLNZN,161,2,891,Correct,1,730
1,ZNDYZ,233,2,1228,Correct,1,911
1,PCPXP,222,2,833,Correct,1,888
1,ZVZFZ,162,2,745,Correct,1,770
1,RCRZR,163,2,756,Correct,1,810
1,LRLRL,151,1,789,Correct,1,746
1,ZDZDZ,10,3,744,Correct,1,936
1,RNRZR,14,2,910,Correct,1,939
1,CXCYC,162,2,824,Correct,1,658
1,RCRLR,163,2,749,Correct,1,907
1,FRFRF,151,2,885,Incorrect,1,925
1,XFXFX,152,1,665,Correct,1,798
1,RPRLR,161,2,870,Correct,1,804
1,YXYRY,162,2,734,Correct,1,764
1,FYFYF,151,2,1035,Incorrect,1,780
1,YZYVY,161,2,679,Correct,1,890
1,YKYKY,151,1,776,Correct,1,738
1,XRXRX,152,1,717,Correct,1,945
1,XVXZX,161,2,782,Correct,1,697
1,PDPDP,11,3,758,Correct,1,873
1,ZFZFZ,13,1,686,Correct,1,832
1,PXPXP,152,1,971,Correct,1,837
1,LYLYL,153,1,659,Correct,1,729
1,NKNKD,225,1,659,Correct,1,733
1,ZNZNZ,113,1,643,Correct,1,799
1,PYPZP,161,2,721,Correct,1,877
1,XPXPX,151,1,607,Correct,1,841
1,VLVLV,152,1,586,Correct,1,904
1,PKPXP,161,2,793,Correct,1,861
1,FZFZF,151,1,659,Correct,1,769
1,LDLDL,12,3,530,Correct,1,801
2,U,5,3,1071,New Target,2,931
2,ZVZFZ,161,2,748,Correct,2,891
2,FZFZF,151,1,713,Correct,2,799
2,RFRFR,152,1,761,Correct,2,660
2,NZNKN,161,2,888,Correct,2,797
2,FZFNF,162,2,1313,Correct,2,712
2,RXRXR,151,1,633,Correct,2,670
2,KRKYK,161,2,821,Correct,2,916
2,NZNPN,162,2,825,Correct,2,908
2,XPXPX,151,1,607,Correct,2,828
2,CUCUC,7,3,835,Correct,2,684
2,RFRFR,13,1,690,Correct,2,657
2,VYVXV,161,2,890,Correct,2,950
2,VDVDV,191,1,543,Correct,2,818
2,ZKZRZ,15,2,1027,Correct,2,797
2,XCXCX,151,1,690,Correct,2,886
2,CNCUC,82,3,649,Correct,2,873
2,RCRCR,13,1,600,Correct,2,771
2,ZPZXZ,161,2,758,Correct,2,859
2,FKFYF,162,1,737,Incorrect,2,836
2,ZFZYZ,163,2,921,Correct,2,836
2,PXPXP,151,1,993,Correct,2,730
2,URCKC,231,2,851,Correct,2,831
2,PCPCP,113,1,701,Correct,2,709
2,XNXNX,152,1,741,Correct,2,915
2,RCRZR,161,2,972,Correct,2,901
2,XVXVX,151,1,810,Correct,2,872
2,NRNRN,152,1,758,Correct,2,702
2,FPFPF,225,1,869,Correct,2,760
2,XVXFX,222,2,801,Correct,2,683
2,PRPRP,151,1,838,Correct,2,934
2,FYFCF,161,2,795,Correct,2,905
2,XUXFX,91,2,806,Incorrect,2,772
2,CYCVC,14,,,Incorrect,2,783
2,VDVKV,172,2,1326,Correct,2,731
2,YCYCY,15,1,722,Correct,2,859
2,NKNLN,161,2,795,Correct,2,871
2,XPUKX,233,2,1299,Correct,2,843
2,ZPZPZ,113,1,1097,Correct,2,797
2,KRKRK,152,1,1116,Correct,2,669
2,XKXKX,153,1,928,Correct,2,659
2,YUYVY,101,2,856,Incorrect,2,757
2,XKXFU,235,2,860,Correct,2,881
2,NFNFN,113,1,839,Correct,2,687
2,KDKDK,193,1,763,Correct,2,898
2,XYXKX,16,1,874,Incorrect,2,738
2,YZUZY,223,2,896,Incorrect,2,832
2,KFKVK,222,2,841,Correct,2,766
2,LYLYL,151,1,702,Correct,2,917
2,CXCDC,184,2,854,Incorrect,2,941
2,XZXNX,16,2,1076,Correct,2,683
2,PXPXP,151,1,813,Correct,2,944
2,ZRZYZ,161,2,843,Correct,2,679
2,PUPYP,111,2,915,Incorrect,2,800
2,RNRNR,14,1,748,Correct,2,706
2,KDKDK,195,1,626,Correct,2,881
2,KNKNK,15,1,706,Correct,2,774
2,PRPKP,161,2,1269,Correct,2,676
2,UNYNY,221,1,666,Correct,2,819
2,NYNYN,113,2,954,Incorrect,2,778
2,YXYXY,152,1,772,Incorrect,2,669
2,RDRDR,196,1,690,Correct,2,699
2,FCFCF,15,1,609,Correct,2,790
2,ZKZKZ,152,1,734,Correct,2,837
2,ZUZUZ,12,1,525,Incorrect,2,688
3,E,5,3,1067,New Target,3,813
3,YZYZY,151,1,792,Correct,3,853
3,VFVNV,161,2,823,Correct,3,666
3,KYKYK,151,1,755,Correct,3,709
3,NKNKN,152,1,1091,Correct,3,714
3,XVXNX,161,2,657,Correct,3,741
3,RERFR,71,3,665,Correct,3,935
3,XNXNX,13,1,802,Correct,3,925
3,NXNXN,152,1,990,Correct,3,733
3,ZLZNZ,161,2,703,Correct,3,788
3,CUCNC,171,2,974,Correct,3,726
3,FYFRF,16,2,1204,Correct,3,734
3,ZLZLZ,151,1,730,Correct,3,907
3,YZYZY,152,1,691,Correct,3,929
3,CYCYC,153,1,739,Correct,3,741
3,VUVUV,192,1,593,Correct,3,795
3,PXPRP,16,2,1023,Correct,3,929
3,YPYPY,151,1,563,Correct,3,668
3,CECEC,8,3,921,Correct,3,712
3,VNENV,223,1,1472,Correct,3,709
3,KRKFK,222,3,1184,Incorrect,3,792
3,XLXLE,225,1,1115,Correct,3,780
3,RFRUR,183,2,1368,Correct,3,835
3,XRXLX,16,2,1391,Correct,3,712
3,NZNPN,162,2,1121,Correct,3,863
3,XZXZX,151,1,700,Correct,3,810
3,FZFZF,152,1,731,Correct,3,705
3,PFPFP,153,1,874,Correct,3,731
3,YZYXY,161,2,961,Correct,3,803
3,KEKEK,9,3,1057,Correct,3,888
3,CXCPC,14,2,863,Correct,3,924
3,VXVXV,151,1,728,Correct,3,678
3,NUNZN,174,2,929,Correct,3,864
3,RKRVR,16,2,1096,Correct,3,729
3,XRXRX,151,1,758,Correct,3,786
3,ERNFN,231,2,1455,Incorrect,3,886
3,YRYNY,222,2,938,Correct,3,922
3,PZPEP,102,3,972,Correct,3,912
3,ZYZXZ,14,2,1232,Correct,3,774
3,RZRVR,162,2,967,Correct,3,819
3,XRXRX,151,1,790,Correct,3,865
3,KUKFK,175,2,915,Correct,3,716
3,RKRKR,15,1,824,Correct,3,807
3,ZFZFZ,152,1,762,Correct,3,933
3,YZYVY,161,2,787,Correct,3,906
3,XPXNX,162,2,923,Correct,3,848
3,YRYRY,151,1,1111,Correct,3,659
3,EPVPV,221,2,585,Incorrect,3,672
3,CRCEC,112,2,793,Incorrect,3,862
3,RFRCR,14,2,792,Correct,3,672
3,CPCVC,162,2,818,Correct,3,765
3,RXRCR,163,2,927,Correct,3,728
3,VNVLV,164,2,1113,Correct,3,716
3,ZXZXZ,151,1,723,Correct,3,911
3,ZCZCZ,152,1,859,Correct,3,865
3,PYPUP,186,2,757,Correct,3,680
3,YKYPY,16,1,833,Incorrect,3,790
3,YREXY,233,2,714,Correct,3,761
3,ZKZKZ,113,1,758,Correct,3,863
3,XLXNX,161,2,766,Correct,3,858
3,KFKRE,235,2,842,Correct,3,775
3,RXRLR,222,2,706,Correct,3,804
3,RERXR,121,2,825,Incorrect,3,933
4,J,5,3,1024,New Target,4,873
4,CYCVC,161,2,1386,Correct,4,808
4,RXRCR,162,2,746,Correct,4,861
4,FPFVF,163,2,699,Correct,4,702
4,LZLZL,151,1,744,Correct,4,790
4,PLPLP,152,1,774,Correct,4,762
4,NPNPN,153,2,1156,Incorrect,4,731
4,XZXZX,161,1,634,Incorrect,4,929
4,CNCKC,162,2,935,Correct,4,918
4,PCPYJ,235,2,896,Correct,4,651
4,VYVYV,113,1,659,Correct,4,844
4,RLRLR,152,1,925,Correct,4,931
4,CJCJC,7,3,550,Correct,4,681
4,ZLZLZ,13,1,601,Correct,4,784
4,FZFZF,152,1,717,Correct,4,701
4,CFCFC,153,1,548,Correct,4,932
4,PZPZP,154,1,508,Correct,4,650
4,XEXEX,191,1,611,Correct,4,706
4,NVNFN,16,2,818,Correct,4,810
4,KYKYK,151,1,769,Correct,4,665
4,ZNZVZ,161,2,826,Correct,4,800
4,YVJXY,233,2,1474,Correct,4,855
4,XFXFX,113,1,1052,Correct,4,935
4,XNXNX,152,1,775,Correct,4,881
4,FJFKF,81,3,693,Correct,4,705
4,CZCYC,14,2,963,Correct,4,764
4,ZXZCZ,162,2,712,Correct,4,735
4,RYRYJ,225,2,1089,Incorrect,4,853
4,FPFZF,222,2,883,Correct,4,746
4,XRXRX,151,1,983,Correct,4,856
4,YPYEY,182,2,653,Correct,4,746
4,XRXRX,15,1,716,Correct,4,750
4,XZXPX,161,2,696,Correct,4,860
4,CJCJC,9,1,613,Incorrect,4,801
4,ZXZVZ,14,2,711,Correct,4,801
4,VKVKV,151,3,1071,Incorrect,4,945
4,VEVNV,173,2,865,Correct,4,718
4,ZKZVZ,16,2,1129,Correct,4,715
4,XVXJX,102,2,1129,Incorrect,4,752
4,RXRVR,14,2,1160,Correct,4,733
4,LRLRL,151,2,1269,Incorrect,4,793
4,YNJNY,223,1,1434,Correct,4,847
4,NPNJN,222,,,Incorrect,4,657
4,ZEZEZ,194,3,1176,Incorrect,4,878
4,ZNZNZ,15,1,1120,Correct,4,885
4,YZYZY,152,1,778,Correct,4,893
4,XYXYX,153,1,707,Correct,4,750
4,ZXZXZ,221,2,1154,Incorrect,4,750
4,LYLZL,222,2,1498,Correct,4,928
4,CYCNC,162,,,Incorrect,4,869
4,XEXEX,195,1,875,Correct,4,949
4,CVCXC,16,2,1038,Correct,4,881
4,ZPZXZ,162,2,1136,Correct,4,761
4,FZFZF,151,1,850,Correct,4,706
4,RXRJR,112,2,852,Incorrect,4,945
4,PRPFP,14,2,1098,Correct,4,850
4,PKPEP,186,2,778,Correct,4,763
4,XZXPX,16,2,744,Correct,4,748
4,JCZVZ,231,2,1124,Correct,4,750
4,RXRLR,222,2,900,Correct,4,769
4,VZVZV,151,1,907,Correct,4,712
4,XJXJX,12,3,737,Correct,4,733
5,I,5,3,3518,New Target,5,898
5,PCPCP,151,1,1138,Correct,5,722
5,XYXYX,152,1,1025,Correct,5,761
5,VXVXV,153,1,754,Correct,5,843
5,XVXVX,154,1,671,Correct,5,730
5,ZRZXZ,161,2,810,Correct,5,916
5,FPFZF,162,2,800,Correct,5,897
5,ZYZYZ,151,1,655,Correct,5,714
5,RVRZR,161,2,845,Correct,5,835
5,CICIC,7,3,982,Correct,5,756
5,XLXLX,13,1,830,Correct,5,676
5,YVYVY,152,1,1192,Correct,5,808
5,CJCJC,191,3,895,Incorrect,5,881
5,FNFCF,16,2,747,Correct,5,661
5,PVPRP,162,2,806,Correct,5,766
5,FZFZF,151,3,923,Incorrect,5,902
5,NVIVN,223,1,1040,Correct,5,801
5,CVCIC,82,3,1124,Correct,5,683
5,ZXZXZ,13,1,1139,Correct,5,746
5,FCFZF,161,2,1341,Correct,5,871
5,IXRXR,221,1,777,Correct,5,708
5,ZPZNZ,222,2,718,Correct,5,913
5,VZVZV,151,1,831,Correct,5,665
5,YRYNY,161,2,855,Correct,5,788
5,VNVPV,162,2,857,Correct,5,921
5,RVRJR,182,2,1027,Correct,5,727
5,VRVRV,15,1,712,Correct,5,670
5,VIVIV,9,3,848,Correct,5,935
5,CXCVC,14,2,711,Correct,5,902
5,PZPZP,151,1,674,Correct,5,877
5,IXVKV,231,2,723,Correct,5,759
5,YJYCY,173,2,851,Incorrect,5,745
5,VYVYV,15,1,572,Correct,5,750
5,YVYVY,152,1,760,Correct,5,911
5,NVNVN,153,1,612,Correct,5,831
5,XYXVX,161,2,839,Correct,5,794
5,NJNCN,174,2,1236,Correct,5,693
5,NXNYN,16,2,840,Correct,5,918
5,VXVCV,162,2,684,Correct,5,945
5,ZKZKZ,151,1,895,Correct,5,704
5,XRXYX,161,2,677,Correct,5,821
5,ZCZXZ,162,2,950,Correct,5,746
5,KVKYI,235,2,890,Correct,5,859
5,CNCNC,113,1,672,Correct,5,800
5,RIRIR,10,1,795,Incorrect,5,851
5,VYVXV,14,2,817,Correct,5,940
5,FXIRF,233,2,824,Correct,5,805
5,PFPFP,113,1,788,Correct,5,688
5,VPVPV,152,1,847,Correct,5,774
5,ZJZJZ,195,2,1092,Incorrect,5,842
5,ZVZNZ,16,2,860,Correct,5,925
5,YVYXY,162,2,1336,Correct,5,674
5,PRPRP,151,1,1279,Correct,5,746
5,YPYPY,152,1,907,Correct,5,680
5,ZIZPZ,111,3,960,Correct,5,765
5,NKNXN,14,,,Incorrect,5,878
5,RZRXR,162,2,865,Correct,5,673
5,RXRXR,151,1,867,Correct,5,946
5,ZJZJZ,196,3,987,Incorrect,5,793
5,CVCVI,225,1,955,Incorrect,5,817
5,NKNKN,113,1,1134,Correct,5,810
5,NRNZN,161,2,1275,Correct,5,806
5,CNCNC,151,1,759,Correct,5,708
5,RFRIR,122,2,961,Incorrect,5,866
6,B,5,3,6060,New Target,6,710
6,YKYZY,161,2,1093,Correct,6,946
6,VCVRV,162,2,801,Correct,6,887
6,XVXVX,151,1,1108,Correct,6,932
6,KZKRK,161,2,918,Correct,6,670
6,ZVZXZ,162,2,940,Correct,6,814
6,RCRNR,163,2,836,Correct,6,671
6,CXCRC,164,2,1015,Correct,6,944
6,VNBCV,233,2,974,Correct,6,696
6,CXCVC,222,2,926,Correct,6,840
6,RFRFR,151,1,1108,Correct,6,814
6,XPXRX,161,2,1503,Correct,6,926
6,RYRBR,72,3,1401,Correct,6,855
6,ZKZKZ,13,1,816,Correct,6,748
6,FIFRF,171,2,1095,Correct,6,810
6,VZVLV,16,2,918,Correct,6,759
6,RPRVR,162,2,992,Correct,6,691
6,YBYBY,8,3,805,Correct,6,691
6,PYPVP,14,2,1358,Correct,6,761
6,NININ,192,1,887,Correct,6,743
6,RNRNR,15,1,748,Correct,6,782
6,NXNVN,161,2,708,Correct,6,864
6,RNRNR,151,1,790,Correct,6,729
6,FRFVF,161,2,1283,Correct,6,728
6,YVYFB,235,2,1178,Incorrect,6,841
6,ZRZXZ,222,2,1259,Correct,6,690
6,VNVIV,193,2,979,Incorrect,6,805
6,PXPNP,16,2,856,Correct,6,758
6,ZXZPZ,162,2,784,Correct,6,710
6,VBVBV,9,3,749,Correct,6,697
6,CXCXC,13,1,1145,Correct,6,789
6,PCPFP,161,2,784,Correct,6,947
6,KNKNK,151,1,813,Correct,6,747
6,XIXIX,194,1,1313,Correct,6,897
6,CYCYC,15,1,1252,Correct,6,897
6,FVFYF,161,2,1290,Correct,6,844
6,YNYRY,162,2,879,Correct,6,883
6,BVPXP,231,2,1071,Correct,6,915
6,NXNXN,113,1,729,Correct,6,919
6,FRFRF,152,1,1367,Correct,6,771
6,YVYVY,153,1,746,Correct,6,782
6,ZKZCZ,161,2,913,Correct,6,943
6,VIVXV,175,2,882,Correct,6,935
6,PRBRP,223,1,1144,Correct,6,802
6,YZYBY,102,3,681,Correct,6,650
6,CXCVC,14,2,925,Correct,6,658
6,FYFYF,151,1,790,Correct,6,729
6,VKVXV,161,2,1011,Correct,6,699
6,ZBZBZ,11,3,986,Correct,6,664
6,FPFNF,14,2,793,Correct,6,948
6,CXCXC,151,1,733,Correct,6,867
6,YCYCY,152,1,714,Correct,6,724
6,FPFPF,153,1,1090,Correct,6,891
6,CVCVB,225,1,876,Correct,6,898
6,ZCZCZ,113,1,630,Correct,6,779
6,CZCNC,161,2,840,Correct,6,688
6,KIKFK,176,2,901,Correct,6,705
6,PXPXP,15,1,825,Correct,6,865
6,RYRYR,152,1,639,Correct,6,881
6,ZRZCZ,161,2,803,Correct,6,684
6,RVRVR,151,1,1099,Correct,6,809
6,XYXNX,161,2,763,Correct,6,766
6,BVKVK,221,1,769,Correct,6,916
6,CBCBC,12,3,842,Correct,6,875
7,W,5,3,7646,New Target,7,876
7,RKRKR,151,1,1150,Correct,7,804
7,CVCRC,161,2,745,Correct,7,848
7,PKPKP,151,1,713,Correct,7,694
7,FPFPF,152,1,1089,Correct,7,927
7,VRVPV,161,2,849,Correct,7,742
7,ZKZYZ,162,2,1023,Correct,7,685
7,PVPCP,233,2,849,Correct,7,782
7,KVKVK,113,1,1028,Correct,7,909
7,YXYVY,161,2,793,Correct,7,692
7,FNFNF,151,1,1089,Correct,7,772
7,YWYWY,7,3,928,Correct,7,797
7,ZYZYZ,13,1,665,Correct,7,714
7,PYPYP,152,1,632,Correct,7,803
7,XRXRX,153,1,937,Correct,7,772
7,PXPXP,154,1,864,Correct,7,708
7,FCFBF,181,2,697,Correct,7,766
7,FVFVF,15,1,619,Correct,7,651
7,CYCZC,161,2,746,Correct,7,868
7,XZXVX,162,2,865,Correct,7,947
7,PFPFP,151,1,657,Correct,7,937
7,RVRLR,161,2,691,Correct,7,704
7,ZBZBZ,192,2,1264,Incorrect,7,822
7,VCVNV,16,2,781,Correct,7,661
7,NWNWN,8,3,821,Correct,7,872
7,XNXVX,14,2,811,Correct,7,872
7,CXCNC,162,2,1094,Correct,7,697
7,YVYVW,225,1,1042,Correct,7,880
7,VFVFV,113,1,948,Correct,7,769
7,VFWFV,223,1,781,Correct,7,668
7,CVCFC,222,2,764,Correct,7,698
7,YBYBY,193,2,1480,Incorrect,7,793
7,PYPYP,15,1,820,Correct,7,897
7,NKNWN,91,2,769,Incorrect,7,676
7,VNVNV,13,1,712,Correct,7,920
7,RVRVR,152,1,979,Correct,7,821
7,FVFBF,184,2,1014,Incorrect,7,779
7,VZVKV,16,2,1188,Correct,7,879
7,VPVCV,162,2,1150,Correct,7,812
7,WYZCZ,231,2,888,Correct,7,875
7,PFPFP,113,1,752,Correct,7,715
7,PRPRP,152,1,1022,Correct,7,758
7,NWNWN,10,3,1248,Correct,7,739
7,VKVCV,14,2,734,Correct,7,654
7,WPYPY,221,1,843,Correct,7,757
7,VBVBV,195,2,1265,Incorrect,7,862
7,ZKZYZ,16,2,1171,Correct,7,895
7,XYXYX,151,1,819,Correct,7,651
7,FZFXF,161,2,744,Correct,7,891
7,XKXKX,151,1,1127,Correct,7,780
7,XPXPX,152,1,710,Correct,7,690
7,FWFWF,11,3,812,Correct,7,944
7,FNFBF,186,2,807,Correct,7,756
7,ZVZYZ,16,2,802,Correct,7,720
7,FZFZF,151,1,669,Correct,7,779
7,NPNFW,235,2,764,Correct,7,792
7,PCPCP,113,1,601,Correct,7,722
7,NKNWN,122,3,1321,Correct,7,856
8,M,5,3,6416,New Target,8,664
8,VYVNV,161,2,988,Correct,8,913
8,KLKNK,162,2,1150,Correct,8,819
8,NRNRN,151,1,917,Correct,8,940
8,VNVFV,161,2,727,Correct,8,839
8,XNXNM,225,1,797,Correct,8,943
8,CXCVC,222,2,802,Correct,8,918
8,KRKZK,162,2,930,Correct,8,691
8,NMNFN,71,2,1385,Incorrect,8,684
8,ZFZFZ,13,1,889,Correct,8,894
8,YPYCY,161,2,785,Correct,8,752
8,KCKCK,151,1,684,Correct,8,775
8,VNVNV,152,1,759,Correct,8,854
8,LXLXL,153,1,855,Correct,8,729
8,CLCLC,154,1,874,Correct,8,909
8,NYNYN,155,1,1324,Correct,8,947
8,LCMYL,233,2,1506,Correct,8,760
8,NCNCN,113,1,1008,Correct,8,850
8,ZVZRZ,161,2,1056,Correct,8,845
8,ZVZVZ,151,1,700,Correct,8,912
8,PZPVP,161,2,943,Correct,8,669
8,PWPNP,171,2,1278,Correct,8,935
8,KLKCM,235,,,Incorrect,8,735
8,XMXMX,8,3,859,Correct,8,945
8,PRPXP,14,2,952,Correct,8,660
8,CVCYC,162,1,765,Incorrect,8,723
8,PXPMP,92,2,717,Incorrect,8,703
8,ZCZLZ,14,2,1273,Correct,8,783
8,XWXWX,192,,,Incorrect,8,676
8,ZCZLZ,16,2,821,Correct,8,652
8,MNCYC,231,2,1148,Correct,8,854
8,ZXZXZ,113,1,739,Correct,8,906
8,YRYNY,161,2,913,Correct,8,783
8,ZLZPZ,162,2,1098,Correct,8,710
8,VZVZV,151,1,996,Correct,8,834
8,MXPXP,221,1,1200,Correct,8,940
8,VWVWV,193,2,1145,Incorrect,8,845
8,PYPYP,16,1,739,Incorrect,8,903
8,XPXVX,162,2,958,Correct,8,876
8,XLXLX,151,1,692,Correct,8,718
8,YMYMY,10,3,1011,Correct,8,727
8,VYVYV,13,1,678,Correct,8,720
8,PWPZP,174,2,789,Correct,8,777
8,PYPKP,16,2,865,Correct,8,745
8,NPNXN,162,2,872,Correct,8,781
8,KVKVK,223,2,836,Incorrect,8,699
8,NVNFN,222,2,758,Correct,8,919
8,XNXNX,151,2,863,Incorrect,8,889
8,YZYMY,112,2,800,Incorrect,8,927
8,PFPFP,13,1,671,Correct,8,701
8,ZWZWZ,195,,,Incorrect,8,707
8,PCPZP,16,2,635,Correct,8,795
8,LRLPL,162,1,1400,Incorrect,8,930
8,CZCZC,151,1,982,Correct,8,934
8,NZNZN,152,1,776,Correct,8,786
8,CVCXC,161,1,908,Incorrect,8,931
8,XCXCX,151,1,702,Correct,8,853
8,YWYWY,196,2,1119,Incorrect,8,666
8,NLNLN,15,1,866,Correct,8,676
8,VNVNV,152,1,701,Correct,8,674
8,ZMZMZ,12,3,652,Correct,8,719
9,S,5,3,11030,New Target,9,759
9,NZNZN,151,1,769,Correct,9,897
9,KVKZK,161,2,699,Correct,9,807
9,LZLZL,151,1,683,Correct,9,725
9,XLXLX,152,1,743,Correct,9,812
9,ZXZXZ,153,1,918,Correct,9,747
9,KNKZK,161,2,1224,Correct,9,918
9,NRNYN,162,2,735,Correct,9,902
9,CLCVC,163,,,Incorrect,9,755
9,ZCZFZ,164,2,727,Correct,9,775
9,NSNSN,7,1,854,Incorrect,9,728
9,VZVZV,13,2,939,Incorrect,9,846
9,NVNCN,161,1,637,Incorrect,9,904
9,VMVMV,191,1,1359,Correct,9,741
9,CVCXC,16,2,721,Correct,9,905
9,ZYZRZ,162,2,720,Correct,9,709
9,XNXZX,163,2,810,Correct,9,896
9,PXPXP,151,1,787,Correct,9,810
9,VCVSV,82,3,653,Correct,9,823
9,PRPCP,14,2,698,Correct,9,924
9,ZMZMZ,192,1,1120,Incorrect,9,940
9,ZFZFZ,15,1,956,Correct,9,833
9,FCFCF,152,1,542,Correct,9,849
9,YLYZY,161,2,756,Correct,9,697
9,KNKVK,162,2,767,Correct,9,862
9,SFPCP,231,2,759,Correct,9,862
9,RPRPR,113,1,855,Correct,9,675
9,XMXMX,193,1,820,Correct,9,660
9,KFKFK,15,1,650,Correct,9,891
9,VSVSV,9,3,829,Correct,9,711
9,YVSVY,223,1,913,Correct,9,930
9,VPVPV,113,1,646,Correct,9,778
9,XZXZX,152,1,594,Correct,9,888
9,KZKXK,161,2,783,Correct,9,870
9,RFRPR,162,2,1197,Correct,9,736
9,NVNVS,225,1,839,Correct,9,808
9,ZXZXZ,113,2,787,Incorrect,9,734
9,SRVRV,221,1,1418,Correct,9,909
9,YCYCY,113,1,633,Correct,9,821
9,KMKZK,174,2,708,Correct,9,911
9,FZSVF,233,2,1165,Correct,9,946
9,VYVYV,113,1,648,Correct,9,853
9,LVLVL,152,1,586,Correct,9,741
9,YFYFY,153,1,655,Correct,9,739
9,NXNSN,102,3,930,Correct,9,673
9,FNFCF,14,2,594,Correct,9,913
9,KVKVK,151,2,658,Incorrect,9,808
9,VZVCV,161,2,690,Correct,9,820
9,ZYZMZ,185,2,896,Correct,9,813
9,VXVZV,16,2,650,Correct,9,686
9,VPVPV,151,1,935,Correct,9,849
9,RVRNS,235,2,637,Correct,9,787
9,YZYZY,113,1,1136,Correct,9,684
9,ZSZSZ,11,3,876,Correct,9,844
9,FRFRF,13,1,887,Correct,9,742
9,ZMZMZ,196,1,1034,Correct,9,895
9,NZNXN,16,2,646,Correct,9,898
9,LSLFL,121,2,1047,Incorrect,9,766
10,Q,5,3,8102,New Target,10,730
10,ZVZPZ,161,2,647,Correct,10,904
10,RZRZR,151,1,740,Correct,10,897
10,ZFZFZ,152,1,624,Correct,10,751
10,RZRZR,153,1,592,Correct,10,783
10,PZPXP,161,2,640,Correct,10,826
10,VFQPV,233,2,785,Correct,10,761
10,ZPZRZ,222,1,695,Incorrect,10,857
10,CYCVC,162,2,903,Correct,10,731
10,CPCPC,151,1,698,Correct,10,789
10,YZYQY,72,3,604,Correct,10,681
10,FVFXF,14,2,940,Correct,10,852
10,YNYNQ,225,1,794,Correct,10,903
10,ZYZYZ,113,1,564,Correct,10,752
10,FRFSF,181,2,610,Incorrect,10,900
10,XNXPX,16,2,682,Correct,10,666
10,NXNXN,151,1,664,Correct,10,786
10,PVPZP,161,2,936,Correct,10,847
10,XVXPX,162,2,775,Correct,10,875
10,FXFVF,163,2,643,Correct,10,690
10,NSNKN,172,2,736,Incorrect,10,924
10,VXVNV,16,2,685,Correct,10,746
10,XZXZX,151,1,985,Correct,10,798
10,VQVQV,8,3,796,Correct,10,812
10,ZYZPZ,14,2,611,Correct,10,891
10,PZPSP,183,2,797,Correct,10,935
10,YVYVY,15,1,1004,Correct,10,708
10,NCNQN,92,3,799,Correct,10,778
10,FCFVF,14,2,622,Correct,10,664
10,ZFZFZ,151,1,659,Correct,10,728
10,NSNSN,194,2,816,Incorrect,10,838
10,YPYFY,16,2,774,Correct,10,833
10,ZKZKZ,151,1,620,Correct,10,904
10,QZRCR,231,2,734,Correct,10,766
10,YPYVY,222,2,682,Correct,10,759
10,ZNZNZ,151,1,744,Correct,10,820
10,VQVQV,10,,,Incorrect,10,873
10,RVRZR,14,2,767,Correct,10,705
10,KRKSK,185,2,1300,Correct,10,939
10,NPNPN,15,1,596,Correct,10,915
10,YPYPY,152,1,586,Correct,10,702
10,VCVYV,161,2,698,Correct,10,873
10,FPFNF,162,2,790,Correct,10,796
10,QVXVX,221,2,716,Incorrect,10,929
10,ZVZRZ,222,2,683,Correct,10,720
10,LFLFL,151,1,707,Correct,10,898
10,VLVLV,152,1,642,Correct,10,767
10,KXQXK,223,1,840,Correct,10,675
10,YQYQY,11,3,559,Correct,10,875
10,YCYCY,13,1,613,Correct,10,712
10,PZPYP,161,2,837,Correct,10,833
10,LPLFL,162,2,832,Correct,10,683
10,VSVSV,196,1,796,Correct,10,683
10,VFVYQ,235,2,915,Correct,10,899
10,CZCXC,222,2,781,Correct,10,681
10,PVPCP,162,2,676,Correct,10,890
10,CXCXC,151,1,689,Correct,10,895
10,NZNZN,152,1,956,Correct,10,851
10,YPYCY,161,2,764,Correct,10,906
10,ZQZQZ,12,3,762,Correct,10,675
11,T,5,3,17694,New Target,11,744
11,KFKFK,151,1,944,Correct,11,724
11,LZLZL,152,1,582,Correct,11,742
11,PFPVP,161,2,792,Correct,11,785
11,FRFPF,162,2,1107,Correct,11,811
11,FZFZF,151,1,724,Correct,11,767
11,VTVTV,7,1,576,Incorrect,11,779
11,KYKCK,14,2,622,Correct,11,926
11,VPVPV,151,1,668,Correct,11,814
11,XQXQX,191,3,847,Incorrect,11,700
11,PZPYP,16,2,579,Correct,11,931
11,KXKLK,162,2,783,Correct,11,902
11,TCNCN,221,1,680,Correct,11,847
11,PZPNP,222,2,763,Correct,11,695
11,RCRPR,162,2,610,Correct,11,944
11,PZPRT,235,2,548,Correct,11,741
11,XFXVX,222,2,689,Correct,11,918
11,LTLVL,81,3,1347,Correct,11,684
11,ZCZPZ,14,2,597,Correct,11,903
11,NCNQN,182,2,663,Correct,11,735
11,XZXNX,16,2,1275,Correct,11,686
11,ZPZPZ,151,1,892,Correct,11,923
11,CFCFC,152,1,978,Correct,11,861
11,VXTRV,233,1,752,Incorrect,11,883
11,CFCVC,222,2,601,Correct,11,805
11,PYPYP,151,2,642,Incorrect,11,947
11,FQFYF,173,2,750,Correct,11,902
11,CNCFC,16,2,665,Correct,11,784
11,PTPTP,9,3,739,Correct,11,865
11,ZCZCZ,13,1,709,Correct,11,682
11,KZKZK,152,1,624,Correct,11,872
11,RLRVR,161,2,730,Correct,11,934
11,ZRZKZ,162,2,979,Correct,11,926
11,KLKLT,225,1,707,Correct,11,826
11,ZQZQZ,194,2,1116,Incorrect,11,899
11,VZVZV,15,1,665,Correct,11,795
11,RVRZR,161,2,875,Correct,11,699
11,ZPZCZ,162,2,725,Correct,11,705
11,VYVYV,151,1,690,Correct,11,801
11,RVRVR,152,1,564,Correct,11,711
11,PTPTP,10,3,934,Correct,11,764
11,PXPXP,13,1,855,Correct,11,896
11,KCKCK,152,1,609,Correct,11,713
11,YVYVY,153,1,965,Correct,11,724
11,CYCYC,154,1,1012,Correct,11,894
11,XCXCX,155,1,630,Correct,11,831
11,CYCQC,185,2,1179,Correct,11,703
11,KCKNK,16,2,1266,Correct,11,944
11,VPVPV,151,1,761,Correct,11,814
11,TXFZF,231,2,623,Correct,11,919
11,NYNVN,222,2,1180,Correct,11,853
11,VQVXV,176,2,773,Correct,11,865
11,ZRZRZ,15,1,908,Correct,11,869
11,VTVZV,111,2,723,Incorrect,11,813
11,PXPVP,14,2,639,Correct,11,804
11,FVFVF,151,2,460,Incorrect,11,817
11,VRVLV,161,1,542,Incorrect,11,950
11,YCYCY,151,1,535,Correct,11,689
11,XZTZX,223,1,665,Correct,11,902
11,VTVTV,12,1,585,Incorrect,11,739
12,O,5,3,13176,New Target,12,896
12,VXVLV,161,2,1105,Correct,12,673
12,KVKCK,162,2,621,Correct,12,842
12,VLVLV,151,1,668,Correct,12,784
12,ZCZVZ,161,2,566,Correct,12,890
12,KFKFK,151,1,811,Correct,12,695
12,XKXKX,152,1,1210,Correct,12,733
12,YXYXY,153,1,704,Correct,12,798
12,FVFVF,154,1,913,Correct,12,782
12,PVPOP,72,3,551,Correct,12,739
12,ZXZYZ,14,2,846,Correct,12,700
12,PXPVP,162,2,703,Correct,12,936
12,ZTZTZ,191,1,664,Correct,12,922
12,CVCKC,16,2,1121,Correct,12,917
12,CKCKC,151,1,957,Correct,12,846
12,NPNPN,152,1,755,Correct,12,684
12,ZRZNZ,161,2,773,Correct,12,661
12,OZCZC,221,1,1043,Correct,12,660
12,LFLFL,113,1,975,Correct,12,886
12,CXCXC,152,1,1086,Correct,12,911
12,KPKPK,153,1,648,Correct,12,945
12,FRFKF,161,2,1093,Correct,12,902
12,FOFOF,8,3,1093,Correct,12,733
12,ZFZFZ,13,1,805,Correct,12,790
12,LKLZO,235,2,1224,Correct,12,949
12,KLKZK,222,2,1356,Correct,12,943
12,YXYCY,162,2,1107,Correct,12,669
12,LOLOL,9,3,798,Correct,12,922
12,XLXLX,13,1,1009,Correct,12,927
12,XVXVX,152,1,847,Correct,12,900
12,FTFTF,192,1,762,Correct,12,726
12,OXNZN,231,2,773,Correct,12,798
12,CZCZC,113,1,847,Correct,12,816
12,LZLZL,152,,,Incorrect,12,757
12,VLVPV,161,2,682,Correct,12,683
12,VYVYO,225,1,1053,Correct,12,715
12,XKXKX,113,1,884,Correct,12,663
12,RTRTR,193,1,663,Correct,12,846
12,KVKCK,16,2,1031,Correct,12,738
12,ROROR,101,3,742,Correct,12,841
12,PRPRP,13,1,854,Correct,12,710
12,LYLVL,161,2,793,Correct,12,936
12,PLPLP,151,1,612,Correct,12,782
12,CTCTC,194,1,691,Correct,12,845
12,XZXYX,16,2,820,Correct,12,720
12,NKNKN,151,1,714,Correct,12,908
12,VLVZV,161,2,722,Correct,12,925
12,YOYOY,11,3,730,Correct,12,870
12,PZOZP,223,2,743,Incorrect,12,893
12,FYFYF,113,1,820,Correct,12,719
12,ZXZVZ,161,2,571,Correct,12,839
12,VKVZV,162,2,536,Correct,12,939
12,ZTZTZ,195,1,539,Correct,12,854
12,LKLZL,16,2,815,Correct,12,761
12,KCKVK,162,2,665,Correct,12,766
12,PXPKP,163,2,748,Correct,12,707
12,KCOZK,233,2,634,Correct,12,705
12,FKFKF,113,1,616,Correct,12,785
12,CTCRC,176,2,668,Correct,12,676
12,NXNXN,15,1,860,Correct,12,723
12,KXKVK,161,2,1263,Correct,12,843
12,CPCOC,122,2,1061,Incorrect,12,863
13,H,5,3,22227,New Target,13,939
13,VFVNV,151,2,1016,Incorrect,13,767
13,YVYVY,152,1,644,Correct,13,916
13,XVXVX,153,1,914,Correct,13,796
13,NRNXN,161,2,696,Correct,13,799
13,PZPKP,162,2,552,Correct,13,779
13,HLVLV,221,2,984,Incorrect,13,836
13,CXCZC,222,2,1269,Correct,13,926
13,LHLYL,71,3,1215,Correct,13,696
13,YKYFY,14,2,1020,Correct,13,670
13,YOYRY,171,2,898,Correct,13,694
13,ZKZYZ,16,2,850,Correct,13,944
13,RZRZR,151,2,810,Incorrect,13,779
13,NFNYN,161,2,833,Correct,13,903
13,KVKFK,162,2,853,Correct,13,849
13,XFXYX,163,2,662,Correct,13,923
13,LKLVL,164,2,928,Correct,13,897
13,NLNLN,151,1,919,Correct,13,787
13,XCXOX,182,2,822,Correct,13,945
13,FXFXF,15,1,898,Correct,13,746
13,VHVHV,8,3,935,Correct,13,766
13,PVPVP,13,1,746,Correct,13,833
13,CRCXC,161,2,711,Correct,13,754
13,NXNXN,151,1,838,Correct,13,752
13,XRXRX,152,1,594,Correct,13,705
13,YFYXY,161,2,679,Correct,13,723
13,ZOZOZ,193,2,1252,Incorrect,13,875
13,RZRZR,15,1,669,Correct,13,810
13,FKFKF,152,1,768,Correct,13,689
13,PFPFP,153,1,666,Correct,13,858
13,XYXHX,92,3,1065,Correct,13,810
13,RZRKR,14,2,828,Correct,13,737
13,FLFLH,225,1,753,Correct,13,884
13,KRKRK,113,1,763,Correct,13,794
13,ZVZNZ,161,2,790,Correct,13,829
13,ZOZOZ,194,1,1102,Correct,13,823
13,FZFZF,15,1,624,Correct,13,672
13,FHFKF,101,3,1039,Correct,13,806
13,ZXHLZ,233,2,1073,Correct,13,812
13,FKFXF,222,2,862,Correct,13,826
13,CFCYC,162,2,1082,Correct,13,656
13,ZXZVZ,163,2,805,Correct,13,884
13,KCKOK,185,2,955,Correct,13,877
13,ZXZVH,235,2,662,Correct,13,655
13,CKCKC,113,2,972,Incorrect,13,935
13,ZXZCZ,161,2,1057,Correct,13,707
13,YVYVY,151,1,1091,Correct,13,746
13,RVHVR,223,1,819,Correct,13,773
13,ZRZRZ,113,2,765,Incorrect,13,746
13,ZHZHZ,11,3,980,Correct,13,881
13,VZVZV,13,1,695,Correct,13,787
13,HZVRV,231,2,761,Correct,13,714
13,FVFVF,113,1,671,Correct,13,945
13,RNRCR,161,2,770,Correct,13,691
13,COCOC,196,1,1096,Correct,13,909
13,VNVXV,16,2,779,Correct,13,700
13,XHXHX,12,3,843,Correct,13,679
14,G,5,3,8501,New Target,14,710
14,FZFZF,151,1,577,Correct,14,945
14,RPRVR,161,2,825,Correct,14,655
14,XCXCX,151,1,729,Correct,14,655
14,YXYXY,152,1,664,Correct,14,795
14,KZKZK,153,1,614,Correct,14,803
14,RYRKR,161,2,777,Correct,14,708
14,FYFNF,162,2,784,Correct,14,864
14,VKVKV,151,1,624,Correct,14,676
14,KPGPK,223,2,611,Incorrect,14,770
14,YNYNY,113,1,674,Correct,14,869
14,VYVYV,152,1,660,Correct,14,698
14,YCYXY,161,2,806,Correct,14,703
14,LKLGL,72,3,1037,Correct,14,860
14,VXVXV,13,1,560,Correct,14,760
14,KCKVK,161,2,711,Correct,14,677
14,YKYKY,151,1,633,Correct,14,690
14,RHRXR,171,2,1289,Correct,14,764
14,FVFCF,16,2,640,Correct,14,851
14,YXYGY,82,3,1106,Correct,14,726
14,CLCLC,13,1,1020,Correct,14,911
14,ZXZCZ,161,2,707,Correct,14,692
14,VLVFV,162,2,671,Correct,14,806
14,CPCPG,225,2,920,Incorrect,14,928
14,KHKNK,172,1,926,Incorrect,14,740
14,ZKZVZ,16,2,680,Correct,14,703
14,YKYLY,162,2,818,Correct,14,893
14,CNCNC,151,1,758,Correct,14,880
14,PGPGP,9,3,880,Correct,14,849
14,VPVPV,13,1,663,Correct,14,817
14,FXGRF,233,2,687,Correct,14,950
14,CYCVC,222,1,970,Incorrect,14,872
14,FNFNF,151,1,944,Correct,14,760
14,KFKCK,161,2,935,Correct,14,675
14,ZFZHZ,183,,,Incorrect,14,824
14,NXNXN,15,1,894,Correct,14,936
14,FNFNF,152,1,1010,Correct,14,836
14,LXLNG,235,2,785,Correct,14,879
14,XKXVX,222,2,815,Correct,14,724
14,ZHZHZ,194,1,653,Correct,14,662
14,PFPFP,15,1,619,Correct,14,866
14,ZYZYZ,152,1,664,Correct,14,832
14,XPXVX,161,2,597,Correct,14,813
14,YCYCY,151,1,629,Correct,14,791
14,RGRGR,10,1,554,Incorrect,14,690
14,VRVRV,13,2,654,Incorrect,14,770
14,PKPNP,161,1,751,Incorrect,14,759
14,XGXGX,11,3,907,Correct,14,733
14,GZYVY,231,2,702,Correct,14,917
14,VCVNV,222,2,784,Correct,14,715
14,VHVHV,195,1,751,Correct,14,657
14,LXLNL,16,2,637,Correct,14,679
14,GKPKP,221,1,721,Correct,14,738
14,XRXPX,222,2,819,Correct,14,652
14,XNXNX,151,1,741,Correct,14,909
14,KHKNK,176,2,797,Incorrect,14,944
14,RZRZR,15,1,790,Correct,14,861
14,CGCFC,121,,,Incorrect,14,776
15,A,5,3,4466,New Target,15,781
15,XRXFX,161,2,1081,Correct,15,755
15,RXRKR,162,2,1350,Correct,15,821
15,YRYRY,151,1,717,Correct,15,694
15,XPXPX,152,1,1152,Correct,15,652
15,RPRPR,153,1,1278,Correct,15,725
15,NCNCN,154,1,867,Correct,15,884
15,RXRZR,161,2,1015,Correct,15,882
15,NANAN,7,3,661,Correct,15,888
15,KCKYK,14,2,676,Correct,15,770
15,XKXFX,162,2,871,Correct,15,684
15,ZLZKZ,163,2,1035,Correct,15,852
15,VCVZV,164,2,777,Correct,15,913
15,XCXVX,165,2,742,Correct,15,704
15,LKLZA,235,2,960,Correct,15,864
15,NCNCN,113,1,800,Correct,15,881
15,YGYGY,191,1,810,Correct,15,815
15,VLVLV,15,1,688,Correct,15,907
15,XRXRX,152,1,911,Correct,15,780
15,KAKPK,81,3,1111,Correct,15,766
15,YZAZY,233,1,1237,Incorrect,15,834
15,CFCFC,113,1,641,Correct,15,724
15,VNVLV,161,2,704,Correct,15,811
15,KPKVK,162,2,764,Correct,15,842
15,NCNRN,163,2,794,Correct,15,746
15,FGFGF,192,1,1255,Correct,15,715
15,RCRYR,16,2,834,Correct,15,771
15,KRKCK,162,2,843,Correct,15,793
15,CRCRC,151,1,1013,Correct,15,701
15,XPAPX,223,1,1250,Correct,15,878
15,LPLXL,222,2,825,Correct,15,831
15,CGCVC,173,2,882,Correct,15,780
15,FKFZF,16,2,1284,Correct,15,901
15,CACAC,9,3,750,Correct,15,677
15,XCXCX,13,1,618,Correct,15,750
15,AXRXR,221,1,779,Correct,15,822
15,NKNRN,222,2,1336,Correct,15,772
15,KNKFK,162,2,937,Correct,15,882
15,KAKAK,10,1,627,Incorrect,15,662
15,ZCZRZ,14,2,757,Correct,15,759
15,RPRPR,151,1,621,Correct,15,898
15,NCNCN,152,1,779,Correct,15,908
15,RYRGR,184,2,595,Correct,15,829
15,VPVPV,15,1,609,Correct,15,864
15,RCRCA,225,2,671,Incorrect,15,848
15,KXKPK,222,2,656,Correct,15,700
15,NPNPN,151,1,590,Correct,15,839
15,YCYCY,152,1,562,Correct,15,703
15,PXPAP,112,3,823,Correct,15,781
15,ZCZNZ,14,2,769,Correct,15,823
15,KYKGK,185,2,813,Correct,15,763
15,ANLPL,231,2,764,Correct,15,676
15,CXCPC,222,2,886,Correct,15,827
15,YRYRY,151,1,1005,Correct,15,808
15,LGLGL,196,1,719,Correct,15,814
15,VYVLV,16,2,748,Correct,15,750
15,KVKVK,151,1,857,Correct,15,758
15,RKRKR,152,1,688,Correct,15,800
15,VXVXV,153,1,698,Correct,15,908
15,XAXAX,12,1,812,Incorrect,15,657
