Trial No,Stimulus,Trigger,Response,Response Time(ms),Correct,Block,Fixation Duration
Practice
OT Practice
1,SKSKS,15,,,False,0,772
1,DLDUD,16,2,791,Correct,0,782
1,PDPGP,16,1,798,False,0,789
1,MWMWM,15,1,1188,Correct,0,800
1,FTFTF,15,1,760,Correct,0,869
1,AXAMA,16,2,563,Correct,0,732
1,RYRGR,16,2,807,Correct,0,678
1,DODOD,15,1,539,Correct,0,857
1,QTQAQ,16,2,854,Correct,0,926
1,YEYEY,15,1,527,Correct,0,681
2,GYGDG,16,2,646,Correct,0,779
2,SWSWS,15,1,540,Correct,0,917
2,HLHUH,16,1,813,False,0,804
2,DEDED,15,1,727,Correct,0,719
2,ZPZOZ,16,2,491,Correct,0,900
2,ATATA,15,1,523,Correct,0,811
2,QOQOQ,15,1,620,Correct,0,843
2,FPFGF,16,2,629,Correct,0,857
2,TRTET,16,2,529,Correct,0,830
2,DQDQD,15,2,812,False,0,906
DT Practice
1,TKTKT,15,,,False,0,782
1,SLSUS,16,,,False,0,866
1,VZVGV,7,,,False,0,765
1,XWXZX,7,,,False,0,859
1,ATATA,15,,,False,0,915
1,HXZMH,16,,,False,0,833
1,TZTZT,7,,,False,0,928
1,UOUOU,15,,,False,0,749
1,ZTWAW,16,,,False,0,729
1,RZRER,7,,,False,0,875
2,JYJDJ,16,2,1101,Correct,0,877
2,DWDWD,15,1,779,Correct,0,670
2,GNGNG,7,[1][3],[1003][1195],Correct,0,872
2,NEZEZ,16,1,958,Correct,0,908
2,RNROR,7,[2],[658],False,0,659
2,QTQNQ,7,[2][3],[1188][1412],Correct,0,860
2,HOHON,15,1,1028,Correct,0,918
2,KPKGK,16,2,973,Correct,0,874
2,DRDED,16,2,559,Correct,0,733
2,LNLNL,7,[1][3],[749][989],Correct,0,934
4,GLGLG,15,1,1205,Correct,0,882
4,DTDID,16,2,638,Correct,0,741
4,SMSGS,16,2,718,Correct,0,745
4,ZFZYZ,7,[2][3],[1181][1357],Correct,0,879
4,TSTFT,7,[2][3],[816][1072],Correct,0,845
4,OFOFO,7,[1][3],[694][950],Correct,0,727
4,WYFGW,16,2,792,Correct,0,884
4,WYWYW,15,1,780,Correct,0,908
4,MFMCM,7,[2],[1533],False,0,886
4,HQHEH,16,2,624,Correct,0,767
1,TKTKT,15,1,1377,Correct,0,677
1,SLSUS,16,2,623,Correct,0,874
1,VZVGV,7,[2][1],[739][1299],False,0,821
1,XWXZX,7,[2],[1066],False,0,903
1,ATATA,15,1,981,Correct,0,741
1,HXZMH,16,2,618,Correct,0,666
1,TZTZT,7,[1][3],[787][1027],Correct,0,881
1,UOUOU,15,2,825,False,0,773
1,ZTWAW,16,2,1036,Correct,0,881
1,RZRER,7,[1],[916],False,0,720
2,JYJDJ,16,2,1323,Correct,0,738
2,DWDWD,15,1,863,Correct,0,721
2,GNGNG,7,[1][3],[757][981],Correct,0,843
2,NEZEZ,16,1,939,Correct,0,736
2,RNROR,7,[2][3],[1272][1480],Correct,0,882
2,QTQNQ,7,[2][3],[1312][1504],Correct,0,912
2,HOHON,15,1,1043,Correct,0,723
2,KPKGK,16,2,786,Correct,0,733
2,DRDED,16,2,844,Correct,0,714
2,LNLNL,7,[1][3],[912][1152],Correct,0,697
Trials
1,D,5,3,1204,New Target,1,779
1,ZNZYZ,161,2,922,Correct,1,762
1,FZFZF,151,1,945,Correct,1,811
1,RKRKR,152,1,836,Correct,1,831
1,RXRNR,161,2,1159,Correct,1,913
1,CNCFC,162,2,1095,Correct,1,659
1,PDPDP,7,[1][3],[761][985],Correct,1,801
1,CPCFC,14,2,709,Correct,1,666
1,VLVNV,162,2,687,Correct,1,837
1,KFKFK,151,1,765,Correct,1,819
1,ZNZNZ,152,1,814,Correct,1,668
1,KCKPD,235,2,876,Correct,1,704
1,ZKZFZ,222,2,627,Correct,1,810
1,NRNZN,162,2,601,Correct,1,706
1,KXKRK,163,2,488,Correct,1,846
1,YPYZY,164,2,541,Correct,1,843
1,FKDKF,223,1,876,Correct,1,926
1,RPRPR,113,1,772,Correct,1,776
1,VRVKV,161,2,653,Correct,1,847
1,RFRPR,162,2,988,Correct,1,738
1,KVKVK,151,1,783,Correct,1,817
1,YKYVY,161,2,620,Correct,1,750
1,VDVDV,8,[1][3],[741][933],Correct,1,859
1,DVZVZ,221,1,889,Correct,1,748
1,YFYFY,113,1,723,Correct,1,725
1,ZYZYZ,152,1,548,Correct,1,697
1,VLVXV,161,2,727,Correct,1,768
1,DPXZX,231,2,589,Correct,1,949
1,RYRYR,113,1,654,Correct,1,831
1,PDPNP,91,[1][3],[850][1570],Incorrect,1,708
1,KXKXK,13,1,995,Correct,1,910
1,ZYZYZ,152,1,613,Correct,1,767
1,VKVKV,153,1,1016,Correct,1,830
1,YZYZY,154,1,984,Correct,1,757
1,NLNZN,161,2,724,Correct,1,934
1,ZNDYZ,233,2,863,Correct,1,879
1,PCPXP,222,2,871,Correct,1,721
1,ZVZFZ,162,2,687,Correct,1,790
1,RCRZR,163,2,606,Correct,1,755
1,LRLRL,151,2,765,Incorrect,1,862
1,ZDZDZ,10,[1][3],[894][1086],Correct,1,790
1,RNRZR,14,2,687,Correct,1,730
1,CXCYC,162,2,552,Correct,1,881
1,RCRLR,163,2,528,Correct,1,678
1,FRFRF,151,1,846,Correct,1,900
1,XFXFX,152,1,763,Correct,1,670
1,RPRLR,161,2,729,Correct,1,717
1,YXYRY,162,2,628,Correct,1,795
1,FYFYF,151,1,703,Correct,1,938
1,YZYVY,161,2,737,Correct,1,709
1,YKYKY,151,1,890,Correct,1,911
1,XRXRX,152,1,548,Correct,1,673
1,XVXZX,161,2,736,Correct,1,946
1,PDPDP,11,[1][3],[638][878],Correct,1,916
1,ZFZFZ,13,1,646,Correct,1,800
1,PXPXP,152,1,715,Correct,1,706
1,LYLYL,153,1,775,Correct,1,807
1,NKNKD,225,1,613,Correct,1,692
1,ZNZNZ,113,1,562,Correct,1,891
1,PYPZP,161,2,818,Correct,1,851
1,XPXPX,151,1,536,Correct,1,901
1,VLVLV,152,1,507,Correct,1,835
1,PKPXP,161,2,708,Correct,1,725
1,FZFZF,151,1,1021,Correct,1,910
1,LDLDL,12,[1][3],[688][928],Correct,1,787
2,U,5,3,2326,New Target,2,937
2,ZVZFZ,161,2,902,Correct,2,736
2,FZFZF,151,1,701,Correct,2,716
2,RFRFR,152,1,769,Correct,2,652
2,NZNKN,161,2,713,Correct,2,837
2,FZFNF,162,2,813,Correct,2,659
2,RXRXR,151,1,749,Correct,2,668
2,KRKYK,161,2,542,Correct,2,656
2,NZNPN,162,2,707,Correct,2,814
2,XPXPX,151,1,656,Correct,2,787
2,CUCUC,7,[1][3],[785][993],Correct,2,776
2,RFRFR,13,1,631,Correct,2,919
2,VYVXV,161,2,570,Correct,2,749
2,VDVDV,191,1,737,Correct,2,678
2,ZKZRZ,15,2,633,Correct,2,901
2,XCXCX,151,1,751,Correct,2,661
2,CNCUC,82,[2],[840],Incorrect,2,807
2,RCRCR,13,1,658,Correct,2,777
2,ZPZXZ,161,2,644,Correct,2,699
2,FKFYF,162,2,736,Correct,2,887
2,ZFZYZ,163,2,710,Correct,2,928
2,PXPXP,151,1,674,Correct,2,771
2,URCKC,231,2,558,Correct,2,892
2,PCPCP,113,1,615,Correct,2,674
2,XNXNX,152,1,762,Correct,2,764
2,RCRZR,161,2,679,Correct,2,805
2,XVXVX,151,1,606,Correct,2,948
2,NRNRN,152,2,530,Incorrect,2,727
2,FPFPF,225,1,672,Correct,2,946
2,XVXFX,222,2,738,Correct,2,749
2,PRPRP,151,1,784,Correct,2,721
2,FYFCF,161,2,538,Correct,2,751
2,XUXFX,91,[1][3],[829][1117],Incorrect,2,891
2,CYCVC,14,2,1535,Correct,2,772
2,VDVKV,172,2,894,Correct,2,812
2,YCYCY,15,1,691,Correct,2,847
2,NKNLN,161,2,623,Correct,2,828
2,XPUKX,233,2,724,Correct,2,697
2,ZPZPZ,113,1,709,Correct,2,673
2,KRKRK,152,1,788,Correct,2,771
2,XKXKX,153,1,601,Correct,2,914
2,YUYVY,101,[2],[1433],Incorrect,2,930
2,XKXFU,235,2,957,Correct,2,692
2,NFNFN,113,1,733,Correct,2,861
2,KDKDK,193,1,662,Correct,2,890
2,XYXKX,16,2,723,Correct,2,857
2,YZUZY,223,2,1036,Incorrect,2,895
2,KFKVK,222,2,972,Correct,2,785
2,LYLYL,151,1,665,Correct,2,912
2,CXCDC,184,2,1061,Incorrect,2,874
2,XZXNX,16,2,594,Correct,2,907
2,PXPXP,151,1,790,Correct,2,721
2,ZRZYZ,161,2,589,Correct,2,899
2,PUPYP,111,[2],[811],Incorrect,2,724
2,RNRNR,14,1,788,Correct,2,879
2,KDKDK,195,1,606,Correct,2,766
2,KNKNK,15,1,621,Correct,2,832
2,PRPKP,161,2,767,Correct,2,723
2,UNYNY,221,2,808,Incorrect,2,850
2,NYNYN,113,1,940,Correct,2,938
2,YXYXY,152,1,581,Incorrect,2,651
2,RDRDR,196,1,549,Correct,2,828
2,FCFCF,15,1,662,Correct,2,885
2,ZKZKZ,152,1,426,Correct,2,664
2,ZUZUZ,12,[1][3],[879][1152],Correct,2,881
3,E,5,3,2257,New Target,3,699
3,YZYZY,151,1,766,Correct,3,681
3,VFVNV,161,2,828,Correct,3,680
3,KYKYK,151,1,692,Correct,3,883
3,NKNKN,152,1,955,Correct,3,883
3,XVXNX,161,2,669,Correct,3,838
3,RERFR,71,[2][3],[1313][1537],Correct,3,792
3,XNXNX,13,1,558,Correct,3,912
3,NXNXN,152,1,720,Correct,3,835
3,ZLZNZ,161,2,657,Correct,3,740
3,CUCNC,171,2,819,Correct,3,656
3,FYFRF,16,2,950,Correct,3,948
3,ZLZLZ,151,1,763,Correct,3,793
3,YZYZY,152,1,803,Correct,3,905
3,CYCYC,153,1,655,Correct,3,717
3,VUVUV,192,1,618,Correct,3,856
3,PXPRP,16,2,684,Correct,3,807
3,YPYPY,151,1,617,Correct,3,787
3,CECEC,8,[1][3],[785][1009],Correct,3,727
3,VNENV,223,2,1038,Incorrect,3,683
3,KRKFK,222,2,901,Correct,3,654
3,XLXLE,225,1,694,Correct,3,946
3,RFRUR,183,2,921,Correct,3,653
3,XRXLX,16,2,734,Correct,3,782
3,NZNPN,162,2,558,Correct,3,751
3,XZXZX,151,1,547,Correct,3,719
3,FZFZF,152,1,491,Correct,3,705
3,PFPFP,153,1,1108,Correct,3,722
3,YZYXY,161,2,689,Correct,3,818
3,KEKEK,9,[1][3],[743][951],Correct,3,933
3,CXCPC,14,2,725,Correct,3,784
3,VXVXV,151,1,665,Correct,3,656
3,NUNZN,174,2,632,Correct,3,717
3,RKRVR,16,2,601,Correct,3,745
3,XRXRX,151,1,608,Correct,3,656
3,ERNFN,231,2,1066,Incorrect,3,938
3,YRYNY,222,2,604,Correct,3,715
3,PZPEP,102,[2][3],[1130][1322],Correct,3,838
3,ZYZXZ,14,2,552,Correct,3,878
3,RZRVR,162,2,488,Correct,3,904
3,XRXRX,151,1,844,Correct,3,856
3,KUKFK,175,2,597,Correct,3,822
3,RKRKR,15,1,612,Correct,3,801
3,ZFZFZ,152,1,985,Correct,3,679
3,YZYVY,161,2,597,Correct,3,919
3,XPXNX,162,2,632,Correct,3,812
3,YRYRY,151,1,882,Correct,3,868
3,EPVPV,221,1,1195,Correct,3,724
3,CRCEC,112,[2][3],[1107][1347],Correct,3,903
3,RFRCR,14,2,1074,Correct,3,765
3,CPCVC,162,2,549,Correct,3,756
3,RXRCR,163,2,660,Correct,3,878
3,VNVLV,164,2,1102,Correct,3,902
3,ZXZXZ,151,1,826,Correct,3,876
3,ZCZCZ,152,1,1369,Correct,3,672
3,PYPUP,186,2,1266,Correct,3,725
3,YKYPY,16,2,579,Correct,3,928
3,YREXY,233,2,580,Correct,3,865
3,ZKZKZ,113,1,707,Correct,3,858
3,XLXNX,161,2,1014,Correct,3,675
3,KFKRE,235,2,667,Correct,3,722
3,RXRLR,222,2,469,Correct,3,861
3,RERXR,121,[2][3],[1275][1483],Correct,3,754
4,J,5,3,2930,New Target,4,720
4,CYCVC,161,2,667,Correct,4,679
4,RXRCR,162,2,567,Correct,4,896
4,FPFVF,163,2,664,Correct,4,789
4,LZLZL,151,1,905,Correct,4,709
4,PLPLP,152,1,645,Correct,4,684
4,NPNPN,153,1,822,Correct,4,729
4,XZXZX,161,1,689,Incorrect,4,767
4,CNCKC,162,2,521,Correct,4,925
4,PCPYJ,235,2,1003,Correct,4,824
4,VYVYV,113,1,775,Correct,4,948
4,RLRLR,152,1,691,Correct,4,806
4,CJCJC,7,[1][3],[488][1144],Correct,4,822
4,ZLZLZ,13,1,902,Correct,4,855
4,FZFZF,152,1,560,Correct,4,720
4,CFCFC,153,1,609,Correct,4,860
4,PZPZP,154,1,1100,Correct,4,927
4,XEXEX,191,1,521,Correct,4,790
4,NVNFN,16,2,510,Correct,4,776
4,KYKYK,151,1,866,Correct,4,861
4,ZNZVZ,161,2,965,Correct,4,916
4,YVJXY,233,2,772,Correct,4,884
4,XFXFX,113,1,685,Correct,4,809
4,XNXNX,152,1,663,Correct,4,885
4,FJFKF,81,[2][3],[1137][1345],Correct,4,809
4,CZCYC,14,2,862,Correct,4,943
4,ZXZCZ,162,2,613,Correct,4,854
4,RYRYJ,225,1,867,Correct,4,881
4,FPFZF,222,2,637,Correct,4,676
4,XRXRX,151,1,759,Correct,4,929
4,YPYEY,182,2,612,Correct,4,761
4,XRXRX,15,1,619,Correct,4,675
4,XZXPX,161,1,513,Incorrect,4,673
4,CJCJC,9,[1][3],[1017][1209],Correct,4,722
4,ZXZVZ,14,2,1179,Correct,4,813
4,VKVKV,151,2,902,Incorrect,4,834
4,VEVNV,173,2,593,Correct,4,677
4,ZKZVZ,16,2,587,Correct,4,663
4,XVXJX,102,[2][3],[829][1053],Correct,4,910
4,RXRVR,14,2,627,Correct,4,743
4,LRLRL,151,1,754,Correct,4,820
4,YNJNY,223,1,883,Correct,4,678
4,NPNJN,222,2,985,Correct,4,777
4,ZEZEZ,194,1,761,Correct,4,840
4,ZNZNZ,15,1,561,Correct,4,938
4,YZYZY,152,1,459,Correct,4,916
4,XYXYX,153,1,595,Correct,4,722
4,ZXZXZ,221,1,433,Correct,4,868
4,LYLZL,222,2,748,Correct,4,699
4,CYCNC,162,2,773,Correct,4,907
4,XEXEX,195,1,1058,Correct,4,715
4,CVCXC,16,2,669,Correct,4,927
4,ZPZXZ,162,2,535,Correct,4,896
4,FZFZF,151,1,519,Correct,4,890
4,RXRJR,112,[2][3],[990][1198],Correct,4,693
4,PRPFP,14,2,681,Correct,4,668
4,PKPEP,186,2,501,Correct,4,816
4,XZXPX,16,2,589,Correct,4,687
4,JCZVZ,231,2,803,Correct,4,703
4,RXRLR,222,2,617,Correct,4,895
4,VZVZV,151,1,536,Correct,4,861
4,XJXJX,12,[1][3],[747][987],Correct,4,742
5,I,5,3,5613,New Target,5,781
5,PCPCP,151,1,1071,Correct,5,950
5,XYXYX,152,1,505,Correct,5,886
5,VXVXV,153,1,779,Correct,5,825
5,XVXVX,154,1,820,Correct,5,869
5,ZRZXZ,161,2,714,Correct,5,825
5,FPFZF,162,2,821,Correct,5,876
5,ZYZYZ,151,1,621,Correct,5,788
5,RVRZR,161,2,622,Correct,5,814
5,CICIC,7,[1][3],[765][1021],Correct,5,659
5,XLXLX,13,1,637,Correct,5,815
5,YVYVY,152,1,600,Correct,5,903
5,CJCJC,191,1,492,Correct,5,754
5,FNFCF,16,2,989,Correct,5,840
5,PVPRP,162,2,484,Correct,5,668
5,FZFZF,151,2,371,Incorrect,5,917
5,NVIVN,223,1,942,Correct,5,758
5,CVCIC,82,[2][3],[831][1055],Correct,5,785
5,ZXZXZ,13,1,523,Correct,5,828
5,FCFZF,161,2,651,Correct,5,907
5,IXRXR,221,1,644,Correct,5,907
5,ZPZNZ,222,2,566,Correct,5,715
5,VZVZV,151,1,703,Correct,5,658
5,YRYNY,161,2,654,Correct,5,664
5,VNVPV,162,2,752,Correct,5,719
5,RVRJR,182,2,731,Correct,5,770
5,VRVRV,15,1,569,Correct,5,738
5,VIVIV,9,[2],[548],Incorrect,5,765
5,CXCVC,14,2,832,Correct,5,766
5,PZPZP,151,1,739,Correct,5,950
5,IXVKV,231,2,658,Correct,5,747
5,YJYCY,173,2,546,Incorrect,5,736
5,VYVYV,15,1,631,Correct,5,825
5,YVYVY,152,1,1033,Correct,5,750
5,NVNVN,153,1,765,Correct,5,707
5,XYXVX,161,2,759,Correct,5,804
5,NJNCN,174,2,823,Correct,5,725
5,NXNYN,16,2,612,Correct,5,686
5,VXVCV,162,2,645,Correct,5,822
5,ZKZKZ,151,1,896,Correct,5,825
5,XRXYX,161,2,708,Correct,5,861
5,ZCZXZ,162,2,499,Correct,5,774
5,KVKYI,235,2,892,Correct,5,706
5,CNCNC,113,1,620,Correct,5,891
5,RIRIR,10,[1][3],[854][1094],Correct,5,698
5,VYVXV,14,2,630,Correct,5,840
5,FXIRF,233,2,1579,Correct,5,730
5,PFPFP,113,1,667,Correct,5,669
5,VPVPV,152,1,679,Correct,5,938
5,ZJZJZ,195,2,883,Incorrect,5,782
5,ZVZNZ,16,2,781,Correct,5,683
5,YVYXY,162,2,649,Correct,5,720
5,PRPRP,151,1,725,Correct,5,858
5,YPYPY,152,1,1010,Correct,5,821
5,ZIZPZ,111,[2][3],[921][1145],Correct,5,904
5,NKNXN,14,1,741,Incorrect,5,836
5,RZRXR,162,2,720,Correct,5,809
5,RXRXR,151,1,986,Correct,5,838
5,ZJZJZ,196,1,1175,Correct,5,945
5,CVCVI,225,1,802,Incorrect,5,812
5,NKNKN,113,1,615,Correct,5,941
5,NRNZN,161,1,455,Incorrect,5,747
5,CNCNC,151,1,608,Correct,5,708
5,RFRIR,122,[2][3],[934][1174],Correct,5,756
6,B,5,3,1338,New Target,6,830
6,YKYZY,161,2,1430,Correct,6,799
6,VCVRV,162,,,Incorrect,6,720
6,XVXVX,151,1,871,Correct,6,728
6,KZKRK,161,2,849,Correct,6,695
6,ZVZXZ,162,2,700,Correct,6,671
6,RCRNR,163,2,554,Correct,6,836
6,CXCRC,164,2,698,Correct,6,887
6,VNBCV,233,2,796,Correct,6,653
6,CXCVC,222,2,676,Correct,6,860
6,RFRFR,151,1,685,Correct,6,920
6,XPXRX,161,1,732,Incorrect,6,828
6,RYRBR,72,[2][3],[889][1097],Correct,6,766
6,ZKZKZ,13,1,716,Correct,6,937
6,FIFRF,171,2,654,Correct,6,651
6,VZVLV,16,2,954,Correct,6,877
6,RPRVR,162,2,699,Correct,6,912
6,YBYBY,8,[1][3],[556][876],Correct,6,900
6,PYPVP,14,2,1200,Correct,6,877
6,NININ,192,1,937,Correct,6,883
6,RNRNR,15,1,664,Correct,6,902
6,NXNVN,161,2,530,Correct,6,903
6,RNRNR,151,1,635,Correct,6,674
6,FRFVF,161,2,654,Correct,6,796
6,YVYFB,235,2,912,Incorrect,6,684
6,ZRZXZ,222,2,804,Correct,6,847
6,VNVIV,193,2,585,Incorrect,6,902
6,PXPNP,16,2,487,Correct,6,876
6,ZXZPZ,162,2,456,Correct,6,950
6,VBVBV,9,[1][3],[451][1042],Correct,6,886
6,CXCXC,13,2,898,Incorrect,6,890
6,PCPFP,161,2,650,Correct,6,751
6,KNKNK,151,1,597,Correct,6,824
6,XIXIX,194,1,491,Correct,6,720
6,CYCYC,15,1,669,Correct,6,934
6,FVFYF,161,2,1063,Correct,6,880
6,YNYRY,162,2,867,Correct,6,873
6,BVPXP,231,2,662,Correct,6,930
6,NXNXN,113,1,659,Correct,6,839
6,FRFRF,152,1,899,Correct,6,791
6,YVYVY,153,1,777,Correct,6,745
6,ZKZCZ,161,2,802,Correct,6,792
6,VIVXV,175,2,597,Correct,6,933
6,PRBRP,223,2,859,Incorrect,6,659
6,YZYBY,102,[2][3],[739][995],Correct,6,794
6,CXCVC,14,2,637,Correct,6,839
6,FYFYF,151,2,542,Incorrect,6,787
6,VKVXV,161,2,687,Correct,6,859
6,ZBZBZ,11,[1][3],[552][840],Correct,6,936
6,FPFNF,14,2,843,Correct,6,751
6,CXCXC,151,1,608,Correct,6,793
6,YCYCY,152,1,733,Correct,6,865
6,FPFPF,153,1,631,Correct,6,812
6,CVCVB,225,1,690,Correct,6,869
6,ZCZCZ,113,1,481,Correct,6,826
6,CZCNC,161,2,696,Correct,6,793
6,KIKFK,176,2,561,Correct,6,884
6,PXPXP,15,1,662,Correct,6,780
6,RYRYR,152,1,538,Correct,6,729
6,ZRZCZ,161,2,695,Correct,6,926
6,RVRVR,151,1,592,Correct,6,889
6,XYXNX,161,1,593,Incorrect,6,799
6,BVKVK,221,1,736,Correct,6,898
6,CBCBC,12,[1][3],[815][1055],Correct,6,894
7,W,5,3,1958,New Target,7,830
7,RKRKR,151,1,714,Correct,7,832
7,CVCRC,161,2,667,Correct,7,656
7,PKPKP,151,1,469,Correct,7,932
7,FPFPF,152,1,585,Correct,7,894
7,VRVPV,161,2,682,Correct,7,760
7,ZKZYZ,162,2,580,Correct,7,950
7,PVPCP,233,2,677,Correct,7,802
7,KVKVK,113,1,886,Correct,7,778
7,YXYVY,161,2,573,Correct,7,762
7,FNFNF,151,1,636,Correct,7,896
7,YWYWY,7,[1][3],[894][1102],Correct,7,763
7,ZYZYZ,13,2,598,Incorrect,7,707
7,PYPYP,152,1,609,Correct,7,933
7,XRXRX,153,1,542,Correct,7,890
7,PXPXP,154,1,833,Correct,7,823
7,FCFBF,181,2,794,Correct,7,812
7,FVFVF,15,1,666,Correct,7,654
7,CYCZC,161,2,798,Correct,7,678
7,XZXVX,162,2,596,Correct,7,930
7,PFPFP,151,1,898,Correct,7,865
7,RVRLR,161,2,649,Correct,7,727
7,ZBZBZ,192,1,626,Correct,7,947
7,VCVNV,16,2,752,Correct,7,842
7,NWNWN,8,[1][3],[876][1084],Correct,7,739
7,XNXVX,14,2,623,Correct,7,950
7,CXCNC,162,2,730,Correct,7,934
7,YVYVW,225,1,820,Correct,7,837
7,VFVFV,113,1,658,Correct,7,651
7,VFWFV,223,1,940,Correct,7,942
7,CVCFC,222,2,645,Correct,7,708
7,YBYBY,193,1,538,Correct,7,661
7,PYPYP,15,1,570,Correct,7,882
7,NKNWN,91,[2][3],[948][1172],Correct,7,895
7,VNVNV,13,1,861,Correct,7,766
7,RVRVR,152,1,583,Correct,7,741
7,FVFBF,184,2,619,Incorrect,7,728
7,VZVKV,16,2,697,Correct,7,821
7,VPVCV,162,2,603,Correct,7,715
7,WYZCZ,231,2,600,Correct,7,884
7,PFPFP,113,1,586,Correct,7,765
7,PRPRP,152,1,1372,Correct,7,836
7,NWNWN,10,[1][3],[745][969],Correct,7,795
7,VKVCV,14,2,605,Correct,7,711
7,WPYPY,221,1,571,Correct,7,860
7,VBVBV,195,1,593,Correct,7,707
7,ZKZYZ,16,2,724,Correct,7,804
7,XYXYX,151,1,606,Correct,7,879
7,FZFXF,161,2,548,Correct,7,684
7,XKXKX,151,1,592,Correct,7,933
7,XPXPX,152,1,582,Correct,7,691
7,FWFWF,11,[1][3],[682][922],Correct,7,678
7,FNFBF,186,2,731,Correct,7,771
7,ZVZYZ,16,1,739,Incorrect,7,902
7,FZFZF,151,1,679,Correct,7,940
7,NPNFW,235,2,683,Correct,7,674
7,PCPCP,113,1,811,Correct,7,790
7,NKNWN,122,[2][3],[650][1514],Correct,7,683
8,M,5,3,1587,New Target,8,829
8,VYVNV,161,2,676,Correct,8,747
8,KLKNK,162,2,599,Correct,8,701
8,NRNRN,151,1,1001,Correct,8,706
8,VNVFV,161,2,541,Correct,8,681
8,XNXNM,225,1,871,Correct,8,651
8,CXCVC,222,2,700,Correct,8,886
8,KRKZK,162,2,744,Correct,8,863
8,NMNFN,71,[1],[1022],Incorrect,8,865
8,ZFZFZ,13,1,1040,Correct,8,877
8,YPYCY,161,2,1187,Correct,8,797
8,KCKCK,151,1,674,Correct,8,691
8,VNVNV,152,1,834,Correct,8,702
8,LXLXL,153,1,616,Correct,8,862
8,CLCLC,154,1,451,Correct,8,904
8,NYNYN,155,1,762,Correct,8,820
8,LCMYL,233,1,836,Incorrect,8,838
8,NCNCN,113,1,816,Correct,8,713
8,ZVZRZ,161,2,595,Correct,8,900
8,ZVZVZ,151,1,792,Correct,8,700
8,PZPVP,161,2,769,Correct,8,817
8,PWPNP,171,2,618,Correct,8,855
8,KLKCM,235,2,942,Correct,8,698
8,XMXMX,8,[1][3],[861][1117],Correct,8,945
8,PRPXP,14,2,519,Correct,8,789
8,CVCYC,162,2,783,Correct,8,708
8,PXPMP,92,[2][3],[1029][1349],Correct,8,756
8,ZCZLZ,14,2,652,Correct,8,670
8,XWXWX,192,1,630,Correct,8,940
8,ZCZLZ,16,2,608,Correct,8,949
8,MNCYC,231,2,687,Correct,8,862
8,ZXZXZ,113,2,382,Incorrect,8,742
8,YRYNY,161,2,564,Correct,8,864
8,ZLZPZ,162,2,492,Correct,8,682
8,VZVZV,151,1,854,Correct,8,672
8,MXPXP,221,1,769,Correct,8,716
8,VWVWV,193,1,654,Correct,8,659
8,PYPYP,16,1,563,Incorrect,8,680
8,XPXVX,162,2,835,Correct,8,900
8,XLXLX,151,1,718,Correct,8,700
8,YMYMY,10,[1][3],[740][980],Correct,8,836
8,VYVYV,13,2,1191,Incorrect,8,783
8,PWPZP,174,2,748,Correct,8,950
8,PYPKP,16,2,838,Correct,8,833
8,NPNXN,162,2,507,Correct,8,881
8,KVKVK,223,1,766,Correct,8,878
8,NVNFN,222,2,516,Correct,8,881
8,XNXNX,151,1,535,Correct,8,864
8,YZYMY,112,[2][3],[608][1024],Correct,8,779
8,PFPFP,13,1,692,Correct,8,766
8,ZWZWZ,195,1,718,Correct,8,876
8,PCPZP,16,2,696,Correct,8,913
8,LRLPL,162,2,1281,Correct,8,899
8,CZCZC,151,1,600,Correct,8,804
8,NZNZN,152,1,554,Correct,8,724
8,CVCXC,161,2,754,Correct,8,674
8,XCXCX,151,1,812,Correct,8,830
8,YWYWY,196,1,953,Correct,8,702
8,NLNLN,15,1,985,Correct,8,898
8,VNVNV,152,1,673,Correct,8,655
8,ZMZMZ,12,[1][3],[692][916],Correct,8,746
9,S,5,3,3631,New Target,9,702
9,NZNZN,151,1,978,Correct,9,858
9,KVKZK,161,2,628,Correct,9,869
9,LZLZL,151,1,757,Correct,9,808
9,XLXLX,152,1,602,Correct,9,889
9,ZXZXZ,153,1,591,Correct,9,664
9,KNKZK,161,2,722,Correct,9,751
9,NRNYN,162,2,722,Correct,9,693
9,CLCVC,163,2,667,Correct,9,832
9,ZCZFZ,164,2,493,Correct,9,729
9,NSNSN,7,[1][3],[580][1172],Correct,9,706
9,VZVZV,13,1,598,Correct,9,887
9,NVNCN,161,2,747,Correct,9,763
9,VMVMV,191,1,595,Correct,9,893
9,CVCXC,16,2,646,Correct,9,744
9,ZYZRZ,162,2,771,Correct,9,839
9,XNXZX,163,2,914,Correct,9,664
9,PXPXP,151,1,743,Correct,9,767
9,VCVSV,82,[2][3],[669][893],Correct,9,842
9,PRPCP,14,2,656,Correct,9,841
9,ZMZMZ,192,2,765,Correct,9,891
9,ZFZFZ,15,1,1192,Correct,9,813
9,FCFCF,152,1,480,Correct,9,899
9,YLYZY,161,2,886,Correct,9,836
9,KNKVK,162,2,633,Correct,9,847
9,SFPCP,231,2,878,Correct,9,671
9,RPRPR,113,1,887,Correct,9,733
9,XMXMX,193,1,522,Correct,9,859
9,KFKFK,15,1,555,Correct,9,881
9,VSVSV,9,[1][3],[659][899],Correct,9,935
9,YVSVY,223,2,980,Incorrect,9,879
9,VPVPV,113,1,871,Correct,9,811
9,XZXZX,152,1,602,Correct,9,930
9,KZKXK,161,2,824,Correct,9,873
9,RFRPR,162,2,688,Correct,9,838
9,NVNVS,225,2,541,Incorrect,9,788
9,ZXZXZ,113,2,482,Incorrect,9,775
9,SRVRV,221,1,839,Correct,9,862
9,YCYCY,113,1,555,Correct,9,865
9,KMKZK,174,2,658,Correct,9,709
9,FZSVF,233,2,972,Correct,9,913
9,VYVYV,113,1,735,Correct,9,758
9,LVLVL,152,1,562,Correct,9,663
9,YFYFY,153,1,543,Correct,9,934
9,NXNSN,102,[2][3],[1123][1587],Correct,9,732
9,FNFCF,14,2,725,Correct,9,894
9,KVKVK,151,1,515,Correct,9,751
9,VZVCV,161,2,596,Correct,9,840
9,ZYZMZ,185,2,545,Correct,9,877
9,VXVZV,16,2,499,Correct,9,831
9,VPVPV,151,1,868,Correct,9,869
9,RVRNS,235,2,858,Correct,9,829
9,YZYZY,113,1,595,Correct,9,714
9,ZSZSZ,11,[2],[1029],Incorrect,9,767
9,FRFRF,13,1,729,Correct,9,881
9,ZMZMZ,196,1,550,Correct,9,788
9,NZNXN,16,2,795,Correct,9,732
9,LSLFL,121,[2],[776],Incorrect,9,702
10,Q,5,3,3099,New Target,10,900
10,ZVZPZ,161,2,827,Correct,10,866
10,RZRZR,151,1,665,Correct,10,653
10,ZFZFZ,152,1,756,Correct,10,914
10,RZRZR,153,1,562,Correct,10,771
10,PZPXP,161,1,564,Incorrect,10,839
10,VFQPV,233,1,825,Incorrect,10,687
10,ZPZRZ,222,2,784,Correct,10,840
10,CYCVC,162,2,718,Correct,10,700
10,CPCPC,151,1,581,Correct,10,938
10,YZYQY,72,[2][3],[712][935],Correct,10,742
10,FVFXF,14,2,661,Correct,10,879
10,YNYNQ,225,2,522,Incorrect,10,697
10,ZYZYZ,113,1,722,Correct,10,740
10,FRFSF,181,2,796,Incorrect,10,885
10,XNXPX,16,2,699,Correct,10,663
10,NXNXN,151,1,685,Correct,10,704
10,PVPZP,161,2,508,Correct,10,730
10,XVXPX,162,2,545,Correct,10,858
10,FXFVF,163,2,617,Correct,10,710
10,NSNKN,172,2,671,Incorrect,10,654
10,VXVNV,16,2,491,Correct,10,942
10,XZXZX,151,1,666,Correct,10,922
10,VQVQV,8,[1][3],[777][953],Correct,10,766
10,ZYZPZ,14,2,533,Correct,10,911
10,PZPSP,183,2,564,Correct,10,885
10,YVYVY,15,2,611,Incorrect,10,861
10,NCNQN,92,[2][3],[1047][1271],Correct,10,754
10,FCFVF,14,2,568,Correct,10,686
10,ZFZFZ,151,1,622,Correct,10,702
10,NSNSN,194,1,667,Correct,10,855
10,YPYFY,16,2,667,Correct,10,773
10,ZKZKZ,151,1,726,Correct,10,905
10,QZRCR,231,2,542,Correct,10,848
10,YPYVY,222,2,589,Correct,10,901
10,ZNZNZ,151,1,593,Correct,10,715
10,VQVQV,10,[1][3],[726][966],Correct,10,768
10,RVRZR,14,2,588,Correct,10,869
10,KRKSK,185,2,717,Correct,10,798
10,NPNPN,15,1,652,Correct,10,743
10,YPYPY,152,1,520,Correct,10,870
10,VCVYV,161,2,704,Correct,10,655
10,FPFNF,162,2,539,Correct,10,868
10,QVXVX,221,2,603,Incorrect,10,914
10,ZVZRZ,222,2,457,Correct,10,880
10,LFLFL,151,1,673,Correct,10,724
10,VLVLV,152,1,564,Correct,10,690
10,KXQXK,223,1,840,Correct,10,739
10,YQYQY,11,[1][3],[656][976],Correct,10,678
10,YCYCY,13,1,650,Correct,10,948
10,PZPYP,161,2,774,Correct,10,846
10,LPLFL,162,1,701,Incorrect,10,946
10,VSVSV,196,1,503,Correct,10,781
10,VFVYQ,235,2,787,Correct,10,674
10,CZCXC,222,2,706,Correct,10,673
10,PVPCP,162,2,668,Correct,10,815
10,CXCXC,151,1,1452,Correct,10,703
10,NZNZN,152,1,632,Correct,10,897
10,YPYCY,161,2,678,Correct,10,876
10,ZQZQZ,12,[1][3],[537][841],Correct,10,910
11,T,5,3,2777,New Target,11,722
11,KFKFK,151,1,762,Correct,11,664
11,LZLZL,152,1,695,Correct,11,730
11,PFPVP,161,2,581,Correct,11,777
11,FRFPF,162,2,717,Correct,11,659
11,FZFZF,151,1,554,Correct,11,731
11,VTVTV,7,[1][3],[808][1048],Correct,11,700
11,KYKCK,14,2,519,Correct,11,859
11,VPVPV,151,1,605,Correct,11,706
11,XQXQX,191,1,1187,Correct,11,726
11,PZPYP,16,2,675,Correct,11,666
11,KXKLK,162,2,651,Correct,11,898
11,TCNCN,221,1,845,Correct,11,704
11,PZPNP,222,2,568,Correct,11,746
11,RCRPR,162,2,582,Correct,11,905
11,PZPRT,235,2,502,Correct,11,763
11,XFXVX,222,2,553,Correct,11,893
11,LTLVL,81,[2][3],[1062][1318],Correct,11,797
11,ZCZPZ,14,2,682,Correct,11,840
11,NCNQN,182,2,548,Correct,11,864
11,XZXNX,16,2,610,Correct,11,910
11,ZPZPZ,151,1,865,Correct,11,863
11,CFCFC,152,1,614,Correct,11,844
11,VXTRV,233,2,516,Correct,11,866
11,CFCVC,222,2,701,Correct,11,751
11,PYPYP,151,1,696,Correct,11,804
11,FQFYF,173,2,569,Correct,11,702
11,CNCFC,16,2,664,Correct,11,854
11,PTPTP,9,[1][3],[842][1081],Correct,11,848
11,ZCZCZ,13,1,678,Correct,11,932
11,KZKZK,152,1,610,Correct,11,907
11,RLRVR,161,2,613,Correct,11,733
11,ZRZKZ,162,2,694,Correct,11,842
11,KLKLT,225,1,994,Correct,11,879
11,ZQZQZ,194,1,855,Correct,11,711
11,VZVZV,15,1,736,Correct,11,797
11,RVRZR,161,2,618,Correct,11,847
11,ZPZCZ,162,2,711,Correct,11,891
11,VYVYV,151,1,696,Correct,11,747
11,RVRVR,152,1,853,Correct,11,825
11,PTPTP,10,[1][3],[677][917],Correct,11,742
11,PXPXP,13,1,648,Correct,11,902
11,KCKCK,152,1,521,Correct,11,712
11,YVYVY,153,1,477,Correct,11,818
11,CYCYC,154,1,437,Correct,11,739
11,XCXCX,155,1,546,Correct,11,668
11,CYCQC,185,2,630,Correct,11,778
11,KCKNK,16,2,660,Correct,11,854
11,VPVPV,151,1,579,Correct,11,766
11,TXFZF,231,2,900,Correct,11,826
11,NYNVN,222,2,586,Correct,11,784
11,VQVXV,176,2,442,Correct,11,813
11,ZRZRZ,15,2,452,Incorrect,11,707
11,VTVZV,111,[2][3],[1227][1419],Correct,11,731
11,PXPVP,14,2,710,Correct,11,919
11,FVFVF,151,1,724,Correct,11,813
11,VRVLV,161,2,656,Correct,11,843
11,YCYCY,151,1,734,Correct,11,863
11,XZTZX,223,1,1288,Correct,11,851
11,VTVTV,12,[1][3],[891][1099],Correct,11,762
12,O,5,3,3622,New Target,12,768
12,VXVLV,161,2,935,Correct,12,818
12,KVKCK,162,2,530,Correct,12,671
12,VLVLV,151,1,611,Correct,12,872
12,ZCZVZ,161,2,580,Correct,12,760
12,KFKFK,151,1,667,Correct,12,743
12,XKXKX,152,1,538,Correct,12,720
12,YXYXY,153,1,465,Correct,12,753
12,FVFVF,154,1,438,Correct,12,812
12,PVPOP,72,[2][3],[941][1133],Correct,12,786
12,ZXZYZ,14,2,684,Correct,12,663
12,PXPVP,162,2,527,Correct,12,658
12,ZTZTZ,191,1,610,Correct,12,863
12,CVCKC,16,2,918,Correct,12,708
12,CKCKC,151,1,584,Correct,12,827
12,NPNPN,152,1,609,Correct,12,680
12,ZRZNZ,161,1,481,Incorrect,12,753
12,OZCZC,221,1,658,Correct,12,934
12,LFLFL,113,1,495,Correct,12,860
12,CXCXC,152,1,574,Correct,12,936
12,KPKPK,153,1,491,Correct,12,940
12,FRFKF,161,2,722,Correct,12,849
12,FOFOF,8,[1][3],[669][1005],Correct,12,700
12,ZFZFZ,13,2,892,Incorrect,12,737
12,LKLZO,235,2,615,Correct,12,665
12,KLKZK,222,2,711,Correct,12,751
12,YXYCY,162,2,487,Correct,12,778
12,LOLOL,9,[1][3],[1063][1239],Correct,12,820
12,XLXLX,13,1,704,Correct,12,717
12,XVXVX,152,1,860,Correct,12,810
12,FTFTF,192,1,544,Correct,12,853
12,OXNZN,231,1,952,Incorrect,12,704
12,CZCZC,113,1,960,Correct,12,660
12,LZLZL,152,1,497,Correct,12,828
12,VLVPV,161,2,534,Correct,12,834
12,VYVYO,225,2,772,Incorrect,12,880
12,XKXKX,113,1,816,Correct,12,734
12,RTRTR,193,1,553,Correct,12,813
12,KVKCK,16,2,632,Correct,12,882
12,ROROR,101,[1][3],[984][1176],Correct,12,950
12,PRPRP,13,1,908,Correct,12,700
12,LYLVL,161,2,636,Correct,12,887
12,PLPLP,151,1,528,Correct,12,660
12,CTCTC,194,1,518,Correct,12,788
12,XZXYX,16,2,730,Correct,12,842
12,NKNKN,151,1,717,Correct,12,656
12,VLVZV,161,2,653,Correct,12,759
12,YOYOY,11,[1][3],[547][754],Correct,12,829
12,PZOZP,223,1,984,Correct,12,930
12,FYFYF,113,1,637,Correct,12,788
12,ZXZVZ,161,2,635,Correct,12,889
12,VKVZV,162,2,587,Correct,12,800
12,ZTZTZ,195,1,722,Correct,12,662
12,LKLZL,16,2,675,Correct,12,772
12,KCKVK,162,2,563,Correct,12,708
12,PXPKP,163,2,770,Correct,12,889
12,KCOZK,233,2,623,Correct,12,768
12,FKFKF,113,1,684,Correct,12,937
12,CTCRC,176,2,1540,Correct,12,920
12,NXNXN,15,1,1202,Correct,12,838
12,KXKVK,161,2,814,Correct,12,716
12,CPCOC,122,[2][3],[621][813],Correct,12,869
13,H,5,3,3539,New Target,13,916
13,VFVNV,151,2,959,Incorrect,13,823
13,YVYVY,152,1,834,Correct,13,833
13,XVXVX,153,1,548,Correct,13,909
13,NRNXN,161,2,752,Correct,13,936
13,PZPKP,162,2,599,Correct,13,913
13,HLVLV,221,1,822,Correct,13,897
13,CXCZC,222,2,619,Correct,13,927
13,LHLYL,71,[1],[810],Incorrect,13,848
13,YKYFY,14,2,1132,Correct,13,852
13,YOYRY,171,2,1113,Correct,13,743
13,ZKZYZ,16,2,595,Correct,13,878
13,RZRZR,151,1,814,Correct,13,940
13,NFNYN,161,2,657,Correct,13,946
13,KVKFK,162,2,471,Correct,13,650
13,XFXYX,163,2,472,Correct,13,892
13,LKLVL,164,2,512,Correct,13,723
13,NLNLN,151,1,745,Correct,13,723
13,XCXOX,182,2,615,Correct,13,747
13,FXFXF,15,1,807,Correct,13,831
13,VHVHV,8,[1][3],[832][1023],Correct,13,929
13,PVPVP,13,1,980,Correct,13,823
13,CRCXC,161,2,614,Correct,13,838
13,NXNXN,151,1,1089,Correct,13,938
13,XRXRX,152,1,548,Correct,13,680
13,YFYXY,161,2,729,Correct,13,685
13,ZOZOZ,193,1,1220,Correct,13,854
13,RZRZR,15,1,587,Correct,13,895
13,FKFKF,152,1,570,Correct,13,914
13,PFPFP,153,1,651,Correct,13,841
13,XYXHX,92,[2][3],[904][1112],Correct,13,701
13,RZRKR,14,2,658,Correct,13,834
13,FLFLH,225,1,742,Correct,13,655
13,KRKRK,113,1,625,Correct,13,847
13,ZVZNZ,161,2,594,Correct,13,726
13,ZOZOZ,194,1,803,Correct,13,847
13,FZFZF,15,1,551,Correct,13,907
13,FHFKF,101,[2],[647],Incorrect,13,742
13,ZXHLZ,233,2,1036,Correct,13,874
13,FKFXF,222,2,777,Correct,13,931
13,CFCYC,162,2,599,Correct,13,717
13,ZXZVZ,163,2,533,Correct,13,898
13,KCKOK,185,2,517,Correct,13,850
13,ZXZVH,235,2,505,Correct,13,775
13,CKCKC,113,2,460,Incorrect,13,815
13,ZXZCZ,161,2,487,Correct,13,683
13,YVYVY,151,1,753,Correct,13,711
13,RVHVR,223,1,601,Correct,13,880
13,ZRZRZ,113,1,571,Correct,13,814
13,ZHZHZ,11,[1][3],[1214][1406],Correct,13,780
13,VZVZV,13,1,910,Correct,13,766
13,HZVRV,231,2,788,Correct,13,838
13,FVFVF,113,1,639,Correct,13,798
13,RNRCR,161,2,589,Correct,13,789
13,COCOC,196,1,737,Correct,13,755
13,VNVXV,16,2,658,Correct,13,662
13,XHXHX,12,[1][3],[656][880],Correct,13,806
14,G,5,3,1132,New Target,14,886
14,FZFZF,151,1,684,Correct,14,934
14,RPRVR,161,2,473,Correct,14,804
14,XCXCX,151,1,542,Correct,14,802
14,YXYXY,152,1,739,Correct,14,720
14,KZKZK,153,1,468,Correct,14,708
14,RYRKR,161,2,702,Correct,14,736
14,FYFNF,162,2,815,Correct,14,669
14,VKVKV,151,1,779,Correct,14,764
14,KPGPK,223,1,1123,Correct,14,883
14,YNYNY,113,1,509,Correct,14,923
14,VYVYV,152,1,493,Correct,14,887
14,YCYXY,161,2,622,Correct,14,898
14,LKLGL,72,[2][3],[1271][1447],Correct,14,905
14,VXVXV,13,1,614,Correct,14,678
14,KCKVK,161,2,701,Correct,14,680
14,YKYKY,151,1,663,Correct,14,849
14,RHRXR,171,2,556,Correct,14,675
14,FVFCF,16,2,708,Correct,14,709
14,YXYGY,82,[2][3],[770][946],Correct,14,822
14,CLCLC,13,1,655,Correct,14,757
14,ZXZCZ,161,2,605,Correct,14,808
14,VLVFV,162,2,416,Correct,14,707
14,CPCPG,225,2,531,Incorrect,14,945
14,KHKNK,172,2,663,Correct,14,822
14,ZKZVZ,16,2,470,Correct,14,804
14,YKYLY,162,2,538,Correct,14,874
14,CNCNC,151,2,739,Incorrect,14,683
14,PGPGP,9,[1][3],[1000][1224],Correct,14,745
14,VPVPV,13,1,833,Correct,14,824
14,FXGRF,233,2,619,Correct,14,751
14,CYCVC,222,2,779,Correct,14,775
14,FNFNF,151,2,609,Incorrect,14,948
14,KFKCK,161,2,758,Correct,14,724
14,ZFZHZ,183,2,757,Correct,14,704
14,NXNXN,15,1,831,Correct,14,837
14,FNFNF,152,1,552,Correct,14,731
14,LXLNG,235,2,839,Correct,14,902
14,XKXVX,222,2,558,Correct,14,787
14,ZHZHZ,194,1,613,Correct,14,742
14,PFPFP,15,1,684,Correct,14,659
14,ZYZYZ,152,1,661,Correct,14,924
14,XPXVX,161,2,677,Correct,14,723
14,YCYCY,151,1,752,Correct,14,831
14,RGRGR,10,[1][3],[625][833],Correct,14,670
14,VRVRV,13,1,580,Correct,14,764
14,PKPNP,161,2,594,Correct,14,897
14,XGXGX,11,[1][3],[566][838],Correct,14,652
14,GZYVY,231,2,632,Correct,14,851
14,VCVNV,222,2,645,Correct,14,899
14,VHVHV,195,1,840,Correct,14,729
14,LXLNL,16,2,578,Correct,14,788
14,GKPKP,221,1,781,Correct,14,944
14,XRXPX,222,1,786,Incorrect,14,929
14,XNXNX,151,1,523,Correct,14,812
14,KHKNK,176,1,526,Correct,14,817
14,RZRZR,15,1,758,Correct,14,722
14,CGCFC,121,[2],[1554],Incorrect,14,702
15,A,5,3,2630,New Target,15,802
15,XRXFX,161,,,Incorrect,15,829
15,RXRKR,162,2,632,Correct,15,705
15,YRYRY,151,1,519,Correct,15,787
15,XPXPX,152,2,716,Incorrect,15,811
15,RPRPR,153,1,1014,Correct,15,930
15,NCNCN,154,1,548,Correct,15,875
15,RXRZR,161,2,603,Correct,15,725
15,NANAN,7,[1][3],[823][999],Correct,15,749
15,KCKYK,14,2,747,Correct,15,733
15,XKXFX,162,2,979,Correct,15,946
15,ZLZKZ,163,2,642,Correct,15,848
15,VCVZV,164,2,591,Correct,15,859
15,XCXVX,165,2,524,Correct,15,935
15,LKLZA,235,2,610,Correct,15,782
15,NCNCN,113,1,595,Correct,15,722
15,YGYGY,191,1,546,Correct,15,869
15,VLVLV,15,1,482,Correct,15,876
15,XRXRX,152,1,557,Correct,15,693
15,KAKPK,81,[2][3],[1124][1299],Correct,15,870
15,YZAZY,233,1,1360,Incorrect,15,735
15,CFCFC,113,1,663,Correct,15,783
15,VNVLV,161,2,678,Correct,15,792
15,KPKVK,162,2,550,Correct,15,726
15,NCNRN,163,2,697,Correct,15,786
15,FGFGF,192,1,885,Correct,15,810
15,RCRYR,16,2,551,Correct,15,932
15,KRKCK,162,2,667,Correct,15,813
15,CRCRC,151,1,971,Correct,15,795
15,XPAPX,223,1,953,Correct,15,889
15,LPLXL,222,1,554,Incorrect,15,869
15,CGCVC,173,2,697,Correct,15,874
15,FKFZF,16,2,660,Correct,15,894
15,CACAC,9,[1][3],[856][1032],Correct,15,896
15,XCXCX,13,1,628,Correct,15,905
15,AXRXR,221,1,513,Correct,15,837
15,NKNRN,222,2,486,Correct,15,771
15,KNKFK,162,2,692,Correct,15,936
15,KAKAK,10,[1][3],[683][891],Correct,15,850
15,ZCZRZ,14,2,617,Correct,15,931
15,RPRPR,151,1,933,Correct,15,886
15,NCNCN,152,1,683,Correct,15,776
15,RYRGR,184,2,711,Correct,15,798
15,VPVPV,15,2,483,Incorrect,15,831
15,RCRCA,225,2,637,Incorrect,15,684
15,KXKPK,222,2,586,Correct,15,860
15,NPNPN,151,1,706,Correct,15,689
15,YCYCY,152,1,514,Correct,15,687
15,PXPAP,112,[2][3],[681][937],Correct,15,763
15,ZCZNZ,14,1,517,Incorrect,15,770
15,KYKGK,185,2,588,Correct,15,678
15,ANLPL,231,2,1084,Correct,15,858
15,CXCPC,222,2,541,Correct,15,735
15,YRYRY,151,1,590,Correct,15,847
15,LGLGL,196,1,736,Correct,15,844
15,VYVLV,16,2,753,Correct,15,675
15,KVKVK,151,1,793,Correct,15,864
15,RKRKR,152,1,725,Correct,15,796
15,VXVXV,153,1,577,Correct,15,824
15,XAXAX,12,[1][3],[718][909],Correct,15,874
