Trial No,Stimulus,Trigger,Response,Response Time(ms),Correct,Block,Fixation Duration
Practice
OT Practice
1,SKSKS,15,,,False,0,820
1,DLDUD,16,,,False,0,931
1,PDPGP,16,2,1365,Correct,0,875
1,MWMWM,15,1,1551,Correct,0,922
1,FTFTF,15,2,1493,False,0,891
1,AXAMA,16,,,False,0,920
1,RYRGR,16,,,False,0,800
1,DODOD,15,1,1051,Correct,0,724
1,QTQAQ,16,,,False,0,679
1,YEYEY,15,1,965,Correct,0,784
2,GYGDG,16,2,896,Correct,0,875
2,SWSWS,15,1,640,Correct,0,869
2,HLHUH,16,2,922,Correct,0,838
2,DEDED,15,1,1038,Correct,0,802
2,ZPZOZ,16,2,808,Correct,0,792
2,ATATA,15,1,616,Correct,0,927
2,QOQOQ,15,2,896,False,0,909
2,FPFGF,16,2,831,Correct,0,841
2,TRTET,16,2,643,Correct,0,786
2,DQDQD,15,1,716,Correct,0,901
AT Practice
1,TKTKT,15,1,1249,Correct,0,868
1,SLSUS,16,,,False,0,672
1,VZVGV,7,2,1008,False,0,803
1,XWXZX,7,3,1133,Correct,0,850
1,ATATA,15,1,839,Correct,0,821
1,HXZMH,16,1,1047,False,0,862
1,TZTZT,7,3,845,Correct,0,938
1,UOUOU,15,1,839,Correct,0,654
1,ZTWAW,16,2,826,Correct,0,874
1,RZRER,7,3,796,Correct,0,887
2,JYJDJ,16,1,1220,False,0,678
2,DWDWD,15,1,840,Correct,0,835
2,GNGNG,7,3,606,Correct,0,778
2,NEZEZ,16,1,848,Correct,0,708
2,RNROR,7,1,996,False,0,817
2,QTQNQ,7,2,1041,False,0,832
2,HOHON,15,1,1232,Correct,0,764
2,KPKGK,16,1,1223,False,0,742
2,DRDED,16,2,826,Correct,0,903
2,LNLNL,7,3,748,Correct,0,896
4,GLGLG,15,1,860,Correct,0,882
4,DTDID,16,2,896,Correct,0,801
4,SMSGS,16,2,927,Correct,0,915
4,ZFZYZ,7,3,829,Correct,0,834
4,TSTFT,7,2,900,False,0,716
4,OFOFO,7,3,664,Correct,0,772
4,WYFGW,16,2,882,Correct,0,799
4,WYWYW,15,1,1204,Correct,0,813
4,MFMCM,7,3,1146,Correct,0,861
4,HQHEH,16,2,1055,Correct,0,892
Trials
1,D,5,3,2612,New Target,1,718
1,ZNZYZ,161,,,Incorrect,1,674
1,FZFZF,151,,,Incorrect,1,781
1,RKRKR,152,1,1023,Correct,1,783
1,RXRNR,161,2,954,Correct,1,944
1,CNCFC,162,2,1182,Correct,1,787
1,PDPDP,7,16,1045,Incorrect,1,848
1,CPCFC,14,2,1317,Correct,1,837
1,VLVNV,162,1,1034,Incorrect,1,827
1,KFKFK,151,2,1278,Incorrect,1,717
1,ZNZNZ,152,2,1417,Incorrect,1,679
1,KCKPD,235,2,972,Correct,1,748
1,ZKZFZ,222,,,Incorrect,1,742
1,NRNZN,162,2,1069,Correct,1,767
1,KXKRK,163,2,1536,Correct,1,730
1,YPYZY,164,2,1377,Correct,1,655
1,FKDKF,223,16,981,Incorrect,1,818
1,RPRPR,113,1,834,Correct,1,930
1,VRVKV,161,2,862,Correct,1,688
1,RFRPR,162,2,1122,Correct,1,910
1,KVKVK,151,1,1290,Correct,1,899
1,YKYVY,161,2,981,Correct,1,658
1,VDVDV,8,16,1015,Incorrect,1,844
1,DVZVZ,221,1,934,Correct,1,875
1,YFYFY,113,1,1450,Correct,1,819
1,ZYZYZ,152,1,783,Correct,1,666
1,VLVXV,161,2,1384,Correct,1,851
1,DPXZX,231,2,1351,Correct,1,949
1,RYRYR,113,1,911,Correct,1,671
1,PDPNP,91,16,1399,Incorrect,1,743
1,KXKXK,13,,,Incorrect,1,906
1,ZYZYZ,152,1,752,Correct,1,814
1,VKVKV,153,1,782,Correct,1,793
1,YZYZY,154,1,636,Correct,1,701
1,NLNZN,161,2,820,Correct,1,931
1,ZNDYZ,233,16,1198,Incorrect,1,726
1,PCPXP,222,2,1253,Correct,1,876
1,ZVZFZ,162,2,1163,Correct,1,903
1,RCRZR,163,2,1593,Correct,1,727
1,LRLRL,151,1,930,Correct,1,835
1,ZDZDZ,10,1,677,Incorrect,1,820
1,RNRZR,14,2,1249,Correct,1,847
1,CXCYC,162,2,1131,Correct,1,757
1,RCRLR,163,2,1255,Correct,1,812
1,FRFRF,151,1,1210,Correct,1,919
1,XFXFX,152,1,1258,Correct,1,689
1,RPRLR,161,2,1267,Correct,1,791
1,YXYRY,162,2,1173,Correct,1,943
1,FYFYF,151,1,740,Correct,1,793
1,YZYVY,161,2,779,Correct,1,946
1,YKYKY,151,1,757,Correct,1,789
1,XRXRX,152,1,758,Correct,1,678
1,XVXZX,161,2,690,Correct,1,745
1,PDPDP,11,1,796,Incorrect,1,939
1,ZFZFZ,13,1,1050,Correct,1,652
1,PXPXP,152,1,1335,Correct,1,894
1,LYLYL,153,1,846,Correct,1,793
1,NKNKD,225,1,822,Correct,1,784
1,ZNZNZ,113,1,815,Correct,1,835
1,PYPZP,161,2,887,Correct,1,828
1,XPXPX,151,1,815,Correct,1,704
1,VLVLV,152,1,842,Correct,1,757
1,PKPXP,161,2,938,Correct,1,931
1,FZFZF,151,1,590,Correct,1,766
1,LDLDL,12,16,944,Incorrect,1,805
2,U,5,3,538,New Target,2,677
2,ZVZFZ,161,,,Incorrect,2,853
2,FZFZF,151,1,768,Correct,2,906
2,RFRFR,152,1,975,Correct,2,713
2,NZNKN,161,2,1015,Correct,2,693
2,FZFNF,162,2,1064,Correct,2,754
2,RXRXR,151,1,1076,Correct,2,895
2,KRKYK,161,2,1507,Correct,2,837
2,NZNPN,162,2,1346,Correct,2,741
2,XPXPX,151,1,637,Correct,2,668
2,CUCUC,7,10,1145,Incorrect,2,902
2,RFRFR,13,1,1367,Correct,2,755
2,VYVXV,161,2,829,Correct,2,762
2,VDVDV,191,1,1475,Correct,2,855
2,ZKZRZ,15,2,995,Correct,2,757
2,XCXCX,151,1,794,Correct,2,682
2,CNCUC,82,10,864,Incorrect,2,932
2,RCRCR,13,1,755,Correct,2,944
2,ZPZXZ,161,2,661,Correct,2,654
2,FKFYF,162,2,866,Correct,2,801
2,ZFZYZ,163,2,812,Correct,2,721
2,PXPXP,151,1,707,Correct,2,825
2,URCKC,231,2,911,Correct,2,875
2,PCPCP,113,1,658,Correct,2,857
2,XNXNX,152,1,806,Correct,2,671
2,RCRZR,161,2,753,Correct,2,779
2,XVXVX,151,1,680,Correct,2,928
2,NRNRN,152,2,568,Incorrect,2,726
2,FPFPF,225,1,733,Correct,2,684
2,XVXFX,222,2,579,Correct,2,931
2,PRPRP,151,2,886,Incorrect,2,737
2,FYFCF,161,2,846,Correct,2,751
2,XUXFX,91,10,1064,Incorrect,2,793
2,CYCVC,14,2,724,Correct,2,861
2,VDVKV,172,2,1106,Correct,2,795
2,YCYCY,15,1,717,Correct,2,890
2,NKNLN,161,2,671,Correct,2,669
2,XPUKX,233,10,799,Incorrect,2,773
2,ZPZPZ,113,1,642,Correct,2,913
2,KRKRK,152,1,1090,Correct,2,813
2,XKXKX,153,1,881,Correct,2,760
2,YUYVY,101,10,900,Incorrect,2,866
2,XKXFU,235,2,809,Correct,2,860
2,NFNFN,113,1,1295,Correct,2,914
2,KDKDK,193,1,722,Correct,2,947
2,XYXKX,16,2,735,Correct,2,761
2,YZUZY,223,10,875,Incorrect,2,772
2,KFKVK,222,2,1102,Correct,2,896
2,LYLYL,151,1,796,Correct,2,776
2,CXCDC,184,2,872,Incorrect,2,772
2,XZXNX,16,1,1515,Incorrect,2,878
2,PXPXP,151,1,1447,Correct,2,887
2,ZRZYZ,161,2,849,Correct,2,936
2,PUPYP,111,10,869,Incorrect,2,877
2,RNRNR,14,1,781,Correct,2,787
2,KDKDK,195,1,584,Correct,2,825
2,KNKNK,15,1,919,Correct,2,835
2,PRPKP,161,2,649,Correct,2,844
2,UNYNY,221,1,922,Correct,2,753
2,NYNYN,113,1,988,Correct,2,884
2,YXYXY,152,1,968,Incorrect,2,941
2,RDRDR,196,1,695,Correct,2,899
2,FCFCF,15,1,487,Correct,2,763
2,ZKZKZ,152,1,591,Correct,2,731
2,ZUZUZ,12,1,402,Incorrect,2,728
3,E,5,3,2966,New Target,3,717
3,YZYZY,151,1,1145,Correct,3,726
3,VFVNV,161,2,1100,Correct,3,668
3,KYKYK,151,1,1038,Correct,3,650
3,NKNKN,152,1,915,Correct,3,664
3,XVXNX,161,2,957,Correct,3,701
3,RERFR,71,6,811,Incorrect,3,906
3,XNXNX,13,1,1000,Correct,3,777
3,NXNXN,152,1,740,Correct,3,892
3,ZLZNZ,161,2,908,Correct,3,918
3,CUCNC,171,6,813,Incorrect,3,886
3,FYFRF,16,2,1516,Correct,3,650
3,ZLZLZ,151,1,823,Correct,3,907
3,YZYZY,152,1,1329,Correct,3,794
3,CYCYC,153,1,647,Correct,3,771
3,VUVUV,192,1,1003,Correct,3,692
3,PXPRP,16,2,797,Correct,3,760
3,YPYPY,151,1,898,Correct,3,941
3,CECEC,8,6,664,Incorrect,3,793
3,VNENV,223,1,857,Correct,3,699
3,KRKFK,222,2,765,Correct,3,903
3,XLXLE,225,1,722,Correct,3,926
3,RFRUR,183,2,857,Correct,3,950
3,XRXLX,16,2,672,Correct,3,812
3,NZNPN,162,2,1326,Correct,3,782
3,XZXZX,151,1,1023,Correct,3,899
3,FZFZF,152,1,574,Correct,3,863
3,PFPFP,153,2,959,Incorrect,3,793
3,YZYXY,161,2,759,Correct,3,683
3,KEKEK,9,6,603,Incorrect,3,936
3,CXCPC,14,2,698,Correct,3,844
3,VXVXV,151,1,721,Correct,3,929
3,NUNZN,174,2,1172,Correct,3,678
3,RKRVR,16,2,884,Correct,3,720
3,XRXRX,151,1,954,Correct,3,732
3,ERNFN,231,6,682,Incorrect,3,877
3,YRYNY,222,2,1337,Correct,3,734
3,PZPEP,102,2,676,Incorrect,3,675
3,ZYZXZ,14,2,757,Correct,3,728
3,RZRVR,162,2,657,Correct,3,748
3,XRXRX,151,1,838,Correct,3,676
3,KUKFK,175,2,986,Correct,3,944
3,RKRKR,15,1,737,Correct,3,702
3,ZFZFZ,152,2,921,Incorrect,3,890
3,YZYVY,161,2,804,Correct,3,658
3,XPXNX,162,2,843,Correct,3,820
3,YRYRY,151,1,784,Correct,3,911
3,EPVPV,221,1,933,Correct,3,926
3,CRCEC,112,6,851,Incorrect,3,944
3,RFRCR,14,2,758,Correct,3,940
3,CPCVC,162,2,717,Correct,3,820
3,RXRCR,163,2,715,Correct,3,711
3,VNVLV,164,2,722,Correct,3,907
3,ZXZXZ,151,1,772,Correct,3,691
3,ZCZCZ,152,1,607,Correct,3,792
3,PYPUP,186,2,780,Correct,3,861
3,YKYPY,16,2,753,Correct,3,920
3,YREXY,233,2,722,Correct,3,663
3,ZKZKZ,113,1,708,Correct,3,658
3,XLXNX,161,2,669,Correct,3,849
3,KFKRE,235,2,939,Correct,3,796
3,RXRLR,222,2,1136,Correct,3,758
3,RERXR,121,6,760,Incorrect,3,910
4,J,5,3,998,New Target,4,780
4,CYCVC,161,,,Incorrect,4,813
4,RXRCR,162,2,781,Correct,4,716
4,FPFVF,163,2,930,Correct,4,935
4,LZLZL,151,2,1051,Incorrect,4,731
4,PLPLP,152,1,904,Correct,4,845
4,NPNPN,153,1,675,Correct,4,682
4,XZXZX,161,1,693,Incorrect,4,722
4,CNCKC,162,2,888,Correct,4,724
4,PCPYJ,235,2,747,Correct,4,866
4,VYVYV,113,1,950,Correct,4,828
4,RLRLR,152,1,633,Correct,4,797
4,CJCJC,7,20,758,Incorrect,4,877
4,ZLZLZ,13,1,849,Correct,4,864
4,FZFZF,152,1,679,Correct,4,828
4,CFCFC,153,1,1130,Correct,4,657
4,PZPZP,154,1,629,Correct,4,801
4,XEXEX,191,1,1344,Correct,4,898
4,NVNFN,16,2,785,Correct,4,907
4,KYKYK,151,1,638,Correct,4,771
4,ZNZVZ,161,2,896,Correct,4,749
4,YVJXY,233,20,787,Incorrect,4,854
4,XFXFX,113,2,747,Incorrect,4,838
4,XNXNX,152,1,756,Correct,4,842
4,FJFKF,81,20,799,Incorrect,4,876
4,CZCYC,14,2,1270,Correct,4,861
4,ZXZCZ,162,1,1330,Incorrect,4,706
4,RYRYJ,225,20,1592,Incorrect,4,744
4,FPFZF,222,2,733,Correct,4,922
4,XRXRX,151,20,969,Incorrect,4,748
4,YPYEY,182,2,1260,Correct,4,826
4,XRXRX,15,1,948,Correct,4,791
4,XZXPX,161,2,887,Correct,4,834
4,CJCJC,9,20,670,Incorrect,4,721
4,ZXZVZ,14,2,691,Correct,4,655
4,VKVKV,151,1,877,Correct,4,932
4,VEVNV,173,2,1072,Correct,4,896
4,ZKZVZ,16,2,917,Correct,4,682
4,XVXJX,102,20,941,Incorrect,4,761
4,RXRVR,14,2,773,Correct,4,691
4,LRLRL,151,2,1022,Incorrect,4,781
4,YNJNY,223,20,1296,Incorrect,4,826
4,NPNJN,222,2,1324,Correct,4,660
4,ZEZEZ,194,2,1454,Incorrect,4,835
4,ZNZNZ,15,1,896,Correct,4,752
4,YZYZY,152,1,732,Correct,4,710
4,XYXYX,153,1,1317,Correct,4,860
4,ZXZXZ,221,1,618,Correct,4,786
4,LYLZL,222,2,1101,Correct,4,709
4,CYCNC,162,2,763,Correct,4,775
4,XEXEX,195,1,1243,Correct,4,652
4,CVCXC,16,2,898,Correct,4,784
4,ZPZXZ,162,2,872,Correct,4,835
4,FZFZF,151,1,852,Correct,4,711
4,RXRJR,112,20,684,Incorrect,4,775
4,PRPFP,14,2,1477,Correct,4,910
4,PKPEP,186,2,763,Correct,4,660
4,XZXPX,16,2,883,Correct,4,899
4,JCZVZ,231,2,951,Correct,4,819
4,RXRLR,222,2,1017,Correct,4,829
4,VZVZV,151,1,856,Correct,4,870
4,XJXJX,12,20,819,Incorrect,4,660
5,I,5,3,3179,New Target,5,779
5,PCPCP,151,1,1484,Correct,5,760
5,XYXYX,152,1,732,Correct,5,810
5,VXVXV,153,1,474,Correct,5,703
5,XVXVX,154,1,798,Correct,5,824
5,ZRZXZ,161,2,839,Correct,5,842
5,FPFZF,162,2,1247,Correct,5,845
5,ZYZYZ,151,1,775,Correct,5,845
5,RVRZR,161,2,740,Correct,5,677
5,CICIC,7,11,705,Incorrect,5,740
5,XLXLX,13,1,1092,Correct,5,688
5,YVYVY,152,1,629,Correct,5,734
5,CJCJC,191,11,579,Incorrect,5,830
5,FNFCF,16,2,686,Correct,5,935
5,PVPRP,162,2,719,Correct,5,680
5,FZFZF,151,2,651,Incorrect,5,809
5,NVIVN,223,1,1108,Correct,5,933
5,CVCIC,82,11,1204,Incorrect,5,737
5,ZXZXZ,13,1,974,Correct,5,787
5,FCFZF,161,2,789,Correct,5,659
5,IXRXR,221,1,818,Correct,5,746
5,ZPZNZ,222,2,729,Correct,5,853
5,VZVZV,151,1,704,Correct,5,903
5,YRYNY,161,2,686,Correct,5,809
5,VNVPV,162,2,665,Correct,5,882
5,RVRJR,182,11,921,Incorrect,5,740
5,VRVRV,15,1,1217,Correct,5,720
5,VIVIV,9,11,759,Incorrect,5,880
5,CXCVC,14,2,1104,Correct,5,816
5,PZPZP,151,1,686,Correct,5,769
5,IXVKV,231,2,685,Correct,5,824
5,YJYCY,173,11,750,Incorrect,5,697
5,VYVYV,15,1,782,Correct,5,712
5,YVYVY,152,1,716,Correct,5,726
5,NVNVN,153,1,1270,Correct,5,861
5,XYXVX,161,2,892,Correct,5,808
5,NJNCN,174,11,799,Incorrect,5,908
5,NXNYN,16,2,1065,Correct,5,800
5,VXVCV,162,1,1068,Incorrect,5,745
5,ZKZKZ,151,1,993,Correct,5,682
5,XRXYX,161,2,1055,Correct,5,880
5,ZCZXZ,162,2,730,Correct,5,897
5,KVKYI,235,2,1448,Correct,5,780
5,CNCNC,113,1,920,Correct,5,821
5,RIRIR,10,11,814,Incorrect,5,798
5,VYVXV,14,2,661,Correct,5,831
5,FXIRF,233,11,895,Incorrect,5,851
5,PFPFP,113,1,1162,Correct,5,708
5,VPVPV,152,1,627,Correct,5,861
5,ZJZJZ,195,11,742,Incorrect,5,753
5,ZVZNZ,16,2,709,Correct,5,688
5,YVYXY,162,2,689,Correct,5,848
5,PRPRP,151,2,786,Incorrect,5,703
5,YPYPY,152,1,649,Correct,5,861
5,ZIZPZ,111,11,742,Incorrect,5,875
5,NKNXN,14,2,947,Correct,5,758
5,RZRXR,162,2,739,Correct,5,919
5,RXRXR,151,1,701,Correct,5,889
5,ZJZJZ,196,11,603,Incorrect,5,715
5,CVCVI,225,1,1164,Incorrect,5,842
5,NKNKN,113,1,1062,Correct,5,785
5,NRNZN,161,2,770,Correct,5,854
5,CNCNC,151,1,800,Correct,5,737
5,RFRIR,122,11,956,Incorrect,5,781
6,B,5,3,3096,New Target,6,729
6,YKYZY,161,2,1110,Correct,6,804
6,VCVRV,162,2,749,Correct,6,942
6,XVXVX,151,1,755,Correct,6,949
6,KZKRK,161,2,1195,Correct,6,874
6,ZVZXZ,162,2,905,Correct,6,751
6,RCRNR,163,2,1085,Correct,6,798
6,CXCRC,164,2,1217,Correct,6,697
6,VNBCV,233,2,745,Correct,6,895
6,CXCVC,222,2,848,Correct,6,921
6,RFRFR,151,,,Incorrect,6,746
6,XPXRX,161,2,1175,Correct,6,808
6,RYRBR,72,,,Incorrect,6,719
6,ZKZKZ,13,1,755,Correct,6,665
6,FIFRF,171,2,993,Correct,6,689
6,VZVLV,16,2,1077,Correct,6,714
6,RPRVR,162,2,773,Correct,6,780
6,YBYBY,8,25,661,Incorrect,6,674
6,PYPVP,14,,,Incorrect,6,846
6,NININ,192,2,1275,Incorrect,6,896
6,RNRNR,15,1,914,Correct,6,768
6,NXNVN,161,2,776,Correct,6,785
6,RNRNR,151,1,727,Correct,6,653
6,FRFVF,161,2,626,Correct,6,820
6,YVYFB,235,2,724,Incorrect,6,737
6,ZRZXZ,222,2,686,Correct,6,867
6,VNVIV,193,2,1060,Incorrect,6,915
6,PXPNP,16,2,1111,Correct,6,764
6,ZXZPZ,162,2,830,Correct,6,943
6,VBVBV,9,25,663,Incorrect,6,820
6,CXCXC,13,2,1302,Incorrect,6,784
6,PCPFP,161,2,1151,Correct,6,725
6,KNKNK,151,1,810,Correct,6,877
6,XIXIX,194,2,1286,Incorrect,6,693
6,CYCYC,15,1,1147,Correct,6,828
6,FVFYF,161,2,1019,Correct,6,704
6,YNYRY,162,2,918,Correct,6,888
6,BVPXP,231,2,779,Correct,6,748
6,NXNXN,113,1,887,Correct,6,732
6,FRFRF,152,1,705,Correct,6,725
6,YVYVY,153,1,755,Correct,6,682
6,ZKZCZ,161,2,704,Correct,6,789
6,VIVXV,175,2,963,Correct,6,692
6,PRBRP,223,,,Incorrect,6,854
6,YZYBY,102,2,626,Incorrect,6,696
6,CXCVC,14,2,962,Correct,6,795
6,FYFYF,151,1,833,Correct,6,920
6,VKVXV,161,2,749,Correct,6,679
6,ZBZBZ,11,1,733,Incorrect,6,654
6,FPFNF,14,2,747,Correct,6,755
6,CXCXC,151,1,681,Correct,6,759
6,YCYCY,152,1,773,Correct,6,890
6,FPFPF,153,1,692,Correct,6,734
6,CVCVB,225,1,551,Correct,6,665
6,ZCZCZ,113,1,473,Correct,6,807
6,CZCNC,161,1,835,Incorrect,6,674
6,KIKFK,176,2,590,Correct,6,760
6,PXPXP,15,1,751,Correct,6,806
6,RYRYR,152,1,542,Correct,6,695
6,ZRZCZ,161,2,1029,Correct,6,751
6,RVRVR,151,1,786,Correct,6,941
6,XYXNX,161,2,670,Correct,6,742
6,BVKVK,221,1,770,Correct,6,656
6,CBCBC,12,25,728,Incorrect,6,870
7,W,5,3,2420,New Target,7,760
7,RKRKR,151,1,1538,Correct,7,703
7,CVCRC,161,2,1256,Correct,7,927
7,PKPKP,151,1,954,Correct,7,922
7,FPFPF,152,1,644,Correct,7,682
7,VRVPV,161,1,491,Incorrect,7,660
7,ZKZYZ,162,2,950,Correct,7,656
7,PVPCP,233,2,843,Correct,7,718
7,KVKVK,113,1,655,Correct,7,896
7,YXYVY,161,2,1455,Correct,7,812
7,FNFNF,151,1,667,Correct,7,885
7,YWYWY,7,5,652,Incorrect,7,715
7,ZYZYZ,13,1,656,Correct,7,692
7,PYPYP,152,1,542,Correct,7,804
7,XRXRX,153,2,736,Incorrect,7,878
7,PXPXP,154,1,809,Correct,7,911
7,FCFBF,181,2,695,Correct,7,697
7,FVFVF,15,1,705,Correct,7,907
7,CYCZC,161,2,748,Correct,7,907
7,XZXVX,162,2,1180,Correct,7,656
7,PFPFP,151,1,1049,Correct,7,709
7,RVRLR,161,2,678,Correct,7,910
7,ZBZBZ,192,1,1045,Correct,7,791
7,VCVNV,16,2,1020,Correct,7,662
7,NWNWN,8,5,756,Incorrect,7,946
7,XNXVX,14,2,960,Correct,7,742
7,CXCNC,162,2,817,Correct,7,838
7,YVYVW,225,2,1034,Incorrect,7,786
7,VFVFV,113,1,759,Correct,7,822
7,VFWFV,223,1,928,Correct,7,872
7,CVCFC,222,2,856,Correct,7,720
7,YBYBY,193,1,816,Correct,7,743
7,PYPYP,15,1,663,Correct,7,870
7,NKNWN,91,5,661,Incorrect,7,845
7,VNVNV,13,1,683,Correct,7,664
7,RVRVR,152,1,613,Correct,7,866
7,FVFBF,184,2,691,Incorrect,7,920
7,VZVKV,16,2,703,Correct,7,831
7,VPVCV,162,2,812,Correct,7,770
7,WYZCZ,231,5,485,Incorrect,7,800
7,PFPFP,113,1,939,Correct,7,796
7,PRPRP,152,1,914,Correct,7,744
7,NWNWN,10,5,635,Incorrect,7,719
7,VKVCV,14,2,529,Correct,7,655
7,WPYPY,221,5,657,Incorrect,7,933
7,VBVBV,195,1,655,Correct,7,840
7,ZKZYZ,16,2,890,Correct,7,949
7,XYXYX,151,2,1060,Incorrect,7,694
7,FZFXF,161,2,887,Correct,7,752
7,XKXKX,151,2,620,Incorrect,7,876
7,XPXPX,152,1,776,Correct,7,931
7,FWFWF,11,5,528,Incorrect,7,881
7,FNFBF,186,2,660,Correct,7,778
7,ZVZYZ,16,2,881,Correct,7,877
7,FZFZF,151,1,655,Correct,7,669
7,NPNFW,235,2,1307,Correct,7,819
7,PCPCP,113,1,826,Correct,7,923
7,NKNWN,122,5,653,Incorrect,7,903
8,M,5,3,3486,New Target,8,679
8,VYVNV,161,2,1226,Correct,8,850
8,KLKNK,162,2,934,Correct,8,754
8,NRNRN,151,1,1098,Correct,8,766
8,VNVFV,161,2,915,Correct,8,896
8,XNXNM,225,27,1359,Incorrect,8,675
8,CXCVC,222,2,788,Correct,8,776
8,KRKZK,162,2,1161,Correct,8,916
8,NMNFN,71,27,641,Incorrect,8,926
8,ZFZFZ,13,1,1222,Correct,8,694
8,YPYCY,161,2,786,Correct,8,698
8,KCKCK,151,1,746,Correct,8,835
8,VNVNV,152,27,793,Incorrect,8,701
8,LXLXL,153,1,977,Correct,8,894
8,CLCLC,154,1,671,Correct,8,933
8,NYNYN,155,1,1035,Correct,8,798
8,LCMYL,233,2,902,Correct,8,931
8,NCNCN,113,1,830,Correct,8,710
8,ZVZRZ,161,2,930,Correct,8,923
8,ZVZVZ,151,1,729,Correct,8,673
8,PZPVP,161,1,539,Incorrect,8,704
8,PWPNP,171,27,747,Incorrect,8,915
8,KLKCM,235,2,794,Correct,8,719
8,XMXMX,8,27,688,Incorrect,8,943
8,PRPXP,14,2,699,Correct,8,836
8,CVCYC,162,2,1225,Correct,8,789
8,PXPMP,92,27,768,Incorrect,8,907
8,ZCZLZ,14,2,757,Correct,8,909
8,XWXWX,192,1,728,Correct,8,657
8,ZCZLZ,16,2,627,Correct,8,743
8,MNCYC,231,2,1012,Correct,8,785
8,ZXZXZ,113,1,714,Correct,8,699
8,YRYNY,161,2,791,Correct,8,822
8,ZLZPZ,162,2,722,Correct,8,733
8,VZVZV,151,1,653,Correct,8,881
8,MXPXP,221,1,1116,Correct,8,755
8,VWVWV,193,1,782,Correct,8,653
8,PYPYP,16,1,564,Incorrect,8,935
8,XPXVX,162,1,1162,Incorrect,8,652
8,XLXLX,151,2,723,Incorrect,8,841
8,YMYMY,10,27,738,Incorrect,8,711
8,VYVYV,13,1,751,Correct,8,766
8,PWPZP,174,27,827,Incorrect,8,800
8,PYPKP,16,2,757,Correct,8,768
8,NPNXN,162,2,794,Correct,8,918
8,KVKVK,223,1,979,Correct,8,806
8,NVNFN,222,2,676,Correct,8,789
8,XNXNX,151,1,753,Correct,8,827
8,YZYMY,112,27,719,Incorrect,8,726
8,PFPFP,13,1,651,Correct,8,793
8,ZWZWZ,195,27,908,Incorrect,8,755
8,PCPZP,16,2,1061,Correct,8,703
8,LRLPL,162,2,892,Correct,8,690
8,CZCZC,151,1,624,Correct,8,810
8,NZNZN,152,1,594,Correct,8,770
8,CVCXC,161,2,693,Correct,8,704
8,XCXCX,151,1,857,Correct,8,695
8,YWYWY,196,1,1167,Correct,8,874
8,NLNLN,15,1,896,Correct,8,699
8,VNVNV,152,1,627,Correct,8,866
8,ZMZMZ,12,27,750,Incorrect,8,934
9,S,5,3,2955,New Target,9,762
9,NZNZN,151,1,794,Correct,9,917
9,KVKZK,161,2,792,Correct,9,680
9,LZLZL,151,1,776,Correct,9,684
9,XLXLX,152,1,695,Correct,9,683
9,ZXZXZ,153,1,685,Correct,9,943
9,KNKZK,161,15,832,Incorrect,9,728
9,NRNYN,162,2,825,Correct,9,765
9,CLCVC,163,2,832,Correct,9,837
9,ZCZFZ,164,2,666,Correct,9,773
9,NSNSN,7,15,536,Incorrect,9,772
9,VZVZV,13,1,610,Correct,9,661
9,NVNCN,161,2,679,Correct,9,655
9,VMVMV,191,15,1360,Incorrect,9,937
9,CVCXC,16,2,1172,Correct,9,772
9,ZYZRZ,162,2,724,Correct,9,672
9,XNXZX,163,2,772,Correct,9,658
9,PXPXP,151,2,715,Incorrect,9,878
9,VCVSV,82,2,1332,Incorrect,9,872
9,PRPCP,14,2,585,Correct,9,777
9,ZMZMZ,192,2,1103,Correct,9,651
9,ZFZFZ,15,1,641,Correct,9,719
9,FCFCF,152,1,891,Correct,9,942
9,YLYZY,161,2,798,Correct,9,880
9,KNKVK,162,2,904,Correct,9,790
9,SFPCP,231,2,765,Correct,9,765
9,RPRPR,113,1,838,Correct,9,799
9,XMXMX,193,2,733,Incorrect,9,810
9,KFKFK,15,1,1269,Correct,9,934
9,VSVSV,9,15,787,Incorrect,9,695
9,YVSVY,223,1,1022,Correct,9,794
9,VPVPV,113,1,545,Correct,9,722
9,XZXZX,152,1,693,Correct,9,827
9,KZKXK,161,2,840,Correct,9,718
9,RFRPR,162,1,1066,Incorrect,9,898
9,NVNVS,225,1,894,Correct,9,676
9,ZXZXZ,113,1,515,Correct,9,843
9,SRVRV,221,2,842,Incorrect,9,737
9,YCYCY,113,1,622,Correct,9,855
9,KMKZK,174,1,926,Incorrect,9,781
9,FZSVF,233,2,757,Correct,9,776
9,VYVYV,113,1,707,Correct,9,753
9,LVLVL,152,1,732,Correct,9,854
9,YFYFY,153,1,568,Correct,9,827
9,NXNSN,102,15,815,Incorrect,9,708
9,FNFCF,14,2,996,Correct,9,854
9,KVKVK,151,1,693,Correct,9,846
9,VZVCV,161,2,927,Correct,9,898
9,ZYZMZ,185,2,786,Correct,9,768
9,VXVZV,16,1,1136,Incorrect,9,691
9,VPVPV,151,1,696,Correct,9,918
9,RVRNS,235,2,1122,Correct,9,914
9,YZYZY,113,1,697,Correct,9,926
9,ZSZSZ,11,15,692,Incorrect,9,848
9,FRFRF,13,1,736,Correct,9,866
9,ZMZMZ,196,1,844,Correct,9,804
9,NZNXN,16,2,655,Correct,9,892
9,LSLFL,121,15,872,Incorrect,9,939
10,Q,5,3,2384,New Target,10,852
10,ZVZPZ,161,2,756,Correct,10,873
10,RZRZR,151,1,653,Correct,10,899
10,ZFZFZ,152,1,792,Correct,10,888
10,RZRZR,153,1,487,Correct,10,675
10,PZPXP,161,2,673,Correct,10,707
10,VFQPV,233,2,1131,Correct,10,841
10,ZPZRZ,222,1,951,Incorrect,10,832
10,CYCVC,162,1,938,Incorrect,10,802
10,CPCPC,151,1,1167,Correct,10,770
10,YZYQY,72,2,773,Incorrect,10,938
10,FVFXF,14,2,1072,Correct,10,752
10,YNYNQ,225,4,763,Incorrect,10,858
10,ZYZYZ,113,1,1046,Correct,10,760
10,FRFSF,181,2,1034,Incorrect,10,662
10,XNXPX,16,2,800,Correct,10,680
10,NXNXN,151,1,763,Correct,10,788
10,PVPZP,161,2,752,Correct,10,949
10,XVXPX,162,2,808,Correct,10,907
10,FXFVF,163,2,835,Correct,10,734
10,NSNKN,172,2,971,Incorrect,10,791
10,VXVNV,16,2,668,Correct,10,885
10,XZXZX,151,1,777,Correct,10,807
10,VQVQV,8,4,671,Incorrect,10,892
10,ZYZPZ,14,2,797,Correct,10,841
10,PZPSP,183,2,828,Correct,10,674
10,YVYVY,15,1,659,Correct,10,893
10,NCNQN,92,4,721,Incorrect,10,772
10,FCFVF,14,2,653,Correct,10,798
10,ZFZFZ,151,2,760,Incorrect,10,888
10,NSNSN,194,4,790,Incorrect,10,682
10,YPYFY,16,2,685,Correct,10,928
10,ZKZKZ,151,1,1230,Correct,10,719
10,QZRCR,231,2,987,Correct,10,704
10,YPYVY,222,2,743,Correct,10,902
10,ZNZNZ,151,2,1027,Incorrect,10,862
10,VQVQV,10,4,600,Incorrect,10,667
10,RVRZR,14,2,664,Correct,10,821
10,KRKSK,185,2,947,Correct,10,819
10,NPNPN,15,1,742,Correct,10,775
10,YPYPY,152,2,933,Incorrect,10,681
10,VCVYV,161,2,742,Correct,10,852
10,FPFNF,162,2,624,Correct,10,813
10,QVXVX,221,1,684,Correct,10,872
10,ZVZRZ,222,2,1165,Correct,10,719
10,LFLFL,151,1,646,Correct,10,798
10,VLVLV,152,1,690,Correct,10,921
10,KXQXK,223,4,526,Incorrect,10,840
10,YQYQY,11,4,552,Incorrect,10,688
10,YCYCY,13,2,637,Incorrect,10,772
10,PZPYP,161,2,989,Correct,10,784
10,LPLFL,162,2,752,Correct,10,749
10,VSVSV,196,1,681,Correct,10,827
10,VFVYQ,235,4,1048,Incorrect,10,741
10,CZCXC,222,1,962,Incorrect,10,900
10,PVPCP,162,2,834,Correct,10,922
10,CXCXC,151,1,839,Correct,10,857
10,NZNZN,152,2,809,Incorrect,10,942
10,YPYCY,161,2,807,Correct,10,764
10,ZQZQZ,12,4,685,Incorrect,10,848
11,T,5,3,1604,New Target,11,872
11,KFKFK,151,2,1266,Incorrect,11,934
11,LZLZL,152,1,846,Correct,11,684
11,PFPVP,161,2,842,Correct,11,665
11,FRFPF,162,1,943,Incorrect,11,915
11,FZFZF,151,1,624,Correct,11,906
11,VTVTV,7,8,724,Incorrect,11,723
11,KYKCK,14,2,718,Correct,11,895
11,VPVPV,151,2,583,Incorrect,11,858
11,XQXQX,191,1,637,Correct,11,665
11,PZPYP,16,2,844,Correct,11,760
11,KXKLK,162,2,790,Correct,11,750
11,TCNCN,221,1,699,Correct,11,948
11,PZPNP,222,2,758,Correct,11,905
11,RCRPR,162,2,928,Correct,11,748
11,PZPRT,235,2,824,Correct,11,729
11,XFXVX,222,2,658,Correct,11,808
11,LTLVL,81,8,930,Incorrect,11,745
11,ZCZPZ,14,2,665,Correct,11,715
11,NCNQN,182,2,981,Correct,11,877
11,XZXNX,16,1,1465,Incorrect,11,801
11,ZPZPZ,151,1,829,Correct,11,704
11,CFCFC,152,1,940,Correct,11,682
11,VXTRV,233,2,834,Correct,11,717
11,CFCVC,222,8,1431,Incorrect,11,890
11,PYPYP,151,1,853,Correct,11,849
11,FQFYF,173,2,1487,Correct,11,734
11,CNCFC,16,2,1023,Correct,11,743
11,PTPTP,9,8,835,Incorrect,11,719
11,ZCZCZ,13,1,1032,Correct,11,881
11,KZKZK,152,1,942,Correct,11,658
11,RLRVR,161,2,822,Correct,11,737
11,ZRZKZ,162,2,683,Correct,11,869
11,KLKLT,225,1,829,Correct,11,742
11,ZQZQZ,194,1,951,Correct,11,721
11,VZVZV,15,1,598,Correct,11,934
11,RVRZR,161,2,665,Correct,11,685
11,ZPZCZ,162,2,826,Correct,11,730
11,VYVYV,151,1,703,Correct,11,875
11,RVRVR,152,1,1005,Correct,11,814
11,PTPTP,10,8,649,Incorrect,11,941
11,PXPXP,13,1,604,Correct,11,695
11,KCKCK,152,1,509,Correct,11,860
11,YVYVY,153,1,530,Correct,11,808
11,CYCYC,154,1,880,Correct,11,924
11,XCXCX,155,1,472,Correct,11,779
11,CYCQC,185,1,929,Incorrect,11,745
11,KCKNK,16,2,755,Correct,11,837
11,VPVPV,151,1,659,Correct,11,720
11,TXFZF,231,2,740,Correct,11,792
11,NYNVN,222,2,846,Correct,11,812
11,VQVXV,176,2,1144,Correct,11,736
11,ZRZRZ,15,2,984,Incorrect,11,689
11,VTVZV,111,8,666,Incorrect,11,790
11,PXPVP,14,2,741,Correct,11,841
11,FVFVF,151,1,684,Correct,11,884
11,VRVLV,161,2,668,Correct,11,735
11,YCYCY,151,1,570,Correct,11,862
11,XZTZX,223,1,698,Correct,11,819
11,VTVTV,12,1,653,Incorrect,11,679
12,O,5,3,4766,New Target,12,693
12,VXVLV,161,2,1166,Correct,12,950
12,KVKCK,162,2,1194,Correct,12,803
12,VLVLV,151,1,896,Correct,12,929
12,ZCZVZ,161,2,802,Correct,12,850
12,KFKFK,151,1,717,Correct,12,760
12,XKXKX,152,1,704,Correct,12,674
12,YXYXY,153,1,561,Correct,12,669
12,FVFVF,154,1,597,Correct,12,801
12,PVPOP,72,12,725,Incorrect,12,822
12,ZXZYZ,14,2,758,Correct,12,676
12,PXPVP,162,2,804,Correct,12,682
12,ZTZTZ,191,1,813,Correct,12,809
12,CVCKC,16,2,988,Correct,12,653
12,CKCKC,151,1,1018,Correct,12,925
12,NPNPN,152,1,938,Correct,12,823
12,ZRZNZ,161,2,713,Correct,12,884
12,OZCZC,221,12,675,Incorrect,12,940
12,LFLFL,113,2,798,Incorrect,12,852
12,CXCXC,152,1,760,Correct,12,689
12,KPKPK,153,1,545,Correct,12,859
12,FRFKF,161,2,730,Correct,12,711
12,FOFOF,8,12,632,Incorrect,12,681
12,ZFZFZ,13,1,1058,Correct,12,920
12,LKLZO,235,2,646,Correct,12,747
12,KLKZK,222,2,808,Correct,12,674
12,YXYCY,162,2,765,Correct,12,931
12,LOLOL,9,12,614,Incorrect,12,863
12,XLXLX,13,1,750,Correct,12,663
12,XVXVX,152,1,826,Correct,12,806
12,FTFTF,192,12,654,Incorrect,12,876
12,OXNZN,231,2,668,Correct,12,840
12,CZCZC,113,2,925,Incorrect,12,739
12,LZLZL,152,1,751,Correct,12,839
12,VLVPV,161,2,878,Correct,12,702
12,VYVYO,225,2,624,Incorrect,12,901
12,XKXKX,113,1,970,Correct,12,916
12,RTRTR,193,12,739,Incorrect,12,689
12,KVKCK,16,2,719,Correct,12,835
12,ROROR,101,12,560,Incorrect,12,735
12,PRPRP,13,1,715,Correct,12,670
12,LYLVL,161,2,1274,Correct,12,737
12,PLPLP,151,1,686,Correct,12,862
12,CTCTC,194,1,864,Correct,12,760
12,XZXYX,16,2,1014,Correct,12,801
12,NKNKN,151,1,809,Correct,12,737
12,VLVZV,161,2,782,Correct,12,903
12,YOYOY,11,12,645,Incorrect,12,854
12,PZOZP,223,1,646,Correct,12,748
12,FYFYF,113,1,1112,Correct,12,730
12,ZXZVZ,161,2,738,Correct,12,941
12,VKVZV,162,2,848,Correct,12,740
12,ZTZTZ,195,12,650,Incorrect,12,731
12,LKLZL,16,2,851,Correct,12,905
12,KCKVK,162,2,736,Correct,12,692
12,PXPKP,163,2,750,Correct,12,774
12,KCOZK,233,2,876,Correct,12,759
12,FKFKF,113,1,804,Correct,12,806
12,CTCRC,176,12,1067,Incorrect,12,838
12,NXNXN,15,,,Incorrect,12,942
12,KXKVK,161,2,1069,Correct,12,839
12,CPCOC,122,2,937,Incorrect,12,815
13,H,5,3,1622,New Target,13,670
13,VFVNV,151,2,1049,Incorrect,13,763
13,YVYVY,152,1,679,Correct,13,828
13,XVXVX,153,1,841,Correct,13,689
13,NRNXN,161,2,741,Correct,13,669
13,PZPKP,162,2,623,Correct,13,875
13,HLVLV,221,19,814,Incorrect,13,784
13,CXCZC,222,2,940,Correct,13,699
13,LHLYL,71,19,604,Incorrect,13,838
13,YKYFY,14,2,592,Correct,13,714
13,YOYRY,171,2,594,Correct,13,747
13,ZKZYZ,16,2,883,Correct,13,795
13,RZRZR,151,1,765,Correct,13,688
13,NFNYN,161,2,907,Correct,13,755
13,KVKFK,162,2,899,Correct,13,761
13,XFXYX,163,2,626,Correct,13,915
13,LKLVL,164,2,626,Correct,13,814
13,NLNLN,151,1,836,Correct,13,715
13,XCXOX,182,2,827,Correct,13,790
13,FXFXF,15,1,562,Correct,13,869
13,VHVHV,8,19,726,Incorrect,13,817
13,PVPVP,13,2,1151,Incorrect,13,892
13,CRCXC,161,2,1038,Correct,13,692
13,NXNXN,151,1,689,Correct,13,752
13,XRXRX,152,1,1343,Correct,13,698
13,YFYXY,161,2,1391,Correct,13,944
13,ZOZOZ,193,2,1222,Incorrect,13,724
13,RZRZR,15,1,803,Correct,13,661
13,FKFKF,152,1,749,Correct,13,813
13,PFPFP,153,1,615,Correct,13,773
13,XYXHX,92,19,875,Incorrect,13,715
13,RZRKR,14,1,628,Incorrect,13,757
13,FLFLH,225,2,1033,Incorrect,13,662
13,KRKRK,113,1,731,Correct,13,725
13,ZVZNZ,161,2,1144,Correct,13,740
13,ZOZOZ,194,1,1046,Correct,13,711
13,FZFZF,15,1,580,Correct,13,855
13,FHFKF,101,19,613,Incorrect,13,833
13,ZXHLZ,233,1,981,Incorrect,13,846
13,FKFXF,222,2,648,Correct,13,789
13,CFCYC,162,2,853,Correct,13,872
13,ZXZVZ,163,2,680,Correct,13,940
13,KCKOK,185,2,752,Correct,13,924
13,ZXZVH,235,19,784,Incorrect,13,709
13,CKCKC,113,1,1000,Correct,13,868
13,ZXZCZ,161,2,1230,Correct,13,715
13,YVYVY,151,1,773,Correct,13,815
13,RVHVR,223,2,684,Incorrect,13,909
13,ZRZRZ,113,1,926,Correct,13,667
13,ZHZHZ,11,19,626,Incorrect,13,777
13,VZVZV,13,1,891,Correct,13,933
13,HZVRV,231,2,806,Correct,13,697
13,FVFVF,113,1,589,Correct,13,861
13,RNRCR,161,2,701,Correct,13,817
13,COCOC,196,1,805,Correct,13,941
13,VNVXV,16,2,626,Correct,13,708
13,XHXHX,12,19,673,Incorrect,13,873
14,G,5,3,1593,New Target,14,881
14,FZFZF,151,1,833,Correct,14,765
14,RPRVR,161,2,1101,Correct,14,689
14,XCXCX,151,1,646,Correct,14,947
14,YXYXY,152,1,609,Correct,14,910
14,KZKZK,153,1,562,Correct,14,736
14,RYRKR,161,2,738,Correct,14,917
14,FYFNF,162,2,747,Correct,14,865
14,VKVKV,151,1,705,Correct,14,916
14,KPGPK,223,1,446,Correct,14,784
14,YNYNY,113,1,692,Correct,14,871
14,VYVYV,152,1,453,Correct,14,670
14,YCYXY,161,2,589,Correct,14,729
14,LKLGL,72,2,748,Incorrect,14,883
14,VXVXV,13,1,607,Correct,14,657
14,KCKVK,161,2,745,Correct,14,946
14,YKYKY,151,2,759,Incorrect,14,830
14,RHRXR,171,18,1008,Incorrect,14,807
14,FVFCF,16,2,738,Correct,14,789
14,YXYGY,82,18,958,Incorrect,14,747
14,CLCLC,13,1,799,Correct,14,858
14,ZXZCZ,161,2,1022,Correct,14,688
14,VLVFV,162,2,563,Correct,14,660
14,CPCPG,225,18,1053,Incorrect,14,660
14,KHKNK,172,2,1408,Correct,14,722
14,ZKZVZ,16,2,1102,Correct,14,922
14,YKYLY,162,2,796,Correct,14,839
14,CNCNC,151,1,1146,Correct,14,673
14,PGPGP,9,1,547,Incorrect,14,859
14,VPVPV,13,1,738,Correct,14,941
14,FXGRF,233,18,657,Incorrect,14,726
14,CYCVC,222,1,956,Incorrect,14,865
14,FNFNF,151,1,606,Correct,14,896
14,KFKCK,161,2,1210,Correct,14,913
14,ZFZHZ,183,1,1038,Incorrect,14,949
14,NXNXN,15,1,659,Correct,14,701
14,FNFNF,152,1,904,Correct,14,668
14,LXLNG,235,2,1505,Correct,14,702
14,XKXVX,222,2,1007,Correct,14,860
14,ZHZHZ,194,2,1205,Incorrect,14,718
14,PFPFP,15,1,644,Correct,14,683
14,ZYZYZ,152,1,580,Correct,14,805
14,XPXVX,161,2,746,Correct,14,714
14,YCYCY,151,1,612,Correct,14,890
14,RGRGR,10,18,783,Incorrect,14,905
14,VRVRV,13,1,1082,Correct,14,797
14,PKPNP,161,1,616,Incorrect,14,774
14,XGXGX,11,18,657,Incorrect,14,935
14,GZYVY,231,2,723,Correct,14,679
14,VCVNV,222,2,670,Correct,14,806
14,VHVHV,195,1,895,Correct,14,712
14,LXLNL,16,2,821,Correct,14,825
14,GKPKP,221,1,656,Correct,14,764
14,XRXPX,222,2,718,Correct,14,834
14,XNXNX,151,1,813,Correct,14,727
14,KHKNK,176,2,1238,Incorrect,14,875
14,RZRZR,15,1,636,Correct,14,791
14,CGCFC,121,18,751,Incorrect,14,691
15,A,5,3,1450,New Target,15,661
15,XRXFX,161,2,940,Correct,15,707
15,RXRKR,162,2,770,Correct,15,769
15,YRYRY,151,1,713,Correct,15,852
15,XPXPX,152,1,634,Correct,15,706
15,RPRPR,153,1,921,Correct,15,785
15,NCNCN,154,1,553,Correct,15,899
15,RXRZR,161,2,616,Correct,15,869
15,NANAN,7,14,814,Incorrect,15,683
15,KCKYK,14,2,832,Correct,15,945
15,XKXFX,162,2,762,Correct,15,718
15,ZLZKZ,163,2,705,Correct,15,906
15,VCVZV,164,2,697,Correct,15,907
15,XCXVX,165,2,586,Correct,15,713
15,LKLZA,235,2,664,Correct,15,891
15,NCNCN,113,1,597,Correct,15,897
15,YGYGY,191,1,1080,Correct,15,739
15,VLVLV,15,1,595,Correct,15,874
15,XRXRX,152,1,831,Correct,15,909
15,KAKPK,81,14,821,Incorrect,15,847
15,YZAZY,233,1,666,Incorrect,15,905
15,CFCFC,113,1,534,Correct,15,891
15,VNVLV,161,2,855,Correct,15,930
15,KPKVK,162,2,988,Correct,15,857
15,NCNRN,163,2,690,Correct,15,758
15,FGFGF,192,14,931,Incorrect,15,742
15,RCRYR,16,2,763,Correct,15,687
15,KRKCK,162,2,665,Correct,15,719
15,CRCRC,151,1,1092,Correct,15,923
15,XPAPX,223,14,638,Incorrect,15,882
15,LPLXL,222,2,846,Correct,15,748
15,CGCVC,173,2,884,Correct,15,871
15,FKFZF,16,2,858,Correct,15,823
15,CACAC,9,14,704,Incorrect,15,874
15,XCXCX,13,1,913,Correct,15,681
15,AXRXR,221,1,521,Correct,15,728
15,NKNRN,222,2,704,Correct,15,685
15,KNKFK,162,2,666,Correct,15,930
15,KAKAK,10,14,628,Incorrect,15,919
15,ZCZRZ,14,2,714,Correct,15,668
15,RPRPR,151,1,902,Correct,15,832
15,NCNCN,152,1,589,Correct,15,702
15,RYRGR,184,2,606,Correct,15,850
15,VPVPV,15,1,545,Correct,15,719
15,RCRCA,225,1,503,Correct,15,693
15,KXKPK,222,2,620,Correct,15,822
15,NPNPN,151,1,504,Correct,15,882
15,YCYCY,152,1,430,Correct,15,754
15,PXPAP,112,14,868,Incorrect,15,791
15,ZCZNZ,14,2,622,Correct,15,743
15,KYKGK,185,2,682,Correct,15,926
15,ANLPL,231,2,632,Correct,15,791
15,CXCPC,222,2,820,Correct,15,876
15,YRYRY,151,1,721,Correct,15,703
15,LGLGL,196,1,932,Correct,15,655
15,VYVLV,16,2,649,Correct,15,763
15,KVKVK,151,1,606,Correct,15,678
15,RKRKR,152,1,601,Correct,15,950
15,VXVXV,153,1,550,Correct,15,823
15,XAXAX,12,14,695,Incorrect,15,839
