Trial No,Stimulus,Trigger,Response,Response Time(ms),Correct,Block,Fixation Duration
Practice
OT Practice
1,SKSKS,15,,,False,0,682
1,DLDUD,16,2,1483,Correct,0,851
1,PDPGP,16,2,1129,Correct,0,716
1,MWMWM,15,1,1054,Correct,0,872
1,FTFTF,15,1,984,Correct,0,875
1,AXAMA,16,2,786,Correct,0,888
1,RYRGR,16,1,732,False,0,746
1,DODOD,15,1,993,Correct,0,910
1,QTQAQ,16,2,1076,Correct,0,724
1,YEYEY,15,1,735,Correct,0,746
2,GYGDG,16,2,1014,Correct,0,795
2,SWSWS,15,1,646,Correct,0,727
2,HLHUH,16,,,False,0,664
2,DEDED,15,1,657,Correct,0,792
2,ZPZOZ,16,2,750,Correct,0,727
2,ATATA,15,1,664,Correct,0,717
2,QOQOQ,15,1,689,Correct,0,803
2,FPFGF,16,2,496,Correct,0,653
2,TRTET,16,2,784,Correct,0,792
2,DQDQD,15,2,835,False,0,885
4,PLPLP,15,1,921,Correct,0,856
4,ATAIA,16,2,1049,Correct,0,799
4,SKSGS,16,2,671,Correct,0,915
4,ZYZYZ,15,1,744,Correct,0,803
4,QSQSQ,15,1,619,Correct,0,924
4,TZTDT,16,2,585,Correct,0,777
4,JYJGJ,16,2,963,Correct,0,924
4,DYDYD,15,1,719,Correct,0,886
4,LTLCL,16,2,553,Correct,0,775
4,FQFEF,16,2,920,Correct,0,801
DT Practice
1,TKTKT,15,1,1109,Correct,0,775
1,SLSUS,16,2,1166,Correct,0,831
1,VZVGV,7,,,False,0,882
1,XWXZX,7,[2],[1405],False,0,911
1,ATATA,15,1,1107,Correct,0,686
1,HXZMH,16,2,1371,Correct,0,905
1,TZTZT,7,[1][3],[1167][1391],Correct,0,836
1,UOUOU,15,2,1190,False,0,681
1,ZTWAW,16,2,1549,Correct,0,860
1,RZRER,7,,,False,0,866
2,JYJDJ,16,2,1271,Correct,0,770
2,DWDWD,15,1,993,Correct,0,675
2,GNGNG,7,[1][3],[1121][1409],Correct,0,713
2,NEZEZ,16,1,814,Correct,0,741
2,RNROR,7,[2][3],[1338][1594],Correct,0,673
2,QTQNQ,7,[2][3],[1004][1212],Correct,0,826
2,HOHON,15,1,883,Correct,0,917
2,KPKGK,16,2,1078,Correct,0,735
2,DRDED,16,2,1085,Correct,0,905
2,LNLNL,7,[1][3],[1139][1315],Correct,0,872
4,GLGLG,15,,,False,0,704
4,DTDID,16,,,False,0,680
4,SMSGS,16,2,824,Correct,0,932
4,ZFZYZ,7,[2],[1467],False,0,949
4,TSTFT,7,,,False,0,797
4,OFOFO,7,[1],[1372],False,0,722
4,WYFGW,16,,,False,0,888
4,WYWYW,15,1,1360,Correct,0,823
4,MFMCM,7,[2][3],[1285][1525],Correct,0,711
4,HQHEH,16,2,1412,Correct,0,929
1,TKTKT,15,,,False,0,713
1,SLSUS,16,2,1128,Correct,0,762
1,VZVGV,7,[2],[1402],False,0,875
1,XWXZX,7,[2][3],[1292][1452],Correct,0,905
1,ATATA,15,1,854,Correct,0,684
1,HXZMH,16,2,1375,Correct,0,680
1,TZTZT,7,[1][3],[1080][1208],Correct,0,724
1,UOUOU,15,1,1135,Correct,0,916
1,ZTWAW,16,2,1065,Correct,0,806
1,RZRER,7,,,False,0,910
2,JYJDJ,16,2,1116,Correct,0,734
2,DWDWD,15,1,968,Correct,0,756
2,GNGNG,7,[2][1],[1124][1460],False,0,913
2,NEZEZ,16,,,False,0,722
2,RNROR,7,,,False,0,842
2,QTQNQ,7,[2][3],[921][1177],Correct,0,914
2,HOHON,15,1,1075,Correct,0,681
2,KPKGK,16,2,1116,Correct,0,818
2,DRDED,16,2,932,Correct,0,830
2,LNLNL,7,[1][3],[954][1450],Correct,0,676
4,GLGLG,15,1,1307,Correct,0,899
4,DTDID,16,2,1050,Correct,0,927
4,SMSGS,16,2,1096,Correct,0,839
4,ZFZYZ,7,[2],[1591],False,0,789
4,TSTFT,7,[2],[1526],False,0,931
4,OFOFO,7,[1][3],[806][1270],Correct,0,817
4,WYFGW,16,2,1181,Correct,0,756
4,WYWYW,15,1,824,Correct,0,700
4,MFMCM,7,[2][3],[1279][1471],Correct,0,931
4,HQHEH,16,2,1395,Correct,0,669
Trials
1,D,5,3,1648,New Target,1,768
1,ZNZYZ,161,2,1075,Correct,1,702
1,FZFZF,151,,,Incorrect,1,878
1,RKRKR,152,1,1439,Correct,1,663
1,RXRNR,161,2,914,Correct,1,764
1,CNCFC,162,2,961,Correct,1,924
1,PDPDP,7,[1][3],[919][1143],Correct,1,673
1,CPCFC,14,2,1152,Correct,1,746
1,VLVNV,162,2,695,Correct,1,938
1,KFKFK,151,,,Incorrect,1,686
1,ZNZNZ,152,1,775,Correct,1,664
1,KCKPD,235,2,799,Correct,1,855
1,ZKZFZ,222,2,599,Correct,1,861
1,NRNZN,162,2,667,Correct,1,711
1,KXKRK,163,2,560,Correct,1,651
1,YPYZY,164,2,496,Correct,1,899
1,FKDKF,223,2,615,Incorrect,1,715
1,RPRPR,113,1,1541,Correct,1,897
1,VRVKV,161,2,943,Correct,1,896
1,RFRPR,162,,,Incorrect,1,785
1,KVKVK,151,2,1319,Incorrect,1,910
1,YKYVY,161,,,Incorrect,1,713
1,VDVDV,8,[1][3],[1304][1384],Correct,1,895
1,DVZVZ,221,1,1383,Correct,1,757
1,YFYFY,113,1,846,Correct,1,720
1,ZYZYZ,152,1,708,Correct,1,811
1,VLVXV,161,2,583,Correct,1,713
1,DPXZX,231,2,948,Correct,1,893
1,RYRYR,113,1,1050,Correct,1,790
1,PDPNP,91,[2][3],[1276][1547],Correct,1,700
1,KXKXK,13,1,1591,Correct,1,720
1,ZYZYZ,152,1,784,Correct,1,928
1,VKVKV,153,1,671,Correct,1,696
1,YZYZY,154,1,762,Correct,1,848
1,NLNZN,161,2,769,Correct,1,876
1,ZNDYZ,233,2,1007,Correct,1,672
1,PCPXP,222,,,Incorrect,1,790
1,ZVZFZ,162,2,736,Correct,1,762
1,RCRZR,163,2,618,Correct,1,836
1,LRLRL,151,1,697,Correct,1,876
1,ZDZDZ,10,[1][3],[1195][1339],Correct,1,662
1,RNRZR,14,2,744,Correct,1,858
1,CXCYC,162,2,1459,Correct,1,774
1,RCRLR,163,2,600,Correct,1,745
1,FRFRF,151,1,757,Correct,1,950
1,XFXFX,152,,,Incorrect,1,694
1,RPRLR,161,2,860,Correct,1,925
1,YXYRY,162,,,Incorrect,1,914
1,FYFYF,151,1,1263,Correct,1,652
1,YZYVY,161,2,1132,Correct,1,651
1,YKYKY,151,1,1028,Correct,1,877
1,XRXRX,152,1,731,Correct,1,671
1,XVXZX,161,2,898,Correct,1,875
1,PDPDP,11,[1][3],[977][1073],Correct,1,836
1,ZFZFZ,13,1,1178,Correct,1,849
1,PXPXP,152,1,872,Correct,1,734
1,LYLYL,153,1,731,Correct,1,855
1,NKNKD,225,1,766,Correct,1,658
1,ZNZNZ,113,1,637,Correct,1,714
1,PYPZP,161,2,811,Correct,1,827
1,XPXPX,151,1,686,Correct,1,923
1,VLVLV,152,1,690,Correct,1,678
1,PKPXP,161,2,1036,Correct,1,921
1,FZFZF,151,1,1063,Correct,1,902
1,LDLDL,12,[1][3],[1079][1399],Correct,1,736
2,U,5,3,1988,New Target,2,703
2,ZVZFZ,161,2,691,Correct,2,756
2,FZFZF,151,1,1135,Correct,2,882
2,RFRFR,152,1,1201,Correct,2,713
2,NZNKN,161,2,763,Correct,2,736
2,FZFNF,162,2,1100,Correct,2,664
2,RXRXR,151,2,685,Incorrect,2,688
2,KRKYK,161,2,932,Correct,2,948
2,NZNPN,162,2,840,Correct,2,829
2,XPXPX,151,1,667,Correct,2,864
2,CUCUC,7,[1][3],[1017][1113],Correct,2,865
2,RFRFR,13,1,988,Correct,2,804
2,VYVXV,161,2,874,Correct,2,864
2,VDVDV,191,1,1138,Correct,2,738
2,ZKZRZ,15,2,747,Correct,2,918
2,XCXCX,151,1,646,Correct,2,840
2,CNCUC,82,[2][3],[1369][1561],Correct,2,753
2,RCRCR,13,1,720,Correct,2,786
2,ZPZXZ,161,2,1017,Correct,2,947
2,FKFYF,162,2,639,Correct,2,687
2,ZFZYZ,163,2,586,Correct,2,915
2,PXPXP,151,2,527,Incorrect,2,676
2,URCKC,231,2,629,Correct,2,739
2,PCPCP,113,1,913,Correct,2,887
2,XNXNX,152,1,787,Correct,2,919
2,RCRZR,161,2,1293,Correct,2,781
2,XVXVX,151,1,1412,Correct,2,826
2,NRNRN,152,1,863,Correct,2,940
2,FPFPF,225,1,1115,Correct,2,677
2,XVXFX,222,2,717,Correct,2,706
2,PRPRP,151,1,1385,Correct,2,722
2,FYFCF,161,2,1070,Correct,2,778
2,XUXFX,91,[2],[1535],Incorrect,2,666
2,CYCVC,14,,,Incorrect,2,920
2,VDVKV,172,,,Incorrect,2,663
2,YCYCY,15,1,855,Correct,2,908
2,NKNLN,161,2,991,Correct,2,818
2,XPUKX,233,2,1507,Correct,2,809
2,ZPZPZ,113,1,753,Correct,2,882
2,KRKRK,152,1,736,Correct,2,709
2,XKXKX,153,1,976,Correct,2,662
2,YUYVY,101,[2][3],[1127][1239],Correct,2,725
2,XKXFU,235,1,1500,Incorrect,2,775
2,NFNFN,113,1,905,Correct,2,823
2,KDKDK,193,1,912,Correct,2,803
2,XYXKX,16,2,741,Correct,2,811
2,YZUZY,223,1,957,Correct,2,906
2,KFKVK,222,2,1266,Correct,2,730
2,LYLYL,151,2,1471,Incorrect,2,708
2,CXCDC,184,,,Incorrect,2,804
2,XZXNX,16,2,698,Correct,2,814
2,PXPXP,151,2,1146,Incorrect,2,709
2,ZRZYZ,161,,,Incorrect,2,812
2,PUPYP,111,[1][3],[1198][1278],Incorrect,2,809
2,RNRNR,14,1,962,Correct,2,744
2,KDKDK,195,1,751,Correct,2,900
2,KNKNK,15,1,1134,Correct,2,719
2,PRPKP,161,2,1466,Correct,2,879
2,UNYNY,221,1,888,Correct,2,762
2,NYNYN,113,1,875,Correct,2,910
2,YXYXY,152,1,735,Incorrect,2,910
2,RDRDR,196,1,775,Correct,2,926
2,FCFCF,15,,,Incorrect,2,766
2,ZKZKZ,152,1,811,Correct,2,930
2,ZUZUZ,12,[1][3],[1035][1115],Correct,2,916
3,E,5,3,2327,New Target,3,720
3,YZYZY,151,1,790,Correct,3,688
3,VFVNV,161,2,1312,Correct,3,843
3,KYKYK,151,1,712,Correct,3,724
3,NKNKN,152,1,641,Correct,3,852
3,XVXNX,161,2,1318,Correct,3,717
3,RERFR,71,[2],[1512],Incorrect,3,867
3,XNXNX,13,1,638,Correct,3,771
3,NXNXN,152,1,1134,Correct,3,812
3,ZLZNZ,161,2,778,Correct,3,841
3,CUCNC,171,2,978,Correct,3,926
3,FYFRF,16,2,1191,Correct,3,683
3,ZLZLZ,151,1,894,Correct,3,851
3,YZYZY,152,1,754,Correct,3,901
3,CYCYC,153,1,621,Correct,3,667
3,VUVUV,192,1,590,Correct,3,765
3,PXPRP,16,2,702,Correct,3,863
3,YPYPY,151,1,621,Correct,3,710
3,CECEC,8,,,Incorrect,3,941
3,VNENV,223,1,1372,Correct,3,804
3,KRKFK,222,2,995,Correct,3,736
3,XLXLE,225,1,768,Correct,3,935
3,RFRUR,183,2,1055,Correct,3,675
3,XRXLX,16,2,721,Correct,3,770
3,NZNPN,162,2,1474,Correct,3,669
3,XZXZX,151,1,647,Correct,3,660
3,FZFZF,152,2,630,Incorrect,3,805
3,PFPFP,153,1,852,Correct,3,839
3,YZYXY,161,2,839,Correct,3,904
3,KEKEK,9,[1][3],[1041][1105],Correct,3,729
3,CXCPC,14,2,970,Correct,3,865
3,VXVXV,151,1,570,Correct,3,917
3,NUNZN,174,2,1113,Correct,3,907
3,RKRVR,16,1,1194,Incorrect,3,696
3,XRXRX,151,1,656,Correct,3,931
3,ERNFN,231,2,1053,Incorrect,3,881
3,YRYNY,222,2,576,Correct,3,667
3,PZPEP,102,[2][3],[1209][1321],Correct,3,866
3,ZYZXZ,14,2,748,Correct,3,899
3,RZRVR,162,2,1404,Correct,3,715
3,XRXRX,151,1,1144,Correct,3,903
3,KUKFK,175,2,1047,Correct,3,764
3,RKRKR,15,1,729,Correct,3,767
3,ZFZFZ,152,1,956,Correct,3,680
3,YZYVY,161,2,1216,Correct,3,805
3,XPXNX,162,2,679,Correct,3,830
3,YRYRY,151,1,663,Correct,3,792
3,EPVPV,221,1,791,Correct,3,819
3,CRCEC,112,[2],[940],Incorrect,3,657
3,RFRCR,14,,,Incorrect,3,697
3,CPCVC,162,2,633,Correct,3,738
3,RXRCR,163,2,516,Correct,3,912
3,VNVLV,164,2,485,Correct,3,911
3,ZXZXZ,151,1,794,Correct,3,856
3,ZCZCZ,152,2,1284,Incorrect,3,751
3,PYPUP,186,2,744,Correct,3,828
3,YKYPY,16,2,692,Correct,3,849
3,YREXY,233,2,1390,Correct,3,908
3,ZKZKZ,113,2,709,Incorrect,3,709
3,XLXNX,161,2,1192,Correct,3,654
3,KFKRE,235,2,1134,Correct,3,923
3,RXRLR,222,2,557,Correct,3,739
3,RERXR,121,[2],[1381],Incorrect,3,689
4,J,5,3,2596,New Target,4,889
4,CYCVC,161,2,1089,Correct,4,667
4,RXRCR,162,2,1054,Correct,4,839
4,FPFVF,163,2,640,Correct,4,735
4,LZLZL,151,1,752,Correct,4,771
4,PLPLP,152,1,714,Correct,4,807
4,NPNPN,153,1,681,Correct,4,825
4,XZXZX,161,1,544,Incorrect,4,903
4,CNCKC,162,2,803,Correct,4,754
4,PCPYJ,235,2,722,Correct,4,711
4,VYVYV,113,1,1073,Correct,4,700
4,RLRLR,152,1,652,Correct,4,892
4,CJCJC,7,[1][3],[1092][1204],Correct,4,669
4,ZLZLZ,13,1,694,Correct,4,763
4,FZFZF,152,1,785,Correct,4,897
4,CFCFC,153,1,656,Correct,4,690
4,PZPZP,154,1,454,Correct,4,668
4,XEXEX,191,1,497,Correct,4,679
4,NVNFN,16,2,692,Correct,4,896
4,KYKYK,151,2,455,Incorrect,4,692
4,ZNZVZ,161,2,840,Correct,4,934
4,YVJXY,233,2,1583,Correct,4,772
4,XFXFX,113,1,1151,Correct,4,697
4,XNXNX,152,1,555,Correct,4,788
4,FJFKF,81,[2][3],[1025][1185],Correct,4,663
4,CZCYC,14,2,1092,Correct,4,839
4,ZXZCZ,162,1,980,Incorrect,4,778
4,RYRYJ,225,2,922,Incorrect,4,759
4,FPFZF,222,2,1137,Correct,4,797
4,XRXRX,151,1,860,Correct,4,812
4,YPYEY,182,2,1326,Correct,4,912
4,XRXRX,15,1,631,Correct,4,669
4,XZXPX,161,2,937,Correct,4,737
4,CJCJC,9,[1][3],[791][903],Correct,4,772
4,ZXZVZ,14,2,653,Correct,4,781
4,VKVKV,151,1,778,Correct,4,820
4,VEVNV,173,2,594,Correct,4,874
4,ZKZVZ,16,2,1287,Correct,4,721
4,XVXJX,102,[2][3],[1277][1437],Correct,4,905
4,RXRVR,14,2,771,Correct,4,822
4,LRLRL,151,1,673,Correct,4,702
4,YNJNY,223,1,860,Correct,4,813
4,NPNJN,222,2,822,Correct,4,738
4,ZEZEZ,194,1,711,Correct,4,945
4,ZNZNZ,15,1,1030,Correct,4,724
4,YZYZY,152,1,676,Correct,4,846
4,XYXYX,153,1,878,Correct,4,941
4,ZXZXZ,221,2,1561,Incorrect,4,724
4,LYLZL,222,2,1010,Correct,4,902
4,CYCNC,162,2,797,Correct,4,921
4,XEXEX,195,1,645,Correct,4,874
4,CVCXC,16,2,1057,Correct,4,931
4,ZPZXZ,162,2,819,Correct,4,692
4,FZFZF,151,1,867,Correct,4,665
4,RXRJR,112,[2][3],[1038][1231],Correct,4,791
4,PRPFP,14,1,1085,Incorrect,4,752
4,PKPEP,186,2,828,Correct,4,734
4,XZXPX,16,2,618,Correct,4,682
4,JCZVZ,231,2,603,Correct,4,768
4,RXRLR,222,2,1063,Correct,4,927
4,VZVZV,151,1,1565,Correct,4,676
4,XJXJX,12,[2],[828],Incorrect,4,874
5,I,5,3,1837,New Target,5,764
5,PCPCP,151,1,727,Correct,5,684
5,XYXYX,152,1,1494,Correct,5,772
5,VXVXV,153,1,643,Correct,5,855
5,XVXVX,154,1,769,Correct,5,880
5,ZRZXZ,161,2,746,Correct,5,867
5,FPFZF,162,2,602,Correct,5,722
5,ZYZYZ,151,1,975,Correct,5,670
5,RVRZR,161,2,614,Correct,5,663
5,CICIC,7,[1][3],[925][1037],Correct,5,717
5,XLXLX,13,1,853,Correct,5,698
5,YVYVY,152,1,588,Correct,5,863
5,CJCJC,191,1,1084,Correct,5,838
5,FNFCF,16,2,1247,Correct,5,713
5,PVPRP,162,2,698,Correct,5,753
5,FZFZF,151,1,596,Correct,5,852
5,NVIVN,223,1,906,Correct,5,685
5,CVCIC,82,[2][3],[819][1315],Correct,5,831
5,ZXZXZ,13,1,980,Correct,5,656
5,FCFZF,161,2,779,Correct,5,698
5,IXRXR,221,1,1266,Correct,5,945
5,ZPZNZ,222,2,1237,Correct,5,941
5,VZVZV,151,1,668,Correct,5,882
5,YRYNY,161,2,1432,Correct,5,757
5,VNVPV,162,2,752,Correct,5,664
5,RVRJR,182,2,1198,Correct,5,738
5,VRVRV,15,1,726,Correct,5,893
5,VIVIV,9,[1][3],[884][1011],Correct,5,761
5,CXCVC,14,2,674,Correct,5,753
5,PZPZP,151,1,740,Correct,5,732
5,IXVKV,231,2,974,Correct,5,809
5,YJYCY,173,2,654,Incorrect,5,836
5,VYVYV,15,1,733,Correct,5,814
5,YVYVY,152,1,855,Correct,5,867
5,NVNVN,153,1,818,Correct,5,697
5,XYXVX,161,2,631,Correct,5,882
5,NJNCN,174,2,1226,Correct,5,707
5,NXNYN,16,2,1382,Correct,5,767
5,VXVCV,162,2,616,Correct,5,801
5,ZKZKZ,151,2,409,Incorrect,5,781
5,XRXYX,161,2,1013,Correct,5,673
5,ZCZXZ,162,1,1207,Incorrect,5,741
5,KVKYI,235,2,828,Correct,5,915
5,CNCNC,113,1,793,Correct,5,724
5,RIRIR,10,[1][3],[803][915],Correct,5,703
5,VYVXV,14,2,775,Correct,5,730
5,FXIRF,233,2,1198,Correct,5,879
5,PFPFP,113,1,986,Correct,5,736
5,VPVPV,152,1,714,Correct,5,860
5,ZJZJZ,195,1,695,Correct,5,784
5,ZVZNZ,16,2,873,Correct,5,678
5,YVYXY,162,2,1054,Correct,5,817
5,PRPRP,151,1,1368,Correct,5,933
5,YPYPY,152,1,766,Correct,5,791
5,ZIZPZ,111,[2],[1061],Incorrect,5,939
5,NKNXN,14,2,1162,Correct,5,763
5,RZRXR,162,2,841,Correct,5,732
5,RXRXR,151,2,703,Incorrect,5,853
5,ZJZJZ,196,1,1036,Correct,5,838
5,CVCVI,225,1,1323,Incorrect,5,863
5,NKNKN,113,1,691,Correct,5,741
5,NRNZN,161,2,692,Correct,5,699
5,CNCNC,151,1,567,Correct,5,696
5,RFRIR,122,[2],[1552],Incorrect,5,749
6,B,5,3,2531,New Target,6,879
6,YKYZY,161,,,Incorrect,6,733
6,VCVRV,162,2,685,Correct,6,898
6,XVXVX,151,1,669,Correct,6,733
6,KZKRK,161,2,652,Correct,6,780
6,ZVZXZ,162,2,759,Correct,6,926
6,RCRNR,163,2,612,Correct,6,718
6,CXCRC,164,2,628,Correct,6,774
6,VNBCV,233,2,478,Correct,6,927
6,CXCVC,222,2,472,Correct,6,650
6,RFRFR,151,1,1136,Correct,6,703
6,XPXRX,161,2,1180,Correct,6,782
6,RYRBR,72,[2],[872],Incorrect,6,831
6,ZKZKZ,13,1,805,Correct,6,898
6,FIFRF,171,2,1545,Correct,6,898
6,VZVLV,16,2,1093,Correct,6,856
6,RPRVR,162,2,1285,Correct,6,711
6,YBYBY,8,[1][3],[851][995],Correct,6,905
6,PYPVP,14,2,710,Correct,6,826
6,NININ,192,1,786,Correct,6,840
6,RNRNR,15,1,866,Correct,6,650
6,NXNVN,161,2,718,Correct,6,700
6,RNRNR,151,1,797,Correct,6,753
6,FRFVF,161,2,691,Correct,6,900
6,YVYFB,235,2,1325,Incorrect,6,864
6,ZRZXZ,222,2,722,Correct,6,859
6,VNVIV,193,2,723,Incorrect,6,657
6,PXPNP,16,2,639,Correct,6,825
6,ZXZPZ,162,2,617,Correct,6,932
6,VBVBV,9,[1][3],[853][1061],Correct,6,674
6,CXCXC,13,1,871,Correct,6,838
6,PCPFP,161,2,610,Correct,6,706
6,KNKNK,151,1,798,Correct,6,942
6,XIXIX,194,1,676,Correct,6,881
6,CYCYC,15,1,831,Correct,6,920
6,FVFYF,161,2,1210,Correct,6,726
6,YNYRY,162,2,677,Correct,6,800
6,BVPXP,231,2,1465,Correct,6,675
6,NXNXN,113,1,748,Correct,6,717
6,FRFRF,152,1,804,Correct,6,933
6,YVYVY,153,1,1252,Correct,6,668
6,ZKZCZ,161,2,718,Correct,6,702
6,VIVXV,175,2,1338,Correct,6,823
6,PRBRP,223,,,Incorrect,6,871
6,YZYBY,102,[2][3],[1273][1417],Correct,6,655
6,CXCVC,14,2,851,Correct,6,926
6,FYFYF,151,1,896,Correct,6,705
6,VKVXV,161,2,937,Correct,6,733
6,ZBZBZ,11,[1][3],[793][1001],Correct,6,737
6,FPFNF,14,2,1008,Correct,6,711
6,CXCXC,151,1,787,Correct,6,711
6,YCYCY,152,1,634,Correct,6,892
6,FPFPF,153,1,822,Correct,6,855
6,CVCVB,225,1,1283,Correct,6,741
6,ZCZCZ,113,1,575,Correct,6,697
6,CZCNC,161,2,741,Correct,6,719
6,KIKFK,176,2,1148,Correct,6,945
6,PXPXP,15,1,773,Correct,6,833
6,RYRYR,152,1,1019,Correct,6,906
6,ZRZCZ,161,2,985,Correct,6,939
6,RVRVR,151,1,734,Correct,6,653
6,XYXNX,161,2,742,Correct,6,888
6,BVKVK,221,1,1186,Correct,6,829
6,CBCBC,12,[1][3],[1175][1255],Correct,6,941
7,W,5,3,1688,New Target,7,893
7,RKRKR,151,1,1230,Correct,7,693
7,CVCRC,161,2,884,Correct,7,892
7,PKPKP,151,1,796,Correct,7,698
7,FPFPF,152,1,595,Correct,7,875
7,VRVPV,161,2,693,Correct,7,765
7,ZKZYZ,162,1,707,Incorrect,7,795
7,PVPCP,233,2,753,Correct,7,814
7,KVKVK,113,1,985,Correct,7,855
7,YXYVY,161,2,726,Correct,7,923
7,FNFNF,151,1,689,Correct,7,829
7,YWYWY,7,[1][3],[1404][1452],Correct,7,665
7,ZYZYZ,13,1,1249,Correct,7,709
7,PYPYP,152,1,791,Correct,7,862
7,XRXRX,153,1,674,Correct,7,842
7,PXPXP,154,1,638,Correct,7,843
7,FCFBF,181,2,578,Correct,7,671
7,FVFVF,15,1,854,Correct,7,711
7,CYCZC,161,2,633,Correct,7,872
7,XZXVX,162,1,595,Incorrect,7,944
7,PFPFP,151,1,659,Correct,7,824
7,RVRLR,161,,,Incorrect,7,849
7,ZBZBZ,192,,,Incorrect,7,864
7,VCVNV,16,2,782,Correct,7,914
7,NWNWN,8,[1][3],[1002][1130],Correct,7,769
7,XNXVX,14,,,Incorrect,7,925
7,CXCNC,162,2,567,Correct,7,674
7,YVYVW,225,1,1192,Correct,7,810
7,VFVFV,113,2,665,Incorrect,7,696
7,VFWFV,223,1,1172,Correct,7,866
7,CVCFC,222,2,940,Correct,7,921
7,YBYBY,193,1,1116,Correct,7,904
7,PYPYP,15,1,679,Correct,7,808
7,NKNWN,91,[2][3],[1196][1308],Correct,7,770
7,VNVNV,13,1,803,Correct,7,860
7,RVRVR,152,1,815,Correct,7,698
7,FVFBF,184,2,651,Incorrect,7,666
7,VZVKV,16,,,Incorrect,7,776
7,VPVCV,162,2,714,Correct,7,773
7,WYZCZ,231,2,1145,Correct,7,700
7,PFPFP,113,1,619,Correct,7,663
7,PRPRP,152,1,1430,Correct,7,922
7,NWNWN,10,[1][3],[890][1034],Correct,7,659
7,VKVCV,14,2,747,Correct,7,687
7,WPYPY,221,1,842,Correct,7,713
7,VBVBV,195,1,684,Correct,7,944
7,ZKZYZ,16,,,Incorrect,7,859
7,XYXYX,151,1,757,Correct,7,747
7,FZFXF,161,2,748,Correct,7,906
7,XKXKX,151,1,1367,Correct,7,811
7,XPXPX,152,1,711,Correct,7,879
7,FWFWF,11,[1][3],[941][1101],Correct,7,945
7,FNFBF,186,2,1030,Correct,7,736
7,ZVZYZ,16,2,965,Correct,7,881
7,FZFZF,151,1,921,Correct,7,754
7,NPNFW,235,2,872,Correct,7,923
7,PCPCP,113,1,642,Correct,7,733
7,NKNWN,122,[2][3],[989][1197],Correct,7,701
8,M,5,3,2109,New Target,8,718
8,VYVNV,161,2,990,Correct,8,719
8,KLKNK,162,2,1007,Correct,8,845
8,NRNRN,151,1,757,Correct,8,728
8,VNVFV,161,2,580,Correct,8,695
8,XNXNM,225,1,1004,Correct,8,655
8,CXCVC,222,2,734,Correct,8,836
8,KRKZK,162,2,634,Correct,8,847
8,NMNFN,71,[2][3],[1200][1280],Correct,8,759
8,ZFZFZ,13,1,720,Correct,8,668
8,YPYCY,161,2,600,Correct,8,946
8,KCKCK,151,1,733,Correct,8,774
8,VNVNV,152,2,649,Incorrect,8,787
8,LXLXL,153,1,1085,Correct,8,654
8,CLCLC,154,1,572,Correct,8,740
8,NYNYN,155,1,618,Correct,8,864
8,LCMYL,233,2,743,Correct,8,944
8,NCNCN,113,1,593,Correct,8,868
8,ZVZRZ,161,2,963,Correct,8,862
8,ZVZVZ,151,1,836,Correct,8,834
8,PZPVP,161,2,830,Correct,8,696
8,PWPNP,171,,,Incorrect,8,877
8,KLKCM,235,2,761,Correct,8,884
8,XMXMX,8,[1][3],[703][863],Correct,8,858
8,PRPXP,14,2,705,Correct,8,925
8,CVCYC,162,2,801,Correct,8,759
8,PXPMP,92,[2][3],[992][1152],Correct,8,706
8,ZCZLZ,14,,,Incorrect,8,836
8,XWXWX,192,,,Incorrect,8,877
8,ZCZLZ,16,2,659,Correct,8,851
8,MNCYC,231,2,1216,Correct,8,822
8,ZXZXZ,113,1,778,Correct,8,776
8,YRYNY,161,2,661,Correct,8,790
8,ZLZPZ,162,2,546,Correct,8,817
8,VZVZV,151,2,453,Incorrect,8,734
8,MXPXP,221,1,905,Correct,8,938
8,VWVWV,193,2,1508,Incorrect,8,657
8,PYPYP,16,1,687,Incorrect,8,899
8,XPXVX,162,2,846,Correct,8,739
8,XLXLX,151,1,597,Correct,8,782
8,YMYMY,10,[1][3],[1216][1360],Correct,8,729
8,VYVYV,13,1,1139,Correct,8,826
8,PWPZP,174,2,689,Correct,8,746
8,PYPKP,16,2,856,Correct,8,935
8,NPNXN,162,2,710,Correct,8,658
8,KVKVK,223,1,1063,Correct,8,723
8,NVNFN,222,2,709,Correct,8,837
8,XNXNX,151,1,900,Correct,8,756
8,YZYMY,112,[2][3],[795][1499],Correct,8,892
8,PFPFP,13,1,819,Correct,8,725
8,ZWZWZ,195,,,Incorrect,8,761
8,PCPZP,16,2,632,Correct,8,820
8,LRLPL,162,2,1448,Correct,8,834
8,CZCZC,151,1,601,Correct,8,809
8,NZNZN,152,1,727,Correct,8,884
8,CVCXC,161,,,Incorrect,8,700
8,XCXCX,151,1,574,Correct,8,900
8,YWYWY,196,1,1250,Correct,8,740
8,NLNLN,15,1,731,Correct,8,783
8,VNVNV,152,1,709,Correct,8,866
8,ZMZMZ,12,[1][3],[902][1046],Correct,8,788
9,S,5,3,4002,New Target,9,844
9,NZNZN,151,1,895,Correct,9,884
9,KVKZK,161,2,677,Correct,9,798
9,LZLZL,151,1,654,Correct,9,921
9,XLXLX,152,2,580,Incorrect,9,684
9,ZXZXZ,153,1,964,Correct,9,879
9,KNKZK,161,2,1339,Correct,9,694
9,NRNYN,162,2,1028,Correct,9,729
9,CLCVC,163,2,695,Correct,9,724
9,ZCZFZ,164,2,918,Correct,9,750
9,NSNSN,7,[1][3],[1178][1354],Correct,9,946
9,VZVZV,13,2,997,Incorrect,9,802
9,NVNCN,161,2,1416,Correct,9,812
9,VMVMV,191,1,1259,Correct,9,753
9,CVCXC,16,2,776,Correct,9,707
9,ZYZRZ,162,2,759,Correct,9,692
9,XNXZX,163,,,Incorrect,9,743
9,PXPXP,151,1,832,Correct,9,762
9,VCVSV,82,[2],[1475],Incorrect,9,941
9,PRPCP,14,1,1066,Incorrect,9,790
9,ZMZMZ,192,1,1131,Incorrect,9,728
9,ZFZFZ,15,2,693,Incorrect,9,895
9,FCFCF,152,1,674,Correct,9,871
9,YLYZY,161,2,834,Correct,9,795
9,KNKVK,162,2,695,Correct,9,878
9,SFPCP,231,2,1385,Correct,9,716
9,RPRPR,113,1,1486,Correct,9,797
9,XMXMX,193,1,1105,Correct,9,677
9,KFKFK,15,1,1165,Correct,9,839
9,VSVSV,9,[1][3],[1031][1159],Correct,9,731
9,YVSVY,223,1,1232,Correct,9,774
9,VPVPV,113,1,637,Correct,9,717
9,XZXZX,152,1,896,Correct,9,751
9,KZKXK,161,2,709,Correct,9,789
9,RFRPR,162,2,753,Correct,9,811
9,NVNVS,225,1,764,Correct,9,826
9,ZXZXZ,113,1,746,Correct,9,713
9,SRVRV,221,1,728,Correct,9,677
9,YCYCY,113,1,776,Correct,9,720
9,KMKZK,174,2,641,Correct,9,839
9,FZSVF,233,2,1308,Correct,9,886
9,VYVYV,113,1,592,Correct,9,869
9,LVLVL,152,1,737,Correct,9,782
9,YFYFY,153,1,691,Correct,9,661
9,NXNSN,102,[2][3],[1051][1243],Correct,9,734
9,FNFCF,14,2,1157,Correct,9,809
9,KVKVK,151,,,Incorrect,9,915
9,VZVCV,161,,,Incorrect,9,696
9,ZYZMZ,185,2,982,Correct,9,886
9,VXVZV,16,2,1095,Correct,9,809
9,VPVPV,151,1,643,Correct,9,876
9,RVRNS,235,2,712,Correct,9,689
9,YZYZY,113,1,629,Correct,9,776
9,ZSZSZ,11,[1][3],[912][1024],Correct,9,651
9,FRFRF,13,1,722,Correct,9,912
9,ZMZMZ,196,1,515,Correct,9,681
9,NZNXN,16,2,708,Correct,9,911
9,LSLFL,121,[1],[1218],Incorrect,9,702
10,Q,5,3,3044,New Target,10,742
10,ZVZPZ,161,2,1094,Correct,10,775
10,RZRZR,151,1,844,Correct,10,942
10,ZFZFZ,152,,,Incorrect,10,895
10,RZRZR,153,1,743,Correct,10,867
10,PZPXP,161,2,624,Correct,10,842
10,VFQPV,233,,,Incorrect,10,885
10,ZPZRZ,222,2,1146,Correct,10,713
10,CYCVC,162,2,866,Correct,10,923
10,CPCPC,151,1,660,Correct,10,853
10,YZYQY,72,[2],[1319],Incorrect,10,673
10,FVFXF,14,,,Incorrect,10,694
10,YNYNQ,225,1,890,Correct,10,752
10,ZYZYZ,113,1,1217,Correct,10,746
10,FRFSF,181,2,1260,Incorrect,10,779
10,XNXPX,16,2,1464,Correct,10,713
10,NXNXN,151,1,698,Correct,10,676
10,PVPZP,161,2,1016,Correct,10,819
10,XVXPX,162,2,548,Correct,10,911
10,FXFVF,163,2,554,Correct,10,780
10,NSNKN,172,2,670,Incorrect,10,740
10,VXVNV,16,2,448,Correct,10,741
10,XZXZX,151,1,706,Correct,10,927
10,VQVQV,8,[1][3],[1151][1215],Correct,10,900
10,ZYZPZ,14,2,612,Correct,10,674
10,PZPSP,183,,,Incorrect,10,815
10,YVYVY,15,1,954,Correct,10,890
10,NCNQN,92,[2][3],[1005][1244],Correct,10,839
10,FCFVF,14,2,1176,Correct,10,929
10,ZFZFZ,151,1,963,Correct,10,868
10,NSNSN,194,1,1111,Correct,10,732
10,YPYFY,16,2,1071,Correct,10,910
10,ZKZKZ,151,1,999,Correct,10,948
10,QZRCR,231,2,1213,Correct,10,662
10,YPYVY,222,2,597,Correct,10,835
10,ZNZNZ,151,1,702,Correct,10,686
10,VQVQV,10,[1][3],[883][1043],Correct,10,762
10,RVRZR,14,2,659,Correct,10,814
10,KRKSK,185,2,1199,Correct,10,918
10,NPNPN,15,1,623,Correct,10,663
10,YPYPY,152,1,665,Correct,10,885
10,VCVYV,161,2,659,Correct,10,886
10,FPFNF,162,2,687,Correct,10,879
10,QVXVX,221,2,451,Incorrect,10,668
10,ZVZRZ,222,2,538,Correct,10,820
10,LFLFL,151,1,666,Correct,10,949
10,VLVLV,152,1,601,Correct,10,728
10,KXQXK,223,1,1102,Correct,10,660
10,YQYQY,11,[1][3],[728][888],Correct,10,709
10,YCYCY,13,1,624,Correct,10,756
10,PZPYP,161,2,702,Correct,10,793
10,LPLFL,162,2,1399,Correct,10,918
10,VSVSV,196,1,647,Correct,10,892
10,VFVYQ,235,2,842,Correct,10,692
10,CZCXC,222,2,804,Correct,10,729
10,PVPCP,162,2,601,Correct,10,898
10,CXCXC,151,1,841,Correct,10,891
10,NZNZN,152,1,725,Correct,10,674
10,YPYCY,161,1,731,Incorrect,10,937
10,ZQZQZ,12,[1][3],[1183][1343],Correct,10,782
11,T,5,3,1187,New Target,11,714
11,KFKFK,151,1,894,Correct,11,666
11,LZLZL,152,1,545,Correct,11,911
11,PFPVP,161,2,772,Correct,11,811
11,FRFPF,162,2,979,Correct,11,673
11,FZFZF,151,1,795,Correct,11,654
11,VTVTV,7,[1][3],[992][1120],Correct,11,874
11,KYKCK,14,2,620,Correct,11,702
11,VPVPV,151,1,654,Correct,11,757
11,XQXQX,191,1,1313,Correct,11,664
11,PZPYP,16,2,741,Correct,11,880
11,KXKLK,162,2,674,Correct,11,763
11,TCNCN,221,1,574,Correct,11,904
11,PZPNP,222,2,459,Correct,11,922
11,RCRPR,162,2,543,Correct,11,913
11,PZPRT,235,2,488,Correct,11,720
11,XFXVX,222,2,489,Correct,11,894
11,LTLVL,81,[2],[412],Incorrect,11,693
11,ZCZPZ,14,2,1110,Correct,11,666
11,NCNQN,182,2,1567,Correct,11,916
11,XZXNX,16,,,Incorrect,11,871
11,ZPZPZ,151,1,1029,Correct,11,705
11,CFCFC,152,1,727,Correct,11,717
11,VXTRV,233,2,528,Correct,11,899
11,CFCVC,222,2,1315,Correct,11,796
11,PYPYP,151,1,1348,Correct,11,916
11,FQFYF,173,2,1544,Correct,11,849
11,CNCFC,16,2,1317,Correct,11,837
11,PTPTP,9,[1][3],[851][995],Correct,11,836
11,ZCZCZ,13,1,650,Correct,11,709
11,KZKZK,152,1,837,Correct,11,932
11,RLRVR,161,2,655,Correct,11,753
11,ZRZKZ,162,2,787,Correct,11,655
11,KLKLT,225,1,699,Correct,11,832
11,ZQZQZ,194,,,Incorrect,11,884
11,VZVZV,15,1,733,Correct,11,771
11,RVRZR,161,2,780,Correct,11,746
11,ZPZCZ,162,2,649,Correct,11,718
11,VYVYV,151,1,899,Correct,11,885
11,RVRVR,152,1,765,Correct,11,704
11,PTPTP,10,[1][3],[518][934],Correct,11,942
11,PXPXP,13,1,800,Correct,11,789
11,KCKCK,152,1,603,Correct,11,798
11,YVYVY,153,1,493,Correct,11,751
11,CYCYC,154,1,516,Correct,11,777
11,XCXCX,155,1,507,Correct,11,764
11,CYCQC,185,2,654,Correct,11,885
11,KCKNK,16,2,735,Correct,11,830
11,VPVPV,151,1,747,Correct,11,715
11,TXFZF,231,2,828,Correct,11,657
11,NYNVN,222,2,800,Correct,11,922
11,VQVXV,176,2,533,Correct,11,881
11,ZRZRZ,15,1,715,Correct,11,719
11,VTVZV,111,[2][3],[539][1035],Correct,11,796
11,PXPVP,14,1,671,Incorrect,11,850
11,FVFVF,151,1,970,Correct,11,911
11,VRVLV,161,2,764,Correct,11,787
11,YCYCY,151,1,581,Correct,11,893
11,XZTZX,223,2,635,Incorrect,11,726
11,VTVTV,12,[1][3],[573][925],Correct,11,836
12,O,5,3,2267,New Target,12,673
12,VXVLV,161,2,1087,Correct,12,769
12,KVKCK,162,,,Incorrect,12,912
12,VLVLV,151,1,848,Correct,12,796
12,ZCZVZ,161,2,1458,Correct,12,930
12,KFKFK,151,,,Incorrect,12,766
12,XKXKX,152,1,755,Correct,12,672
12,YXYXY,153,1,959,Correct,12,754
12,FVFVF,154,1,1319,Correct,12,721
12,PVPOP,72,[2],[1161],Incorrect,12,684
12,ZXZYZ,14,2,754,Correct,12,882
12,PXPVP,162,2,600,Correct,12,936
12,ZTZTZ,191,1,794,Correct,12,743
12,CVCKC,16,2,583,Correct,12,771
12,CKCKC,151,1,1440,Correct,12,652
12,NPNPN,152,1,925,Correct,12,828
12,ZRZNZ,161,2,596,Correct,12,711
12,OZCZC,221,2,850,Incorrect,12,879
12,LFLFL,113,2,589,Incorrect,12,717
12,CXCXC,152,1,1134,Correct,12,753
12,KPKPK,153,1,579,Correct,12,656
12,FRFKF,161,2,1185,Correct,12,925
12,FOFOF,8,[1],[917],Incorrect,12,817
12,ZFZFZ,13,1,999,Correct,12,938
12,LKLZO,235,1,1408,Incorrect,12,657
12,KLKZK,222,2,1256,Correct,12,668
12,YXYCY,162,2,1373,Correct,12,899
12,LOLOL,9,[1],[1129],Incorrect,12,704
12,XLXLX,13,2,845,Incorrect,12,651
12,XVXVX,152,1,1172,Correct,12,834
12,FTFTF,192,,,Incorrect,12,654
12,OXNZN,231,2,894,Correct,12,941
12,CZCZC,113,1,969,Correct,12,662
12,LZLZL,152,1,639,Correct,12,711
12,VLVPV,161,2,770,Correct,12,738
12,VYVYO,225,,,Incorrect,12,727
12,XKXKX,113,1,1050,Correct,12,781
12,RTRTR,193,,,Incorrect,12,805
12,KVKCK,16,2,663,Correct,12,811
12,ROROR,101,[1],[602],Incorrect,12,809
12,PRPRP,13,2,1207,Incorrect,12,897
12,LYLVL,161,2,859,Correct,12,927
12,PLPLP,151,1,579,Correct,12,789
12,CTCTC,194,1,651,Correct,12,677
12,XZXYX,16,2,1017,Correct,12,785
12,NKNKN,151,1,935,Correct,12,888
12,VLVZV,161,2,1256,Correct,12,896
12,YOYOY,11,[1],[866],Incorrect,12,867
12,PZOZP,223,,,Incorrect,12,806
12,FYFYF,113,1,943,Correct,12,758
12,ZXZVZ,161,2,1130,Correct,12,652
12,VKVZV,162,1,1020,Incorrect,12,687
12,ZTZTZ,195,,,Incorrect,12,781
12,LKLZL,16,2,1099,Correct,12,676
12,KCKVK,162,,,Incorrect,12,815
12,PXPKP,163,2,1215,Correct,12,899
12,KCOZK,233,1,856,Incorrect,12,705
12,FKFKF,113,1,923,Correct,12,942
12,CTCRC,176,2,595,Correct,12,730
12,NXNXN,15,1,770,Correct,12,850
12,KXKVK,161,2,810,Correct,12,845
12,CPCOC,122,[2],[722],Incorrect,12,882
13,H,5,3,2274,New Target,13,686
13,VFVNV,151,2,743,Incorrect,13,851
13,YVYVY,152,1,806,Correct,13,691
13,XVXVX,153,1,706,Correct,13,721
13,NRNXN,161,2,672,Correct,13,758
13,PZPKP,162,2,530,Correct,13,706
13,HLVLV,221,2,1434,Incorrect,13,675
13,CXCZC,222,2,1127,Correct,13,856
13,LHLYL,71,[2][3],[1280][1408],Correct,13,658
13,YKYFY,14,2,1184,Correct,13,946
13,YOYRY,171,2,584,Correct,13,825
13,ZKZYZ,16,2,1032,Correct,13,826
13,RZRZR,151,1,693,Correct,13,870
13,NFNYN,161,2,713,Correct,13,666
13,KVKFK,162,2,569,Correct,13,761
13,XFXYX,163,2,590,Correct,13,770
13,LKLVL,164,2,605,Correct,13,843
13,NLNLN,151,,,Incorrect,13,657
13,XCXOX,182,2,715,Correct,13,887
13,FXFXF,15,1,1107,Correct,13,852
13,VHVHV,8,[1][3],[887][983],Correct,13,789
13,PVPVP,13,1,711,Correct,13,900
13,CRCXC,161,2,1246,Correct,13,940
13,NXNXN,151,,,Incorrect,13,929
13,XRXRX,152,,,Incorrect,13,817
13,YFYXY,161,2,953,Correct,13,666
13,ZOZOZ,193,1,537,Correct,13,868
13,RZRZR,15,1,662,Correct,13,908
13,FKFKF,152,2,1248,Incorrect,13,911
13,PFPFP,153,1,749,Correct,13,718
13,XYXHX,92,[2][3],[797][1101],Correct,13,695
13,RZRKR,14,2,1521,Correct,13,756
13,FLFLH,225,1,578,Correct,13,751
13,KRKRK,113,2,532,Incorrect,13,815
13,ZVZNZ,161,,,Incorrect,13,834
13,ZOZOZ,194,1,530,Correct,13,779
13,FZFZF,15,1,788,Correct,13,846
13,FHFKF,101,[2][3],[1037][1165],Correct,13,670
13,ZXHLZ,233,2,1382,Correct,13,844
13,FKFXF,222,,,Incorrect,13,895
13,CFCYC,162,2,739,Correct,13,699
13,ZXZVZ,163,2,514,Correct,13,687
13,KCKOK,185,2,881,Correct,13,937
13,ZXZVH,235,2,1000,Correct,13,797
13,CKCKC,113,2,483,Incorrect,13,919
13,ZXZCZ,161,2,707,Correct,13,925
13,YVYVY,151,1,757,Correct,13,661
13,RVHVR,223,1,1169,Correct,13,783
13,ZRZRZ,113,1,650,Correct,13,835
13,ZHZHZ,11,[1][3],[887][1031],Correct,13,655
13,VZVZV,13,1,583,Correct,13,822
13,HZVRV,231,2,708,Correct,13,877
13,FVFVF,113,1,642,Correct,13,761
13,RNRCR,161,,,Incorrect,13,887
13,COCOC,196,1,555,Correct,13,709
13,VNVXV,16,2,1550,Correct,13,845
13,XHXHX,12,[1][3],[638][846],Correct,13,820
14,G,5,3,1733,New Target,14,939
14,FZFZF,151,1,771,Correct,14,873
14,RPRVR,161,2,829,Correct,14,752
14,XCXCX,151,1,555,Correct,14,693
14,YXYXY,152,1,561,Correct,14,728
14,KZKZK,153,1,526,Correct,14,949
14,RYRKR,161,2,764,Correct,14,933
14,FYFNF,162,2,633,Correct,14,770
14,VKVKV,151,1,634,Correct,14,735
14,KPGPK,223,2,1497,Incorrect,14,836
14,YNYNY,113,1,563,Correct,14,897
14,VYVYV,152,1,1477,Correct,14,844
14,YCYXY,161,2,626,Correct,14,891
14,LKLGL,72,[2][3],[1073][1153],Correct,14,887
14,VXVXV,13,1,1154,Correct,14,862
14,KCKVK,161,,,Incorrect,14,833
14,YKYKY,151,1,1466,Correct,14,699
14,RHRXR,171,2,968,Correct,14,839
14,FVFCF,16,2,718,Correct,14,778
14,YXYGY,82,[2][3],[933][1029],Correct,14,655
14,CLCLC,13,1,907,Correct,14,778
14,ZXZCZ,161,2,609,Correct,14,741
14,VLVFV,162,2,567,Correct,14,684
14,CPCPG,225,1,824,Correct,14,817
14,KHKNK,172,2,733,Correct,14,931
14,ZKZVZ,16,2,683,Correct,14,703
14,YKYLY,162,2,582,Correct,14,831
14,CNCNC,151,1,629,Correct,14,877
14,PGPGP,9,[2][3],[852][964],Incorrect,14,874
14,VPVPV,13,1,974,Correct,14,840
14,FXGRF,233,2,1326,Correct,14,913
14,CYCVC,222,2,1153,Correct,14,829
14,FNFNF,151,1,701,Correct,14,825
14,KFKCK,161,2,728,Correct,14,824
14,ZFZHZ,183,,,Incorrect,14,879
14,NXNXN,15,1,703,Correct,14,754
14,FNFNF,152,1,1166,Correct,14,758
14,LXLNG,235,2,1130,Correct,14,804
14,XKXVX,222,,,Incorrect,14,757
14,ZHZHZ,194,1,1054,Correct,14,900
14,PFPFP,15,1,844,Correct,14,868
14,ZYZYZ,152,1,629,Correct,14,774
14,XPXVX,161,2,600,Correct,14,698
14,YCYCY,151,1,519,Correct,14,866
14,RGRGR,10,[1][3],[1061][1317],Correct,14,714
14,VRVRV,13,1,659,Correct,14,711
14,PKPNP,161,2,725,Correct,14,712
14,XGXGX,11,[1][3],[696][792],Correct,14,760
14,GZYVY,231,2,556,Correct,14,674
14,VCVNV,222,2,690,Correct,14,725
14,VHVHV,195,2,465,Incorrect,14,797
14,LXLNL,16,2,601,Correct,14,744
14,GKPKP,221,1,885,Correct,14,911
14,XRXPX,222,2,1050,Correct,14,792
14,XNXNX,151,2,1046,Incorrect,14,916
14,KHKNK,176,2,1010,Incorrect,14,866
14,RZRZR,15,1,729,Correct,14,662
14,CGCFC,121,[2][3],[1249][1329],Correct,14,665
15,A,5,3,2469,New Target,15,899
15,XRXFX,161,2,982,Correct,15,764
15,RXRKR,162,2,924,Correct,15,698
15,YRYRY,151,1,694,Correct,15,684
15,XPXPX,152,2,660,Incorrect,15,776
15,RPRPR,153,2,1040,Incorrect,15,887
15,NCNCN,154,1,546,Correct,15,725
15,RXRZR,161,2,668,Correct,15,668
15,NANAN,7,[1][14],[1046][1334],Incorrect,15,764
15,KCKYK,14,2,869,Correct,15,939
15,XKXFX,162,2,874,Correct,15,857
15,ZLZKZ,163,1,505,Incorrect,15,920
15,VCVZV,164,2,1052,Correct,15,869
15,XCXVX,165,2,553,Correct,15,882
15,LKLZA,235,2,1180,Correct,15,794
15,NCNCN,113,1,618,Correct,15,717
15,YGYGY,191,1,1493,Correct,15,914
15,VLVLV,15,1,698,Correct,15,720
15,XRXRX,152,1,602,Correct,15,727
15,KAKPK,81,[2][3],[742][1110],Correct,15,728
15,YZAZY,233,1,1046,Incorrect,15,811
15,CFCFC,113,1,651,Correct,15,700
15,VNVLV,161,2,708,Correct,15,913
15,KPKVK,162,2,658,Correct,15,830
15,NCNRN,163,2,829,Correct,15,837
15,FGFGF,192,1,1186,Correct,15,892
15,RCRYR,16,2,569,Correct,15,871
15,KRKCK,162,2,607,Correct,15,734
15,CRCRC,151,2,465,Incorrect,15,717
15,XPAPX,223,,,Incorrect,15,900
15,LPLXL,222,2,896,Correct,15,774
15,CGCVC,173,1,1418,Incorrect,15,699
15,FKFZF,16,,,Incorrect,15,670
15,CACAC,9,[1][3],[1009][1105],Correct,15,787
15,XCXCX,13,,,Incorrect,15,782
15,AXRXR,221,1,1455,Correct,15,781
15,NKNRN,222,2,928,Correct,15,777
15,KNKFK,162,,,Incorrect,15,717
15,KAKAK,10,[1][3],[585][793],Correct,15,882
15,ZCZRZ,14,2,656,Correct,15,922
15,RPRPR,151,1,1378,Correct,15,658
15,NCNCN,152,,,Incorrect,15,650
15,RYRGR,184,2,650,Correct,15,718
15,VPVPV,15,1,551,Correct,15,858
15,RCRCA,225,1,548,Correct,15,898
15,KXKPK,222,2,582,Correct,15,858
15,NPNPN,151,,,Incorrect,15,861
15,YCYCY,152,1,640,Correct,15,871
15,PXPAP,112,[1][3],[1237][1509],Incorrect,15,930
15,ZCZNZ,14,2,669,Correct,15,655
15,KYKGK,185,2,479,Correct,15,654
15,ANLPL,231,2,1396,Correct,15,802
15,CXCPC,222,2,738,Correct,15,897
15,YRYRY,151,1,882,Correct,15,739
15,LGLGL,196,1,765,Correct,15,651
15,VYVLV,16,2,569,Correct,15,784
15,KVKVK,151,1,1160,Correct,15,886
15,RKRKR,152,2,531,Incorrect,15,843
15,VXVXV,153,1,1005,Correct,15,658
15,XAXAX,12,[1][3],[853][949],Correct,15,912
