Trial No,Stimulus,Trigger,Response,Response Time(ms),Correct,Block,Fixation Duration
Practice
OT Practice
1,SKSKS,15,,,False,0,736
1,DLDUD,16,2,846,Correct,0,836
1,PDPGP,16,2,1368,Correct,0,669
1,MWMWM,15,1,1012,Correct,0,888
1,FTFTF,15,2,1350,False,0,720
1,AXAMA,16,1,716,False,0,682
1,RYRGR,16,1,946,False,0,930
1,DODOD,15,1,1205,Correct,0,754
1,QTQAQ,16,2,877,Correct,0,731
1,YEYEY,15,1,495,Correct,0,813
2,GYGDG,16,2,895,Correct,0,799
2,SWSWS,15,1,622,Correct,0,899
2,HLHUH,16,2,991,Correct,0,667
2,DEDED,15,1,474,Correct,0,861
2,ZPZOZ,16,2,705,Correct,0,686
2,ATATA,15,1,572,Correct,0,715
2,QOQOQ,15,1,641,Correct,0,663
2,FPFGF,16,2,738,Correct,0,708
2,TRTET,16,2,881,Correct,0,662
2,DQDQD,15,1,410,Correct,0,656
4,PLPLP,15,,,False,0,724
4,ATAIA,16,2,952,Correct,0,801
4,SKSGS,16,2,778,Correct,0,786
4,ZYZYZ,15,1,1012,Correct,0,695
4,QSQSQ,15,1,661,Correct,0,659
4,TZTDT,16,2,746,Correct,0,914
4,JYJGJ,16,2,672,Correct,0,888
4,DYDYD,15,2,913,False,0,653
4,LTLCL,16,2,719,Correct,0,894
4,FQFEF,16,2,707,Correct,0,916
AT Practice
1,TKTKT,15,,,False,0,773
1,SLSUS,16,2,1181,Correct,0,756
1,VZVGV,7,3,1069,Correct,0,932
1,XWXZX,7,2,780,False,0,761
1,ATATA,15,1,1262,Correct,0,881
1,HXZMH,16,3,562,False,0,764
1,TZTZT,7,2,813,False,0,934
1,UOUOU,15,1,1172,Correct,0,748
1,ZTWAW,16,3,608,False,0,671
1,RZRER,7,1,847,False,0,725
2,JYJDJ,16,1,1231,False,0,696
2,DWDWD,15,2,1042,False,0,833
2,GNGNG,7,1,996,False,0,684
2,NEZEZ,16,3,1456,False,0,892
2,RNROR,7,1,1198,False,0,784
2,QTQNQ,7,3,917,Correct,0,744
2,HOHON,15,2,708,False,0,877
2,KPKGK,16,3,1199,False,0,816
2,DRDED,16,2,1125,Correct,0,861
2,LNLNL,7,3,960,Correct,0,760
4,GLGLG,15,2,1367,False,0,793
4,DTDID,16,2,934,Correct,0,826
4,SMSGS,16,2,1395,Correct,0,895
4,ZFZYZ,7,,,False,0,940
4,TSTFT,7,3,1060,Correct,0,868
4,OFOFO,7,3,849,Correct,0,754
4,WYFGW,16,2,1225,Correct,0,662
4,WYWYW,15,3,1374,False,0,877
4,MFMCM,7,,,False,0,797
4,HQHEH,16,2,1169,Correct,0,844
1,TKTKT,15,2,1410,False,0,763
1,SLSUS,16,2,1157,Correct,0,650
1,VZVGV,7,3,1298,Correct,0,713
1,XWXZX,7,3,1202,Correct,0,838
1,ATATA,15,1,1347,Correct,0,914
1,HXZMH,16,3,1001,False,0,661
1,TZTZT,7,3,836,Correct,0,854
1,UOUOU,15,1,932,Correct,0,916
1,ZTWAW,16,3,1108,False,0,769
1,RZRER,7,2,1374,False,0,827
2,JYJDJ,16,,,False,0,851
2,DWDWD,15,1,1014,Correct,0,789
2,GNGNG,7,1,1255,False,0,670
2,NEZEZ,16,1,1534,Correct,0,769
2,RNROR,7,3,936,Correct,0,779
2,QTQNQ,7,3,797,Correct,0,686
2,HOHON,15,2,1075,False,0,822
2,KPKGK,16,2,990,Correct,0,823
2,DRDED,16,2,1084,Correct,0,822
2,LNLNL,7,3,819,Correct,0,891
4,GLGLG,15,1,1213,Correct,0,728
4,DTDID,16,2,966,Correct,0,707
4,SMSGS,16,2,1128,Correct,0,744
4,ZFZYZ,7,3,832,Correct,0,848
4,TSTFT,7,3,1003,Correct,0,674
4,OFOFO,7,3,715,Correct,0,698
4,WYFGW,16,2,865,Correct,0,925
4,WYWYW,15,1,815,Correct,0,884
4,MFMCM,7,1,967,False,0,764
4,HQHEH,16,2,759,Correct,0,768
Trials
1,D,5,3,40156,New Target,1,879
1,ZNZYZ,161,1,1320,Incorrect,1,882
1,FZFZF,151,1,1131,Correct,1,886
1,RKRKR,152,1,812,Correct,1,675
1,RXRNR,161,1,638,Incorrect,1,943
1,CNCFC,162,1,509,Incorrect,1,849
1,PDPDP,7,3,887,Correct,1,656
1,CPCFC,14,1,863,Incorrect,1,764
1,VLVNV,162,1,877,Incorrect,1,664
1,KFKFK,151,20,704,Incorrect,1,905
1,ZNZNZ,152,1,745,Correct,1,925
1,KCKPD,235,1,785,Incorrect,1,897
1,ZKZFZ,222,1,911,Incorrect,1,728
1,NRNZN,162,1,816,Incorrect,1,913
1,KXKRK,163,1,1078,Incorrect,1,839
1,YPYZY,164,1,642,Incorrect,1,909
1,FKDKF,223,1,1023,Correct,1,864
1,RPRPR,113,20,722,Incorrect,1,792
1,VRVKV,161,1,1068,Incorrect,1,838
1,RFRPR,162,1,702,Incorrect,1,766
1,KVKVK,151,1,604,Correct,1,747
1,YKYVY,161,1,754,Incorrect,1,673
1,VDVDV,8,3,781,Correct,1,816
1,DVZVZ,221,20,1155,Incorrect,1,920
1,YFYFY,113,20,896,Incorrect,1,748
1,ZYZYZ,152,20,833,Incorrect,1,948
1,VLVXV,161,1,780,Incorrect,1,683
1,DPXZX,231,1,743,Incorrect,1,737
1,RYRYR,113,1,702,Correct,1,947
1,PDPNP,91,3,985,Correct,1,848
1,KXKXK,13,20,1353,Incorrect,1,914
1,ZYZYZ,152,20,791,Incorrect,1,916
1,VKVKV,153,20,710,Incorrect,1,659
1,YZYZY,154,20,740,Incorrect,1,768
1,NLNZN,161,1,831,Incorrect,1,814
1,ZNDYZ,233,1,1079,Incorrect,1,823
1,PCPXP,222,1,787,Incorrect,1,856
1,ZVZFZ,162,1,698,Incorrect,1,910
1,RCRZR,163,1,744,Incorrect,1,768
1,LRLRL,151,3,899,Incorrect,1,837
1,ZDZDZ,10,3,871,Correct,1,911
1,RNRZR,14,1,936,Incorrect,1,850
1,CXCYC,162,,,Incorrect,1,696
1,RCRLR,163,1,609,Incorrect,1,694
1,FRFRF,151,20,630,Incorrect,1,677
1,XFXFX,152,20,859,Incorrect,1,685
1,RPRLR,161,1,701,Incorrect,1,911
1,YXYRY,162,1,793,Incorrect,1,842
1,FYFYF,151,20,1076,Incorrect,1,876
1,YZYVY,161,1,1092,Incorrect,1,741
1,YKYKY,151,20,947,Incorrect,1,749
1,XRXRX,152,20,933,Incorrect,1,871
1,XVXZX,161,1,764,Incorrect,1,710
1,PDPDP,11,20,733,Incorrect,1,672
1,ZFZFZ,13,20,1447,Incorrect,1,872
1,PXPXP,152,20,870,Incorrect,1,799
1,LYLYL,153,20,1002,Incorrect,1,893
1,NKNKD,225,20,973,Incorrect,1,798
1,ZNZNZ,113,20,1249,Incorrect,1,760
1,PYPZP,161,1,893,Incorrect,1,708
1,XPXPX,151,20,1393,Incorrect,1,889
1,VLVLV,152,20,1278,Incorrect,1,895
1,PKPXP,161,1,887,Incorrect,1,783
1,FZFZF,151,20,744,Incorrect,1,948
1,LDLDL,12,3,708,Correct,1,810
2,U,5,3,5135,New Target,2,816
2,ZVZFZ,161,1,1453,Incorrect,2,914
2,FZFZF,151,20,801,Incorrect,2,731
2,RFRFR,152,20,1028,Incorrect,2,950
2,NZNKN,161,1,1446,Incorrect,2,807
2,FZFNF,162,1,1191,Incorrect,2,842
2,RXRXR,151,20,912,Incorrect,2,799
2,KRKYK,161,1,1493,Incorrect,2,779
2,NZNPN,162,1,792,Incorrect,2,692
2,XPXPX,151,20,787,Incorrect,2,742
2,CUCUC,7,3,867,Correct,2,684
2,RFRFR,13,,,Incorrect,2,764
2,VYVXV,161,1,844,Incorrect,2,665
2,VDVDV,191,,,Incorrect,2,682
2,ZKZRZ,15,1,1476,Incorrect,2,805
2,XCXCX,151,20,1361,Incorrect,2,926
2,CNCUC,82,1,947,Incorrect,2,890
2,RCRCR,13,20,1076,Incorrect,2,865
2,ZPZXZ,161,1,889,Incorrect,2,666
2,FKFYF,162,1,1040,Incorrect,2,779
2,ZFZYZ,163,1,914,Incorrect,2,726
2,PXPXP,151,20,1143,Incorrect,2,760
2,URCKC,231,1,1206,Incorrect,2,823
2,PCPCP,113,20,860,Incorrect,2,850
2,XNXNX,152,20,1037,Incorrect,2,919
2,RCRZR,161,1,969,Incorrect,2,884
2,XVXVX,151,20,1177,Incorrect,2,846
2,NRNRN,152,20,1135,Incorrect,2,934
2,FPFPF,225,20,1073,Incorrect,2,697
2,XVXFX,222,1,1522,Incorrect,2,755
2,PRPRP,151,20,990,Incorrect,2,862
2,FYFCF,161,1,769,Incorrect,2,775
2,XUXFX,91,3,859,Correct,2,846
2,CYCVC,14,1,1159,Incorrect,2,698
2,VDVKV,172,1,964,Incorrect,2,764
2,YCYCY,15,20,1129,Incorrect,2,762
2,NKNLN,161,1,1224,Incorrect,2,739
2,XPUKX,233,20,1459,Incorrect,2,723
2,ZPZPZ,113,,,Incorrect,2,753
2,KRKRK,152,20,1437,Incorrect,2,947
2,XKXKX,153,20,1050,Incorrect,2,928
2,YUYVY,101,20,1225,Incorrect,2,789
2,XKXFU,235,1,1153,Incorrect,2,874
2,NFNFN,113,20,889,Incorrect,2,928
2,KDKDK,193,20,797,Incorrect,2,830
2,XYXKX,16,1,1096,Incorrect,2,793
2,YZUZY,223,20,885,Incorrect,2,880
2,KFKVK,222,1,872,Incorrect,2,899
2,LYLYL,151,20,1059,Incorrect,2,690
2,CXCDC,184,1,959,Correct,2,893
2,XZXNX,16,1,942,Incorrect,2,919
2,PXPXP,151,20,822,Incorrect,2,683
2,ZRZYZ,161,1,784,Incorrect,2,786
2,PUPYP,111,3,621,Correct,2,673
2,RNRNR,14,20,795,Incorrect,2,890
2,KDKDK,195,20,722,Incorrect,2,909
2,KNKNK,15,20,704,Incorrect,2,715
2,PRPKP,161,1,915,Incorrect,2,650
2,UNYNY,221,20,659,Incorrect,2,869
2,NYNYN,113,20,800,Incorrect,2,807
2,YXYXY,152,20,841,Incorrect,2,846
2,RDRDR,196,20,721,Incorrect,2,765
2,FCFCF,15,20,642,Incorrect,2,726
2,ZKZKZ,152,20,715,Incorrect,2,947
2,ZUZUZ,12,3,862,Correct,2,666
3,E,5,3,4671,New Target,3,675
3,YZYZY,151,1,1527,Correct,3,751
3,VFVNV,161,2,1288,Correct,3,690
3,KYKYK,151,1,1140,Correct,3,688
3,NKNKN,152,2,1009,Incorrect,3,804
3,XVXNX,161,2,957,Correct,3,901
3,RERFR,71,3,784,Correct,3,805
3,XNXNX,13,1,767,Correct,3,650
3,NXNXN,152,1,1039,Correct,3,673
3,ZLZNZ,161,2,844,Correct,3,900
3,CUCNC,171,2,855,Correct,3,668
3,FYFRF,16,2,930,Correct,3,694
3,ZLZLZ,151,1,802,Correct,3,925
3,YZYZY,152,1,759,Correct,3,868
3,CYCYC,153,1,702,Correct,3,926
3,VUVUV,192,1,695,Correct,3,894
3,PXPRP,16,1,810,Incorrect,3,705
3,YPYPY,151,1,998,Correct,3,714
3,CECEC,8,3,937,Correct,3,765
3,VNENV,223,1,1023,Correct,3,809
3,KRKFK,222,2,1069,Correct,3,917
3,XLXLE,225,1,870,Correct,3,907
3,RFRUR,183,2,1562,Correct,3,880
3,XRXLX,16,2,840,Correct,3,746
3,NZNPN,162,2,1069,Correct,3,875
3,XZXZX,151,1,745,Correct,3,860
3,FZFZF,152,1,998,Correct,3,721
3,PFPFP,153,2,1313,Incorrect,3,938
3,YZYXY,161,2,1066,Correct,3,652
3,KEKEK,9,3,931,Correct,3,920
3,CXCPC,14,2,1015,Correct,3,831
3,VXVXV,151,1,907,Correct,3,673
3,NUNZN,174,2,1003,Correct,3,897
3,RKRVR,16,2,1457,Correct,3,709
3,XRXRX,151,1,1323,Correct,3,931
3,ERNFN,231,1,1210,Correct,3,932
3,YRYNY,222,2,884,Correct,3,789
3,PZPEP,102,3,975,Correct,3,713
3,ZYZXZ,14,2,1191,Correct,3,661
3,RZRVR,162,2,942,Correct,3,920
3,XRXRX,151,1,1459,Correct,3,798
3,KUKFK,175,2,1181,Correct,3,920
3,RKRKR,15,1,981,Correct,3,852
3,ZFZFZ,152,1,1064,Correct,3,725
3,YZYVY,161,2,1062,Correct,3,791
3,XPXNX,162,2,1089,Correct,3,901
3,YRYRY,151,1,1477,Correct,3,657
3,EPVPV,221,,,Incorrect,3,765
3,CRCEC,112,3,1367,Correct,3,686
3,RFRCR,14,2,1406,Correct,3,709
3,CPCVC,162,,,Incorrect,3,666
3,RXRCR,163,2,755,Correct,3,736
3,VNVLV,164,2,732,Correct,3,887
3,ZXZXZ,151,2,675,Incorrect,3,900
3,ZCZCZ,152,1,781,Correct,3,922
3,PYPUP,186,2,883,Correct,3,929
3,YKYPY,16,2,647,Correct,3,869
3,YREXY,233,2,1331,Correct,3,899
3,ZKZKZ,113,1,1255,Correct,3,777
3,XLXNX,161,2,857,Correct,3,936
3,KFKRE,235,2,1084,Correct,3,945
3,RXRLR,222,2,1190,Correct,3,931
3,RERXR,121,3,1027,Correct,3,693
4,J,5,3,3800,New Target,4,937
4,CYCVC,161,2,1263,Correct,4,651
4,RXRCR,162,2,765,Correct,4,671
4,FPFVF,163,2,791,Correct,4,836
4,LZLZL,151,2,1187,Incorrect,4,725
4,PLPLP,152,,,Incorrect,4,890
4,NPNPN,153,,,Incorrect,4,907
4,XZXZX,161,3,1226,Incorrect,4,910
4,CNCKC,162,2,1345,Correct,4,830
4,PCPYJ,235,2,1000,Correct,4,768
4,VYVYV,113,3,1405,Incorrect,4,679
4,RLRLR,152,1,1004,Correct,4,874
4,CJCJC,7,3,1564,Correct,4,818
4,ZLZLZ,13,1,1160,Correct,4,768
4,FZFZF,152,,,Incorrect,4,853
4,CFCFC,153,1,1286,Correct,4,910
4,PZPZP,154,1,779,Correct,4,894
4,XEXEX,191,1,759,Correct,4,782
4,NVNFN,16,2,803,Correct,4,786
4,KYKYK,151,1,1101,Correct,4,684
4,ZNZVZ,161,,,Incorrect,4,830
4,YVJXY,233,2,965,Correct,4,890
4,XFXFX,113,1,1227,Correct,4,662
4,XNXNX,152,,,Incorrect,4,863
4,FJFKF,81,3,1190,Correct,4,929
4,CZCYC,14,,,Incorrect,4,832
4,ZXZCZ,162,2,743,Correct,4,864
4,RYRYJ,225,2,856,Incorrect,4,686
4,FPFZF,222,2,867,Correct,4,701
4,XRXRX,151,1,1421,Correct,4,748
4,YPYEY,182,2,893,Correct,4,904
4,XRXRX,15,1,790,Correct,4,826
4,XZXPX,161,2,940,Correct,4,886
4,CJCJC,9,3,867,Correct,4,729
4,ZXZVZ,14,2,910,Correct,4,702
4,VKVKV,151,1,1395,Correct,4,792
4,VEVNV,173,2,952,Correct,4,792
4,ZKZVZ,16,2,967,Correct,4,938
4,XVXJX,102,,,Incorrect,4,914
4,RXRVR,14,2,1093,Correct,4,696
4,LRLRL,151,1,800,Correct,4,846
4,YNJNY,223,,,Incorrect,4,798
4,NPNJN,222,3,1201,Incorrect,4,908
4,ZEZEZ,194,1,732,Correct,4,754
4,ZNZNZ,15,1,920,Correct,4,769
4,YZYZY,152,1,732,Correct,4,799
4,XYXYX,153,1,709,Correct,4,823
4,ZXZXZ,221,1,743,Correct,4,708
4,LYLZL,222,2,881,Correct,4,858
4,CYCNC,162,2,1144,Correct,4,820
4,XEXEX,195,1,1395,Correct,4,894
4,CVCXC,16,2,882,Correct,4,918
4,ZPZXZ,162,2,868,Correct,4,930
4,FZFZF,151,1,971,Correct,4,815
4,RXRJR,112,3,1087,Correct,4,740
4,PRPFP,14,2,991,Correct,4,720
4,PKPEP,186,2,926,Correct,4,837
4,XZXPX,16,2,1329,Correct,4,834
4,JCZVZ,231,2,1170,Correct,4,891
4,RXRLR,222,2,1081,Correct,4,917
4,VZVZV,151,1,1015,Correct,4,842
4,XJXJX,12,3,946,Correct,4,926
5,I,5,3,7490,New Target,5,754
5,PCPCP,151,1,1266,Correct,5,662
5,XYXYX,152,1,1575,Correct,5,823
5,VXVXV,153,1,863,Correct,5,934
5,XVXVX,154,1,729,Correct,5,779
5,ZRZXZ,161,2,899,Correct,5,838
5,FPFZF,162,2,749,Correct,5,666
5,ZYZYZ,151,1,1117,Correct,5,704
5,RVRZR,161,2,1263,Correct,5,675
5,CICIC,7,3,794,Correct,5,674
5,XLXLX,13,1,1114,Correct,5,697
5,YVYVY,152,1,950,Correct,5,844
5,CJCJC,191,,,Incorrect,5,811
5,FNFCF,16,2,926,Correct,5,937
5,PVPRP,162,2,935,Correct,5,708
5,FZFZF,151,1,1234,Correct,5,653
5,NVIVN,223,1,1062,Correct,5,855
5,CVCIC,82,3,1563,Correct,5,692
5,ZXZXZ,13,1,1411,Correct,5,873
5,FCFZF,161,2,740,Correct,5,765
5,IXRXR,221,1,1316,Correct,5,670
5,ZPZNZ,222,2,816,Correct,5,665
5,VZVZV,151,1,798,Correct,5,699
5,YRYNY,161,2,1324,Correct,5,696
5,VNVPV,162,2,1012,Correct,5,738
5,RVRJR,182,2,1574,Correct,5,895
5,VRVRV,15,1,815,Correct,5,783
5,VIVIV,9,3,1316,Correct,5,898
5,CXCVC,14,2,778,Correct,5,791
5,PZPZP,151,1,793,Correct,5,714
5,IXVKV,231,2,1365,Correct,5,777
5,YJYCY,173,2,904,Incorrect,5,850
5,VYVYV,15,1,939,Correct,5,836
5,YVYVY,152,1,745,Correct,5,925
5,NVNVN,153,1,898,Correct,5,945
5,XYXVX,161,2,953,Correct,5,750
5,NJNCN,174,2,1530,Correct,5,864
5,NXNYN,16,2,1254,Correct,5,813
5,VXVCV,162,2,956,Correct,5,866
5,ZKZKZ,151,1,830,Correct,5,786
5,XRXYX,161,2,1113,Correct,5,729
5,ZCZXZ,162,2,779,Correct,5,710
5,KVKYI,235,2,996,Correct,5,888
5,CNCNC,113,1,873,Correct,5,691
5,RIRIR,10,3,1204,Correct,5,686
5,VYVXV,14,2,1184,Correct,5,727
5,FXIRF,233,,,Incorrect,5,831
5,PFPFP,113,1,1145,Correct,5,687
5,VPVPV,152,1,703,Correct,5,949
5,ZJZJZ,195,1,1047,Correct,5,914
5,ZVZNZ,16,2,963,Correct,5,932
5,YVYXY,162,2,981,Correct,5,848
5,PRPRP,151,1,1033,Correct,5,715
5,YPYPY,152,1,679,Correct,5,828
5,ZIZPZ,111,3,1201,Correct,5,898
5,NKNXN,14,2,1304,Correct,5,841
5,RZRXR,162,2,1378,Correct,5,667
5,RXRXR,151,,,Incorrect,5,914
5,ZJZJZ,196,2,1003,Incorrect,5,804
5,CVCVI,225,1,974,Incorrect,5,736
5,NKNKN,113,1,1007,Correct,5,812
5,NRNZN,161,2,890,Correct,5,941
5,CNCNC,151,1,927,Correct,5,828
5,RFRIR,122,3,916,Correct,5,788
6,B,5,3,12278,New Target,6,879
6,YKYZY,161,,,Incorrect,6,740
6,VCVRV,162,2,727,Correct,6,751
6,XVXVX,151,1,1107,Correct,6,827
6,KZKRK,161,2,1026,Correct,6,770
6,ZVZXZ,162,2,943,Correct,6,865
6,RCRNR,163,2,902,Correct,6,694
6,CXCRC,164,2,1046,Correct,6,905
6,VNBCV,233,2,1196,Correct,6,686
6,CXCVC,222,2,954,Correct,6,680
6,RFRFR,151,1,1483,Correct,6,813
6,XPXRX,161,2,1390,Correct,6,687
6,RYRBR,72,3,1316,Correct,6,770
6,ZKZKZ,13,1,1005,Correct,6,730
6,FIFRF,171,2,1243,Correct,6,930
6,VZVLV,16,2,1015,Correct,6,711
6,RPRVR,162,2,1184,Correct,6,653
6,YBYBY,8,3,921,Correct,6,805
6,PYPVP,14,,,Incorrect,6,749
6,NININ,192,1,1049,Correct,6,901
6,RNRNR,15,1,1350,Correct,6,850
6,NXNVN,161,2,1343,Correct,6,724
6,RNRNR,151,1,902,Correct,6,761
6,FRFVF,161,2,1049,Correct,6,883
6,YVYFB,235,2,1331,Incorrect,6,950
6,ZRZXZ,222,2,1129,Correct,6,779
6,VNVIV,193,,,Incorrect,6,726
6,PXPNP,16,2,944,Correct,6,842
6,ZXZPZ,162,2,919,Correct,6,775
6,VBVBV,9,3,641,Correct,6,707
6,CXCXC,13,1,990,Correct,6,880
6,PCPFP,161,2,802,Correct,6,731
6,KNKNK,151,1,1211,Correct,6,833
6,XIXIX,194,1,1184,Correct,6,929
6,CYCYC,15,,,Incorrect,6,701
6,FVFYF,161,2,947,Correct,6,948
6,YNYRY,162,2,902,Correct,6,850
6,BVPXP,231,2,704,Correct,6,655
6,NXNXN,113,1,1098,Correct,6,913
6,FRFRF,152,1,900,Correct,6,867
6,YVYVY,153,1,734,Correct,6,668
6,ZKZCZ,161,2,783,Correct,6,685
6,VIVXV,175,2,1189,Correct,6,855
6,PRBRP,223,,,Incorrect,6,705
6,YZYBY,102,,,Incorrect,6,653
6,CXCVC,14,2,1261,Correct,6,906
6,FYFYF,151,1,788,Correct,6,883
6,VKVXV,161,2,1168,Correct,6,760
6,ZBZBZ,11,3,830,Correct,6,701
6,FPFNF,14,2,878,Correct,6,718
6,CXCXC,151,1,1459,Correct,6,734
6,YCYCY,152,1,722,Correct,6,859
6,FPFPF,153,1,1326,Correct,6,823
6,CVCVB,225,1,912,Correct,6,923
6,ZCZCZ,113,1,835,Correct,6,867
6,CZCNC,161,2,731,Correct,6,837
6,KIKFK,176,2,839,Correct,6,817
6,PXPXP,15,1,1182,Correct,6,863
6,RYRYR,152,,,Incorrect,6,786
6,ZRZCZ,161,,,Incorrect,6,689
6,RVRVR,151,1,1542,Correct,6,716
6,XYXNX,161,,,Incorrect,6,901
6,BVKVK,221,1,795,Correct,6,803
6,CBCBC,12,3,865,Correct,6,917
7,W,5,3,21199,New Target,7,712
7,RKRKR,151,,,Incorrect,7,948
7,CVCRC,161,2,922,Correct,7,677
7,PKPKP,151,1,957,Correct,7,795
7,FPFPF,152,1,1245,Correct,7,919
7,VRVPV,161,2,991,Correct,7,941
7,ZKZYZ,162,2,1567,Correct,7,818
7,PVPCP,233,2,891,Correct,7,822
7,KVKVK,113,3,1037,Incorrect,7,886
7,YXYVY,161,2,961,Correct,7,672
7,FNFNF,151,1,770,Correct,7,912
7,YWYWY,7,3,985,Correct,7,876
7,ZYZYZ,13,1,955,Correct,7,775
7,PYPYP,152,1,465,Correct,7,706
7,XRXRX,153,,,Incorrect,7,862
7,PXPXP,154,1,820,Correct,7,659
7,FCFBF,181,2,1567,Correct,7,773
7,FVFVF,15,1,1544,Correct,7,890
7,CYCZC,161,2,1082,Correct,7,692
7,XZXVX,162,2,1288,Correct,7,850
7,PFPFP,151,1,1591,Correct,7,950
7,RVRLR,161,2,1576,Correct,7,691
7,ZBZBZ,192,1,1537,Correct,7,848
7,VCVNV,16,2,1328,Correct,7,830
7,NWNWN,8,3,1481,Correct,7,735
7,XNXVX,14,2,1000,Correct,7,767
7,CXCNC,162,,,Incorrect,7,668
7,YVYVW,225,1,1556,Correct,7,849
7,VFVFV,113,1,1117,Correct,7,943
7,VFWFV,223,1,939,Correct,7,764
7,CVCFC,222,2,1344,Correct,7,792
7,YBYBY,193,1,740,Correct,7,873
7,PYPYP,15,1,734,Correct,7,862
7,NKNWN,91,3,1478,Correct,7,912
7,VNVNV,13,,,Incorrect,7,950
7,RVRVR,152,1,1402,Correct,7,763
7,FVFBF,184,2,1101,Incorrect,7,808
7,VZVKV,16,,,Incorrect,7,949
7,VPVCV,162,2,771,Correct,7,743
7,WYZCZ,231,,,Incorrect,7,894
7,PFPFP,113,,,Incorrect,7,766
7,PRPRP,152,1,1485,Correct,7,869
7,NWNWN,10,3,1034,Correct,7,845
7,VKVCV,14,2,957,Correct,7,741
7,WPYPY,221,1,1293,Correct,7,931
7,VBVBV,195,1,1044,Correct,7,804
7,ZKZYZ,16,2,1012,Correct,7,837
7,XYXYX,151,1,1173,Correct,7,841
7,FZFXF,161,2,854,Correct,7,678
7,XKXKX,151,1,778,Correct,7,806
7,XPXPX,152,1,818,Correct,7,851
7,FWFWF,11,3,1080,Correct,7,901
7,FNFBF,186,2,968,Correct,7,718
7,ZVZYZ,16,2,1071,Correct,7,658
7,FZFZF,151,1,1499,Correct,7,904
7,NPNFW,235,2,992,Correct,7,684
7,PCPCP,113,1,837,Correct,7,725
7,NKNWN,122,,,Incorrect,7,918
8,M,5,3,25198,New Target,8,656
8,VYVNV,161,2,1367,Correct,8,710
8,KLKNK,162,2,1159,Correct,8,898
8,NRNRN,151,1,1253,Correct,8,734
8,VNVFV,161,2,954,Correct,8,909
8,XNXNM,225,1,1229,Correct,8,861
8,CXCVC,222,2,945,Correct,8,919
8,KRKZK,162,2,1013,Correct,8,812
8,NMNFN,71,,,Incorrect,8,775
8,ZFZFZ,13,1,709,Correct,8,681
8,YPYCY,161,,,Incorrect,8,890
8,KCKCK,151,1,806,Correct,8,946
8,VNVNV,152,1,1056,Correct,8,743
8,LXLXL,153,1,1312,Correct,8,775
8,CLCLC,154,1,836,Correct,8,834
8,NYNYN,155,,,Incorrect,8,766
8,LCMYL,233,2,1262,Correct,8,667
8,NCNCN,113,2,1401,Incorrect,8,714
8,ZVZRZ,161,2,939,Correct,8,863
8,ZVZVZ,151,,,Incorrect,8,737
8,PZPVP,161,2,942,Correct,8,746
8,PWPNP,171,,,Incorrect,8,785
8,KLKCM,235,2,1019,Correct,8,883
8,XMXMX,8,3,984,Correct,8,948
8,PRPXP,14,2,953,Correct,8,844
8,CVCYC,162,2,1102,Correct,8,770
8,PXPMP,92,3,960,Correct,8,702
8,ZCZLZ,14,2,872,Correct,8,720
8,XWXWX,192,,,Incorrect,8,755
8,ZCZLZ,16,2,831,Correct,8,711
8,MNCYC,231,2,909,Correct,8,660
8,ZXZXZ,113,1,1101,Correct,8,917
8,YRYNY,161,2,848,Correct,8,714
8,ZLZPZ,162,2,803,Correct,8,879
8,VZVZV,151,1,1370,Correct,8,883
8,MXPXP,221,1,1103,Correct,8,741
8,VWVWV,193,1,1576,Correct,8,908
8,PYPYP,16,1,962,Incorrect,8,894
8,XPXVX,162,2,1018,Correct,8,675
8,XLXLX,151,1,992,Correct,8,678
8,YMYMY,10,3,623,Correct,8,893
8,VYVYV,13,1,1336,Correct,8,933
8,PWPZP,174,2,1067,Correct,8,805
8,PYPKP,16,,,Incorrect,8,730
8,NPNXN,162,2,1157,Correct,8,695
8,KVKVK,223,2,608,Incorrect,8,656
8,NVNFN,222,2,985,Correct,8,882
8,XNXNX,151,1,1542,Correct,8,787
8,YZYMY,112,3,1509,Correct,8,656
8,PFPFP,13,,,Incorrect,8,661
8,ZWZWZ,195,2,890,Incorrect,8,747
8,PCPZP,16,2,895,Correct,8,756
8,LRLPL,162,2,922,Correct,8,885
8,CZCZC,151,1,907,Correct,8,723
8,NZNZN,152,1,1166,Correct,8,661
8,CVCXC,161,2,938,Correct,8,707
8,XCXCX,151,1,932,Correct,8,864
8,YWYWY,196,1,1159,Correct,8,687
8,NLNLN,15,1,900,Correct,8,653
8,VNVNV,152,1,1072,Correct,8,926
8,ZMZMZ,12,3,935,Correct,8,913
9,S,5,3,1040,New Target,9,708
9,NZNZN,151,1,1259,Correct,9,768
9,KVKZK,161,2,836,Correct,9,694
9,LZLZL,151,1,1089,Correct,9,946
9,XLXLX,152,1,789,Correct,9,914
9,ZXZXZ,153,1,796,Correct,9,737
9,KNKZK,161,2,1027,Correct,9,747
9,NRNYN,162,2,1017,Correct,9,925
9,CLCVC,163,2,998,Correct,9,711
9,ZCZFZ,164,2,1279,Correct,9,907
9,NSNSN,7,3,677,Correct,9,659
9,VZVZV,13,1,687,Correct,9,798
9,NVNCN,161,2,837,Correct,9,889
9,VMVMV,191,2,1414,Incorrect,9,787
9,CVCXC,16,2,869,Correct,9,734
9,ZYZRZ,162,2,818,Correct,9,890
9,XNXZX,163,2,923,Correct,9,674
9,PXPXP,151,1,1227,Correct,9,774
9,VCVSV,82,3,920,Correct,9,655
9,PRPCP,14,2,1165,Correct,9,712
9,ZMZMZ,192,3,1375,Incorrect,9,948
9,ZFZFZ,15,,,Incorrect,9,810
9,FCFCF,152,1,1090,Correct,9,798
9,YLYZY,161,2,1291,Correct,9,811
9,KNKVK,162,2,1021,Correct,9,895
9,SFPCP,231,2,1371,Correct,9,731
9,RPRPR,113,,,Incorrect,9,712
9,XMXMX,193,,,Incorrect,9,657
9,KFKFK,15,1,1261,Correct,9,893
9,VSVSV,9,3,963,Correct,9,768
9,YVSVY,223,1,1372,Correct,9,913
9,VPVPV,113,1,1023,Correct,9,775
9,XZXZX,152,1,822,Correct,9,887
9,KZKXK,161,2,1132,Correct,9,678
9,RFRPR,162,2,1461,Correct,9,756
9,NVNVS,225,1,1043,Correct,9,781
9,ZXZXZ,113,1,1149,Correct,9,813
9,SRVRV,221,1,1326,Correct,9,948
9,YCYCY,113,1,905,Correct,9,913
9,KMKZK,174,2,1577,Correct,9,870
9,FZSVF,233,2,1036,Correct,9,832
9,VYVYV,113,1,1026,Correct,9,948
9,LVLVL,152,1,953,Correct,9,944
9,YFYFY,153,1,795,Correct,9,665
9,NXNSN,102,2,1107,Incorrect,9,743
9,FNFCF,14,2,991,Correct,9,684
9,KVKVK,151,1,937,Correct,9,823
9,VZVCV,161,2,868,Correct,9,840
9,ZYZMZ,185,2,1339,Correct,9,679
9,VXVZV,16,2,1545,Correct,9,905
9,VPVPV,151,1,929,Correct,9,700
9,RVRNS,235,2,1474,Correct,9,850
9,YZYZY,113,1,1034,Correct,9,871
9,ZSZSZ,11,3,680,Correct,9,774
9,FRFRF,13,1,1073,Correct,9,791
9,ZMZMZ,196,,,Incorrect,9,674
9,NZNXN,16,,,Incorrect,9,937
9,LSLFL,121,3,1081,Correct,9,750
10,Q,5,3,24689,New Target,10,744
10,ZVZPZ,161,2,1196,Correct,10,888
10,RZRZR,151,1,894,Correct,10,914
10,ZFZFZ,152,1,1455,Correct,10,745
10,RZRZR,153,1,1278,Correct,10,671
10,PZPXP,161,2,1262,Correct,10,914
10,VFQPV,233,2,884,Correct,10,699
10,ZPZRZ,222,2,758,Correct,10,805
10,CYCVC,162,2,744,Correct,10,795
10,CPCPC,151,1,1310,Correct,10,864
10,YZYQY,72,,,Incorrect,10,688
10,FVFXF,14,2,1051,Correct,10,661
10,YNYNQ,225,1,1386,Correct,10,806
10,ZYZYZ,113,,,Incorrect,10,825
10,FRFSF,181,2,1019,Incorrect,10,849
10,XNXPX,16,,,Incorrect,10,918
10,NXNXN,151,2,1225,Incorrect,10,852
10,PVPZP,161,2,891,Correct,10,829
10,XVXPX,162,2,894,Correct,10,753
10,FXFVF,163,2,888,Correct,10,911
10,NSNKN,172,,,Incorrect,10,926
10,VXVNV,16,2,991,Correct,10,743
10,XZXZX,151,,,Incorrect,10,659
10,VQVQV,8,3,632,Correct,10,917
10,ZYZPZ,14,2,1050,Correct,10,678
10,PZPSP,183,2,1045,Correct,10,737
10,YVYVY,15,,,Incorrect,10,701
10,NCNQN,92,3,1292,Correct,10,840
10,FCFVF,14,2,1497,Correct,10,931
10,ZFZFZ,151,1,791,Correct,10,730
10,NSNSN,194,,,Incorrect,10,901
10,YPYFY,16,2,811,Correct,10,906
10,ZKZKZ,151,1,734,Correct,10,744
10,QZRCR,231,2,476,Correct,10,672
10,YPYVY,222,2,1116,Correct,10,888
10,ZNZNZ,151,1,584,Correct,10,766
10,VQVQV,10,3,880,Correct,10,880
10,RVRZR,14,2,886,Correct,10,726
10,KRKSK,185,2,1051,Correct,10,653
10,NPNPN,15,1,1060,Correct,10,816
10,YPYPY,152,1,735,Correct,10,860
10,VCVYV,161,2,1193,Correct,10,718
10,FPFNF,162,2,923,Correct,10,891
10,QVXVX,221,,,Incorrect,10,738
10,ZVZRZ,222,2,1222,Correct,10,738
10,LFLFL,151,1,790,Correct,10,892
10,VLVLV,152,1,1233,Correct,10,661
10,KXQXK,223,1,884,Correct,10,787
10,YQYQY,11,3,819,Correct,10,843
10,YCYCY,13,1,902,Correct,10,750
10,PZPYP,161,2,942,Correct,10,944
10,LPLFL,162,2,973,Correct,10,915
10,VSVSV,196,1,854,Correct,10,741
10,VFVYQ,235,2,1486,Correct,10,739
10,CZCXC,222,1,1113,Incorrect,10,795
10,PVPCP,162,2,835,Correct,10,770
10,CXCXC,151,1,784,Correct,10,880
10,NZNZN,152,1,990,Correct,10,946
10,YPYCY,161,2,904,Correct,10,928
10,ZQZQZ,12,3,1028,Correct,10,861
11,T,5,3,12487,New Target,11,815
11,KFKFK,151,,,Incorrect,11,940
11,LZLZL,152,1,918,Correct,11,752
11,PFPVP,161,2,888,Correct,11,724
11,FRFPF,162,2,935,Correct,11,918
11,FZFZF,151,,,Incorrect,11,901
11,VTVTV,7,3,758,Correct,11,919
11,KYKCK,14,2,1272,Correct,11,885
11,VPVPV,151,1,1200,Correct,11,753
11,XQXQX,191,,,Incorrect,11,653
11,PZPYP,16,2,927,Correct,11,798
11,KXKLK,162,1,1172,Incorrect,11,691
11,TCNCN,221,1,1051,Correct,11,805
11,PZPNP,222,2,930,Correct,11,874
11,RCRPR,162,2,893,Correct,11,919
11,PZPRT,235,2,813,Correct,11,835
11,XFXVX,222,2,1076,Correct,11,721
11,LTLVL,81,3,1052,Correct,11,886
11,ZCZPZ,14,2,715,Correct,11,680
11,NCNQN,182,,,Incorrect,11,939
11,XZXNX,16,2,1270,Correct,11,712
11,ZPZPZ,151,1,1117,Correct,11,726
11,CFCFC,152,1,1341,Correct,11,934
11,VXTRV,233,,,Incorrect,11,861
11,CFCVC,222,2,1238,Correct,11,671
11,PYPYP,151,1,1098,Correct,11,814
11,FQFYF,173,2,1254,Correct,11,755
11,CNCFC,16,2,980,Correct,11,938
11,PTPTP,9,1,1014,Incorrect,11,663
11,ZCZCZ,13,1,1225,Correct,11,759
11,KZKZK,152,1,1480,Correct,11,860
11,RLRVR,161,2,898,Correct,11,854
11,ZRZKZ,162,2,1022,Correct,11,878
11,KLKLT,225,1,1550,Correct,11,786
11,ZQZQZ,194,1,1317,Correct,11,793
11,VZVZV,15,,,Incorrect,11,763
11,RVRZR,161,2,894,Correct,11,782
11,ZPZCZ,162,2,1544,Correct,11,935
11,VYVYV,151,1,750,Correct,11,835
11,RVRVR,152,1,959,Correct,11,902
11,PTPTP,10,1,781,Incorrect,11,885
11,PXPXP,13,1,1476,Correct,11,765
11,KCKCK,152,1,671,Correct,11,892
11,YVYVY,153,1,692,Correct,11,905
11,CYCYC,154,1,875,Correct,11,854
11,XCXCX,155,1,1055,Correct,11,794
11,CYCQC,185,2,1125,Correct,11,816
11,KCKNK,16,2,1010,Correct,11,678
11,VPVPV,151,1,946,Correct,11,733
11,TXFZF,231,2,752,Correct,11,806
11,NYNVN,222,2,1178,Correct,11,737
11,VQVXV,176,2,827,Correct,11,902
11,ZRZRZ,15,,,Incorrect,11,698
11,VTVZV,111,3,867,Correct,11,868
11,PXPVP,14,2,834,Correct,11,830
11,FVFVF,151,1,1299,Correct,11,910
11,VRVLV,161,2,1141,Correct,11,737
11,YCYCY,151,1,894,Correct,11,726
11,XZTZX,223,1,826,Correct,11,946
11,VTVTV,12,3,911,Correct,11,712
12,O,5,3,23046,New Target,12,881
12,VXVLV,161,2,1532,Correct,12,702
12,KVKCK,162,2,1220,Correct,12,727
12,VLVLV,151,1,898,Correct,12,933
12,ZCZVZ,161,2,1430,Correct,12,713
12,KFKFK,151,1,803,Correct,12,845
12,XKXKX,152,1,1459,Correct,12,825
12,YXYXY,153,1,1069,Correct,12,856
12,FVFVF,154,1,1096,Correct,12,761
12,PVPOP,72,2,1349,Incorrect,12,726
12,ZXZYZ,14,2,1042,Correct,12,926
12,PXPVP,162,2,909,Correct,12,685
12,ZTZTZ,191,1,963,Correct,12,683
12,CVCKC,16,2,928,Correct,12,883
12,CKCKC,151,1,1294,Correct,12,825
12,NPNPN,152,1,915,Correct,12,759
12,ZRZNZ,161,2,1053,Correct,12,902
12,OZCZC,221,1,1368,Correct,12,887
12,LFLFL,113,1,689,Correct,12,932
12,CXCXC,152,1,1187,Correct,12,894
12,KPKPK,153,1,806,Correct,12,825
12,FRFKF,161,2,1363,Correct,12,938
12,FOFOF,8,1,770,Incorrect,12,886
12,ZFZFZ,13,1,1211,Correct,12,664
12,LKLZO,235,2,1471,Correct,12,898
12,KLKZK,222,,,Incorrect,12,656
12,YXYCY,162,2,1016,Correct,12,722
12,LOLOL,9,3,832,Correct,12,920
12,XLXLX,13,1,1152,Correct,12,883
12,XVXVX,152,1,1031,Correct,12,716
12,FTFTF,192,1,1125,Correct,12,830
12,OXNZN,231,2,904,Correct,12,946
12,CZCZC,113,1,709,Correct,12,875
12,LZLZL,152,,,Incorrect,12,733
12,VLVPV,161,2,937,Correct,12,677
12,VYVYO,225,1,786,Correct,12,947
12,XKXKX,113,1,1090,Correct,12,945
12,RTRTR,193,1,824,Correct,12,941
12,KVKCK,16,2,1049,Correct,12,847
12,ROROR,101,3,1180,Correct,12,925
12,PRPRP,13,,,Incorrect,12,731
12,LYLVL,161,2,1086,Correct,12,678
12,PLPLP,151,1,965,Correct,12,937
12,CTCTC,194,1,791,Correct,12,712
12,XZXYX,16,2,949,Correct,12,939
12,NKNKN,151,1,839,Correct,12,736
12,VLVZV,161,2,1162,Correct,12,901
12,YOYOY,11,1,859,Incorrect,12,833
12,PZOZP,223,1,1288,Correct,12,914
12,FYFYF,113,1,933,Correct,12,938
12,ZXZVZ,161,,,Incorrect,12,882
12,VKVZV,162,1,754,Incorrect,12,897
12,ZTZTZ,195,1,780,Correct,12,749
12,LKLZL,16,2,1095,Correct,12,667
12,KCKVK,162,2,815,Correct,12,899
12,PXPKP,163,2,765,Correct,12,908
12,KCOZK,233,2,756,Correct,12,737
12,FKFKF,113,1,1176,Correct,12,885
12,CTCRC,176,2,997,Correct,12,708
12,NXNXN,15,1,1428,Correct,12,686
12,KXKVK,161,,,Incorrect,12,857
12,CPCOC,122,2,1031,Incorrect,12,742
