Trial No,Stimulus,Trigger,Response,Response Time(ms),Correct,Block,Fixation Duration
Practice
OT Practice
1,SKSKS,15,1,682,Correct,0,660
1,DLDUD,16,2,654,Correct,0,937
1,PDPGP,16,2,735,Correct,0,668
1,MWMWM,15,1,666,Correct,0,730
1,FTFTF,15,2,740,False,0,767
1,AXAMA,16,2,770,Correct,0,662
1,RYRGR,16,2,740,Correct,0,915
1,DODOD,15,1,609,Correct,0,684
1,QTQAQ,16,2,668,Correct,0,826
1,YEYEY,15,1,661,Correct,0,802
DT Practice
1,TKTKT,15,2,1038,False,0,805
1,SLSUS,16,2,1307,Correct,0,827
1,VZVGV,7,[1][2],[779][1499],False,0,807
1,XWXZX,7,[2][3],[1171][1507],Correct,0,817
1,ATATA,15,1,726,Correct,0,834
1,HXZMH,16,,,False,0,936
1,TZTZT,7,[1][3],[674][1057],Correct,0,838
1,UOUOU,15,1,856,Correct,0,688
1,ZTWAW,16,2,826,Correct,0,866
1,RZRER,7,[1][2],[975][1455],False,0,796
2,JYJDJ,16,2,858,Correct,0,684
2,DWDWD,15,2,926,False,0,766
2,GNGNG,7,[1],[1099],False,0,923
2,NEZEZ,16,2,937,False,0,909
2,RNROR,7,[1],[1108],False,0,684
2,QTQNQ,7,,,False,0,914
2,HOHON,15,1,1074,Correct,0,920
2,KPKGK,16,2,804,Correct,0,673
2,DRDED,16,2,794,Correct,0,717
2,LNLNL,7,[1][3],[722][1042],Correct,0,668
4,GLGLG,15,1,865,Correct,0,838
4,DTDID,16,2,773,Correct,0,760
4,SMSGS,16,2,930,Correct,0,691
4,ZFZYZ,7,[2][3],[1000][1255],Correct,0,837
4,TSTFT,7,[2][3],[847][1198],Correct,0,861
4,OFOFO,7,[1][3],[643][1042],Correct,0,725
4,WYFGW,16,2,807,Correct,0,851
4,WYWYW,15,1,747,Correct,0,891
4,MFMCM,7,[2][3],[929][1201],Correct,0,817
4,HQHEH,16,2,769,Correct,0,762
Trials
1,D,5,3,6719,New Target,1,825
1,ZNZYZ,161,2,687,Correct,1,872
1,FZFZF,151,1,766,Correct,1,721
1,RKRKR,152,1,680,Correct,1,821
1,RXRNR,161,2,613,Correct,1,865
1,CNCFC,162,2,615,Correct,1,733
1,PDPDP,7,[1],[538],Incorrect,1,914
1,CPCFC,14,2,697,Correct,1,772
1,VLVNV,162,2,727,Correct,1,764
1,KFKFK,151,1,743,Correct,1,724
1,ZNZNZ,152,1,687,Correct,1,888
1,KCKPD,235,2,681,Correct,1,847
1,ZKZFZ,222,2,1154,Correct,1,921
1,NRNZN,162,2,811,Correct,1,856
1,KXKRK,163,2,1107,Correct,1,920
1,YPYZY,164,2,721,Correct,1,781
1,FKDKF,223,2,1085,Incorrect,1,757
1,RPRPR,113,1,856,Correct,1,874
1,VRVKV,161,2,822,Correct,1,715
1,RFRPR,162,2,861,Correct,1,818
1,KVKVK,151,1,741,Correct,1,757
1,YKYVY,161,2,845,Correct,1,895
1,VDVDV,8,[1][3],[848][1280],Correct,1,909
1,DVZVZ,221,1,1343,Correct,1,934
1,YFYFY,113,1,900,Correct,1,754
1,ZYZYZ,152,1,691,Correct,1,937
1,VLVXV,161,2,768,Correct,1,847
1,DPXZX,231,2,967,Correct,1,860
1,RYRYR,113,1,714,Correct,1,791
1,PDPNP,91,[2][3],[871][1223],Correct,1,851
1,KXKXK,13,1,933,Correct,1,886
1,ZYZYZ,152,1,716,Correct,1,747
1,VKVKV,153,1,716,Correct,1,710
1,YZYZY,154,1,716,Correct,1,713
1,NLNZN,161,2,747,Correct,1,769
1,ZNDYZ,233,2,921,Correct,1,746
1,PCPXP,222,2,820,Correct,1,712
1,ZVZFZ,162,2,692,Correct,1,914
1,RCRZR,163,2,733,Correct,1,949
1,LRLRL,151,1,724,Correct,1,932
1,ZDZDZ,10,[1][3],[671][1055],Correct,1,840
1,RNRZR,14,2,711,Correct,1,852
1,CXCYC,162,2,697,Correct,1,710
1,RCRLR,163,2,635,Correct,1,702
1,FRFRF,151,1,719,Correct,1,724
1,XFXFX,152,1,686,Correct,1,724
1,RPRLR,161,2,680,Correct,1,922
1,YXYRY,162,2,696,Correct,1,734
1,FYFYF,151,1,616,Correct,1,722
1,YZYVY,161,2,533,Correct,1,842
1,YKYKY,151,1,556,Correct,1,702
1,XRXRX,152,1,612,Correct,1,656
1,XVXZX,161,2,557,Correct,1,671
1,PDPDP,11,[1][3],[501][789],Correct,1,761
1,ZFZFZ,13,1,684,Correct,1,949
1,PXPXP,152,1,788,Correct,1,926
1,LYLYL,153,1,573,Correct,1,818
1,NKNKD,225,1,643,Correct,1,717
1,ZNZNZ,113,1,584,Correct,1,663
1,PYPZP,161,2,717,Correct,1,691
1,XPXPX,151,1,557,Correct,1,695
1,VLVLV,152,1,641,Correct,1,811
1,PKPXP,161,2,993,Correct,1,761
1,FZFZF,151,1,696,Correct,1,697
1,LDLDL,12,[1][3],[582][854],Correct,1,729
2,U,5,3,5542,New Target,2,763
2,ZVZFZ,161,2,632,Correct,2,771
2,FZFZF,151,1,664,Correct,2,831
2,RFRFR,152,1,657,Correct,2,924
2,NZNKN,161,2,708,Correct,2,658
2,FZFNF,162,1,707,Incorrect,2,731
2,RXRXR,151,1,734,Correct,2,830
2,KRKYK,161,2,697,Correct,2,857
2,NZNPN,162,2,823,Correct,2,786
2,XPXPX,151,1,686,Correct,2,815
2,CUCUC,7,[1][3],[750][1006],Correct,2,712
2,RFRFR,13,1,727,Correct,2,889
2,VYVXV,161,2,724,Correct,2,767
2,VDVDV,191,1,677,Correct,2,700
2,ZKZRZ,15,2,756,Correct,2,768
2,XCXCX,151,1,561,Correct,2,712
2,CNCUC,82,[2][3],[1018][1258],Correct,2,840
2,RCRCR,13,1,690,Correct,2,859
2,ZPZXZ,161,2,735,Correct,2,733
2,FKFYF,162,2,843,Correct,2,789
2,ZFZYZ,163,2,756,Correct,2,766
2,PXPXP,151,1,607,Correct,2,759
2,URCKC,231,2,666,Correct,2,910
2,PCPCP,113,1,631,Correct,2,846
2,XNXNX,152,2,601,Incorrect,2,765
2,RCRZR,161,2,660,Correct,2,932
2,XVXVX,151,1,614,Correct,2,770
2,NRNRN,152,1,690,Correct,2,890
2,FPFPF,225,1,719,Correct,2,811
2,XVXFX,222,2,678,Correct,2,908
2,PRPRP,151,1,760,Correct,2,692
2,FYFCF,161,2,824,Correct,2,695
2,XUXFX,91,[1][2],[729][1561],Incorrect,2,837
2,CYCVC,14,2,1214,Correct,2,661
2,VDVKV,172,2,792,Correct,2,787
2,YCYCY,15,1,661,Correct,2,760
2,NKNLN,161,2,638,Correct,2,899
2,XPUKX,233,2,987,Correct,2,874
2,ZPZPZ,113,1,670,Correct,2,773
2,KRKRK,152,1,736,Correct,2,699
2,XKXKX,153,1,956,Correct,2,765
2,YUYVY,101,[2][3],[711][967],Correct,2,758
2,XKXFU,235,2,737,Correct,2,708
2,NFNFN,113,1,911,Correct,2,710
2,KDKDK,193,1,616,Correct,2,699
2,XYXKX,16,2,629,Correct,2,884
2,YZUZY,223,1,913,Correct,2,882
2,KFKVK,222,2,657,Correct,2,897
2,LYLYL,151,1,629,Correct,2,683
2,CXCDC,184,2,762,Incorrect,2,726
2,XZXNX,16,2,794,Correct,2,666
2,PXPXP,151,2,617,Incorrect,2,676
2,ZRZYZ,161,2,715,Correct,2,783
2,PUPYP,111,[2][3],[765][957],Correct,2,789
2,RNRNR,14,1,852,Correct,2,878
2,KDKDK,195,1,704,Correct,2,707
2,KNKNK,15,1,624,Correct,2,748
2,PRPKP,161,2,650,Correct,2,934
2,UNYNY,221,2,895,Incorrect,2,676
2,NYNYN,113,1,858,Correct,2,677
2,YXYXY,152,1,769,Incorrect,2,786
2,RDRDR,196,1,655,Correct,2,707
2,FCFCF,15,1,571,Correct,2,901
2,ZKZKZ,152,1,652,Correct,2,852
2,ZUZUZ,12,[1][3],[750][974],Correct,2,726
3,E,5,3,3785,New Target,3,651
3,YZYZY,151,1,665,Correct,3,777
3,VFVNV,161,2,584,Correct,3,845
3,KYKYK,151,2,661,Incorrect,3,893
3,NKNKN,152,1,744,Correct,3,701
3,XVXNX,161,2,605,Correct,3,943
3,RERFR,71,[2][3],[959][1391],Correct,3,760
3,XNXNX,13,1,619,Correct,3,864
3,NXNXN,152,1,665,Correct,3,916
3,ZLZNZ,161,2,726,Correct,3,861
3,CUCNC,171,2,757,Correct,3,736
3,FYFRF,16,2,819,Correct,3,746
3,ZLZLZ,151,1,700,Correct,3,790
3,YZYZY,152,1,726,Correct,3,926
3,CYCYC,153,1,741,Correct,3,692
3,VUVUV,192,1,688,Correct,3,847
3,PXPRP,16,2,704,Correct,3,699
3,YPYPY,151,1,641,Correct,3,681
3,CECEC,8,[1][3],[698][970],Correct,3,896
3,VNENV,223,2,748,Incorrect,3,720
3,KRKFK,222,2,874,Correct,3,717
3,XLXLE,225,1,740,Correct,3,654
3,RFRUR,183,2,802,Correct,3,788
3,XRXLX,16,2,719,Correct,3,685
3,NZNPN,162,2,747,Correct,3,771
3,XZXZX,151,1,617,Correct,3,734
3,FZFZF,152,1,648,Correct,3,829
3,PFPFP,153,1,995,Correct,3,845
3,YZYXY,161,2,756,Correct,3,848
3,KEKEK,9,[1][3],[630][1206],Correct,3,714
3,CXCPC,14,2,754,Correct,3,801
3,VXVXV,151,1,748,Correct,3,836
3,NUNZN,174,2,675,Correct,3,932
3,RKRVR,16,2,639,Correct,3,844
3,XRXRX,151,1,668,Correct,3,924
3,ERNFN,231,1,735,Correct,3,687
3,YRYNY,222,2,745,Correct,3,837
3,PZPEP,102,[2][3],[803][963],Correct,3,824
3,ZYZXZ,14,2,733,Correct,3,938
3,RZRVR,162,2,714,Correct,3,797
3,XRXRX,151,1,598,Correct,3,880
3,KUKFK,175,2,724,Correct,3,930
3,RKRKR,15,1,630,Correct,3,666
3,ZFZFZ,152,1,599,Correct,3,780
3,YZYVY,161,2,548,Correct,3,831
3,XPXNX,162,2,582,Correct,3,782
3,YRYRY,151,1,632,Correct,3,801
3,EPVPV,221,1,840,Correct,3,803
3,CRCEC,112,[2][3],[790][966],Correct,3,782
3,RFRCR,14,2,895,Correct,3,694
3,CPCVC,162,2,725,Correct,3,815
3,RXRCR,163,2,670,Correct,3,896
3,VNVLV,164,2,615,Correct,3,910
3,ZXZXZ,151,1,727,Correct,3,863
3,ZCZCZ,152,1,607,Correct,3,922
3,PYPUP,186,2,628,Correct,3,732
3,YKYPY,16,2,720,Correct,3,920
3,YREXY,233,2,741,Correct,3,930
3,ZKZKZ,113,1,689,Correct,3,860
3,XLXNX,161,2,899,Correct,3,697
3,KFKRE,235,2,666,Correct,3,798
3,RXRLR,222,2,710,Correct,3,897
3,RERXR,121,[1][2],[580][1267],Incorrect,3,836
4,J,5,3,1766,New Target,4,897
4,CYCVC,161,2,690,Correct,4,825
4,RXRCR,162,2,606,Correct,4,933
4,FPFVF,163,2,479,Correct,4,768
4,LZLZL,151,1,744,Correct,4,711
4,PLPLP,152,1,645,Correct,4,808
4,NPNPN,153,1,609,Correct,4,932
4,XZXZX,161,1,627,Incorrect,4,773
4,CNCKC,162,2,627,Correct,4,841
4,PCPYJ,235,2,740,Correct,4,828
4,VYVYV,113,1,790,Correct,4,656
4,RLRLR,152,1,671,Correct,4,808
4,CJCJC,7,[1][3],[770][930],Correct,4,923
4,ZLZLZ,13,1,674,Correct,4,874
4,FZFZF,152,1,621,Correct,4,905
4,CFCFC,153,1,585,Correct,4,933
4,PZPZP,154,1,569,Correct,4,907
4,XEXEX,191,1,625,Correct,4,670
4,NVNFN,16,2,720,Correct,4,856
4,KYKYK,151,1,657,Correct,4,655
4,ZNZVZ,161,2,623,Correct,4,876
4,YVJXY,233,2,618,Correct,4,906
4,XFXFX,113,1,871,Correct,4,857
4,XNXNX,152,1,607,Correct,4,783
4,FJFKF,81,[2][3],[800][992],Correct,4,842
4,CZCYC,14,2,732,Correct,4,828
4,ZXZCZ,162,2,709,Correct,4,876
4,RYRYJ,225,1,1025,Correct,4,833
4,FPFZF,222,2,686,Correct,4,917
4,XRXRX,151,1,673,Correct,4,711
4,YPYEY,182,2,820,Correct,4,715
4,XRXRX,15,1,616,Correct,4,912
4,XZXPX,161,2,713,Correct,4,744
4,CJCJC,9,[1][3],[619][859],Correct,4,811
4,ZXZVZ,14,2,614,Correct,4,793
4,VKVKV,151,1,662,Correct,4,790
4,VEVNV,173,2,726,Correct,4,800
4,ZKZVZ,16,2,641,Correct,4,792
4,XVXJX,102,[2][3],[709][869],Correct,4,830
4,RXRVR,14,2,740,Correct,4,681
4,LRLRL,151,1,768,Correct,4,840
4,YNJNY,223,1,693,Correct,4,922
4,NPNJN,222,2,820,Correct,4,728
4,ZEZEZ,194,1,603,Correct,4,831
4,ZNZNZ,15,1,587,Correct,4,821
4,YZYZY,152,2,700,Incorrect,4,770
4,XYXYX,153,1,629,Correct,4,857
4,ZXZXZ,221,1,632,Correct,4,677
4,LYLZL,222,2,710,Correct,4,784
4,CYCNC,162,2,777,Correct,4,670
4,XEXEX,195,1,640,Correct,4,851
4,CVCXC,16,2,641,Correct,4,754
4,ZPZXZ,162,2,774,Correct,4,682
4,FZFZF,151,1,543,Correct,4,842
4,RXRJR,112,[2][3],[626][818],Correct,4,948
4,PRPFP,14,2,824,Correct,4,949
4,PKPEP,186,2,753,Correct,4,803
4,XZXPX,16,2,654,Correct,4,697
4,JCZVZ,231,2,555,Correct,4,861
4,RXRLR,222,2,605,Correct,4,770
4,VZVZV,151,1,577,Correct,4,759
4,XJXJX,12,[1][3],[812][940],Correct,4,699
5,I,5,3,2771,New Target,5,702
5,PCPCP,151,1,637,Correct,5,855
5,XYXYX,152,1,543,Correct,5,723
5,VXVXV,153,1,574,Correct,5,888
5,XVXVX,154,1,689,Correct,5,720
5,ZRZXZ,161,2,658,Correct,5,758
5,FPFZF,162,2,625,Correct,5,800
5,ZYZYZ,151,1,588,Correct,5,897
5,RVRZR,161,2,571,Correct,5,877
5,CICIC,7,[1][11],[602][1001],Incorrect,5,948
5,XLXLX,13,1,781,Correct,5,910
5,YVYVY,152,2,732,Incorrect,5,684
5,CJCJC,191,2,795,Incorrect,5,794
5,FNFCF,16,2,801,Correct,5,903
5,PVPRP,162,2,683,Correct,5,851
5,FZFZF,151,1,666,Correct,5,719
5,NVIVN,223,1,639,Correct,5,662
5,CVCIC,82,[2][3],[639][895],Correct,5,664
5,ZXZXZ,13,1,969,Correct,5,713
5,FCFZF,161,2,746,Correct,5,834
5,IXRXR,221,1,617,Correct,5,665
5,ZPZNZ,222,2,809,Correct,5,821
5,VZVZV,151,1,710,Correct,5,732
5,YRYNY,161,2,868,Correct,5,776
5,VNVPV,162,2,667,Correct,5,770
5,RVRJR,182,2,741,Correct,5,937
5,VRVRV,15,1,613,Correct,5,706
5,VIVIV,9,[1][3],[855][1047],Correct,5,752
5,CXCVC,14,2,770,Correct,5,677
5,PZPZP,151,1,602,Correct,5,839
5,IXVKV,231,2,1019,Correct,5,796
5,YJYCY,173,2,814,Incorrect,5,714
5,VYVYV,15,1,594,Correct,5,900
5,YVYVY,152,1,647,Correct,5,727
5,NVNVN,153,1,685,Correct,5,672
5,XYXVX,161,2,639,Correct,5,658
5,NJNCN,174,2,654,Correct,5,850
5,NXNYN,16,2,738,Correct,5,686
5,VXVCV,162,2,542,Correct,5,758
5,ZKZKZ,151,1,596,Correct,5,760
5,XRXYX,161,2,649,Correct,5,698
5,ZCZXZ,162,2,570,Correct,5,756
5,KVKYI,235,2,751,Correct,5,686
5,CNCNC,113,1,667,Correct,5,756
5,RIRIR,10,[1][3],[602][810],Correct,5,944
5,VYVXV,14,2,597,Correct,5,805
5,FXIRF,233,2,760,Correct,5,795
5,PFPFP,113,1,611,Correct,5,818
5,VPVPV,152,1,644,Correct,5,805
5,ZJZJZ,195,1,770,Correct,5,843
5,ZVZNZ,16,2,684,Correct,5,774
5,YVYXY,162,2,677,Correct,5,934
5,PRPRP,151,1,671,Correct,5,925
5,YPYPY,152,1,755,Correct,5,696
5,ZIZPZ,111,[2][3],[829][1037],Correct,5,794
5,NKNXN,14,2,756,Correct,5,937
5,RZRXR,162,2,761,Correct,5,934
5,RXRXR,151,1,723,Correct,5,850
5,ZJZJZ,196,1,881,Correct,5,783
5,CVCVI,225,1,812,Incorrect,5,694
5,NKNKN,113,1,534,Correct,5,753
5,NRNZN,161,2,686,Correct,5,699
5,CNCNC,151,1,527,Correct,5,756
5,RFRIR,122,[2][3],[727][999],Correct,5,794
6,B,5,3,3111,New Target,6,936
6,YKYZY,161,2,793,Correct,6,784
6,VCVRV,162,2,724,Correct,6,762
6,XVXVX,151,1,625,Correct,6,819
6,KZKRK,161,2,621,Correct,6,904
6,ZVZXZ,162,2,622,Correct,6,779
6,RCRNR,163,2,581,Correct,6,660
6,CXCRC,164,2,579,Correct,6,878
6,VNBCV,233,2,533,Correct,6,813
6,CXCVC,222,2,552,Correct,6,803
6,RFRFR,151,1,785,Correct,6,726
6,XPXRX,161,2,877,Correct,6,687
6,RYRBR,72,[2][3],[651][875],Correct,6,736
6,ZKZKZ,13,1,630,Correct,6,848
6,FIFRF,171,2,614,Correct,6,767
6,VZVLV,16,2,677,Correct,6,824
6,RPRVR,162,2,610,Correct,6,861
6,YBYBY,8,[1][3],[531][771],Correct,6,758
6,PYPVP,14,2,682,Correct,6,747
6,NININ,192,1,685,Correct,6,688
6,RNRNR,15,1,588,Correct,6,811
6,NXNVN,161,2,667,Correct,6,877
6,RNRNR,151,1,635,Correct,6,768
6,FRFVF,161,2,611,Correct,6,943
6,YVYFB,235,2,639,Incorrect,6,900
6,ZRZXZ,222,2,625,Correct,6,781
6,VNVIV,193,2,688,Incorrect,6,873
6,PXPNP,16,2,572,Correct,6,893
6,ZXZPZ,162,2,685,Correct,6,815
6,VBVBV,9,[1][3],[534][838],Correct,6,925
6,CXCXC,13,2,549,Incorrect,6,852
6,PCPFP,161,2,682,Correct,6,682
6,KNKNK,151,1,651,Correct,6,669
6,XIXIX,194,1,726,Correct,6,932
6,CYCYC,15,1,596,Correct,6,762
6,FVFYF,161,2,692,Correct,6,800
6,YNYRY,162,2,693,Correct,6,766
6,BVPXP,231,2,645,Correct,6,722
6,NXNXN,113,1,596,Correct,6,844
6,FRFRF,152,1,641,Correct,6,864
6,YVYVY,153,1,614,Correct,6,710
6,ZKZCZ,161,2,537,Correct,6,681
6,VIVXV,175,2,568,Correct,6,886
6,PRBRP,223,1,679,Correct,6,926
6,YZYBY,102,[2][3],[485][725],Correct,6,943
6,CXCVC,14,2,594,Correct,6,873
6,FYFYF,151,1,630,Correct,6,773
6,VKVXV,161,2,625,Correct,6,943
6,ZBZBZ,11,[1][3],[531][771],Correct,6,661
6,FPFNF,14,2,586,Correct,6,785
6,CXCXC,151,1,634,Correct,6,844
6,YCYCY,152,2,686,Incorrect,6,700
6,FPFPF,153,1,557,Correct,6,767
6,CVCVB,225,1,652,Correct,6,930
6,ZCZCZ,113,1,518,Correct,6,914
6,CZCNC,161,2,664,Correct,6,877
6,KIKFK,176,2,615,Correct,6,734
6,PXPXP,15,1,503,Correct,6,826
6,RYRYR,152,1,862,Correct,6,730
6,ZRZCZ,161,2,710,Correct,6,837
6,RVRVR,151,1,561,Correct,6,880
6,XYXNX,161,2,713,Correct,6,670
6,BVKVK,221,1,582,Correct,6,761
6,CBCBC,12,[1][3],[630][806],Correct,6,830
7,W,5,3,820,New Target,7,663
7,RKRKR,151,1,1304,Correct,7,757
7,CVCRC,161,2,665,Correct,7,912
7,PKPKP,151,1,636,Correct,7,657
7,FPFPF,152,1,686,Correct,7,724
7,VRVPV,161,2,808,Correct,7,866
7,ZKZYZ,162,2,703,Correct,7,874
7,PVPCP,233,2,617,Correct,7,894
7,KVKVK,113,1,691,Correct,7,942
7,YXYVY,161,2,593,Correct,7,825
7,FNFNF,151,1,519,Correct,7,703
7,YWYWY,7,[1][3],[641][817],Correct,7,738
7,ZYZYZ,13,1,673,Correct,7,728
7,PYPYP,152,1,556,Correct,7,831
7,XRXRX,153,1,594,Correct,7,678
7,PXPXP,154,1,547,Correct,7,784
7,FCFBF,181,2,630,Correct,7,800
7,FVFVF,15,1,628,Correct,7,888
7,CYCZC,161,2,671,Correct,7,931
7,XZXVX,162,2,696,Correct,7,903
7,PFPFP,151,1,635,Correct,7,666
7,RVRLR,161,2,731,Correct,7,782
7,ZBZBZ,192,1,684,Correct,7,694
7,VCVNV,16,2,644,Correct,7,923
7,NWNWN,8,[1][3],[629][821],Correct,7,829
7,XNXVX,14,2,619,Correct,7,726
7,CXCNC,162,2,609,Correct,7,659
7,YVYVW,225,1,562,Correct,7,760
7,VFVFV,113,2,512,Incorrect,7,947
7,VFWFV,223,1,747,Correct,7,669
7,CVCFC,222,2,603,Correct,7,684
7,YBYBY,193,1,604,Correct,7,805
7,PYPYP,15,1,878,Correct,7,731
7,NKNWN,91,[2][3],[735][991],Correct,7,872
7,VNVNV,13,1,606,Correct,7,789
7,RVRVR,152,1,626,Correct,7,705
7,FVFBF,184,2,661,Incorrect,7,687
7,VZVKV,16,2,582,Correct,7,721
7,VPVCV,162,2,769,Correct,7,938
7,WYZCZ,231,2,795,Correct,7,832
7,PFPFP,113,1,564,Correct,7,853
7,PRPRP,152,1,662,Correct,7,838
7,NWNWN,10,[1][3],[677][853],Correct,7,851
7,VKVCV,14,2,628,Correct,7,797
7,WPYPY,221,1,760,Correct,7,754
7,VBVBV,195,1,502,Correct,7,672
7,ZKZYZ,16,2,731,Correct,7,806
7,XYXYX,151,1,606,Correct,7,681
7,FZFXF,161,2,759,Correct,7,942
7,XKXKX,151,1,662,Correct,7,764
7,XPXPX,152,1,540,Correct,7,655
7,FWFWF,11,[1][3],[804][964],Correct,7,918
7,FNFBF,186,2,619,Correct,7,698
7,ZVZYZ,16,2,609,Correct,7,684
7,FZFZF,151,2,519,Incorrect,7,661
7,NPNFW,235,2,791,Correct,7,891
7,PCPCP,113,1,560,Correct,7,860
7,NKNWN,122,[2][3],[732][924],Correct,7,729
8,M,5,3,10425,New Target,8,904
8,VYVNV,161,2,623,Correct,8,862
8,KLKNK,162,2,639,Correct,8,856
8,NRNRN,151,1,685,Correct,8,809
8,VNVFV,161,2,637,Correct,8,769
8,XNXNM,225,2,634,Incorrect,8,885
8,CXCVC,222,2,1012,Correct,8,924
8,KRKZK,162,2,804,Correct,8,869
8,NMNFN,71,[1][3],[687][1311],Incorrect,8,743
8,ZFZFZ,13,1,786,Correct,8,706
8,YPYCY,161,2,638,Correct,8,735
8,KCKCK,151,1,721,Correct,8,726
8,VNVNV,152,1,752,Correct,8,710
8,LXLXL,153,1,801,Correct,8,660
8,CLCLC,154,1,717,Correct,8,726
8,NYNYN,155,1,629,Correct,8,899
8,LCMYL,233,2,886,Correct,8,814
8,NCNCN,113,1,590,Correct,8,767
8,ZVZRZ,161,2,739,Correct,8,747
8,ZVZVZ,151,1,552,Correct,8,916
8,PZPVP,161,2,663,Correct,8,856
8,PWPNP,171,2,837,Correct,8,824
8,KLKCM,235,2,666,Correct,8,815
8,XMXMX,8,[1][3],[558][782],Correct,8,821
8,PRPXP,14,2,583,Correct,8,858
8,CVCYC,162,2,628,Correct,8,928
8,PXPMP,92,[2][3],[619][795],Correct,8,820
8,ZCZLZ,14,2,871,Correct,8,785
8,XWXWX,192,2,703,Incorrect,8,715
8,ZCZLZ,16,2,755,Correct,8,690
8,MNCYC,231,2,729,Correct,8,850
8,ZXZXZ,113,1,585,Correct,8,688
8,YRYNY,161,2,569,Correct,8,845
8,ZLZPZ,162,2,607,Correct,8,669
8,VZVZV,151,1,672,Correct,8,753
8,MXPXP,221,2,653,Incorrect,8,807
8,VWVWV,193,1,858,Correct,8,821
8,PYPYP,16,1,594,Incorrect,8,763
8,XPXVX,162,2,613,Correct,8,751
8,XLXLX,151,1,631,Correct,8,732
8,YMYMY,10,[1][3],[611][803],Correct,8,711
8,VYVYV,13,1,655,Correct,8,771
8,PWPZP,174,2,649,Correct,8,923
8,PYPKP,16,2,729,Correct,8,794
8,NPNXN,162,2,536,Correct,8,755
8,KVKVK,223,1,746,Correct,8,800
8,NVNFN,222,2,789,Correct,8,793
8,XNXNX,151,1,542,Correct,8,815
8,YZYMY,112,[2][3],[690][866],Correct,8,693
8,PFPFP,13,1,561,Correct,8,943
8,ZWZWZ,195,1,856,Correct,8,667
8,PCPZP,16,2,559,Correct,8,754
8,LRLPL,162,1,486,Incorrect,8,743
8,CZCZC,151,1,623,Correct,8,678
8,NZNZN,152,1,557,Correct,8,884
8,CVCXC,161,2,619,Correct,8,944
8,XCXCX,151,1,548,Correct,8,936
8,YWYWY,196,1,594,Correct,8,895
8,NLNLN,15,1,530,Correct,8,856
8,VNVNV,152,1,631,Correct,8,854
8,ZMZMZ,12,[1][3],[567][759],Correct,8,796
9,S,5,3,1912,New Target,9,938
9,NZNZN,151,1,721,Correct,9,764
9,KVKZK,161,2,544,Correct,9,719
9,LZLZL,151,1,601,Correct,9,678
9,XLXLX,152,1,630,Correct,9,933
9,ZXZXZ,153,1,555,Correct,9,715
9,KNKZK,161,2,607,Correct,9,712
9,NRNYN,162,2,686,Correct,9,877
9,CLCVC,163,2,697,Correct,9,844
9,ZCZFZ,164,2,651,Correct,9,747
9,NSNSN,7,[1][3],[513][721],Correct,9,669
9,VZVZV,13,1,566,Correct,9,725
9,NVNCN,161,2,630,Correct,9,854
9,VMVMV,191,1,647,Correct,9,785
9,CVCXC,16,2,519,Correct,9,762
9,ZYZRZ,162,2,506,Correct,9,866
9,XNXZX,163,2,684,Correct,9,890
9,PXPXP,151,2,563,Incorrect,9,916
9,VCVSV,82,[2][3],[674][817],Correct,9,740
9,PRPCP,14,2,682,Correct,9,816
9,ZMZMZ,192,1,587,Incorrect,9,676
9,ZFZFZ,15,1,519,Correct,9,924
9,FCFCF,152,1,648,Correct,9,836
9,YLYZY,161,2,627,Correct,9,879
9,KNKVK,162,2,745,Correct,9,687
9,SFPCP,231,2,662,Correct,9,761
9,RPRPR,113,2,662,Incorrect,9,772
9,XMXMX,193,1,503,Correct,9,707
9,KFKFK,15,1,703,Correct,9,687
9,VSVSV,9,[1][3],[625][785],Correct,9,859
9,YVSVY,223,2,651,Incorrect,9,865
9,VPVPV,113,1,570,Correct,9,827
9,XZXZX,152,1,513,Correct,9,692
9,KZKXK,161,2,756,Correct,9,788
9,RFRPR,162,2,690,Correct,9,714
9,NVNVS,225,2,674,Incorrect,9,749
9,ZXZXZ,113,1,612,Correct,9,757
9,SRVRV,221,1,853,Correct,9,755
9,YCYCY,113,1,537,Correct,9,855
9,KMKZK,174,2,570,Correct,9,818
9,FZSVF,233,2,653,Correct,9,757
9,VYVYV,113,1,666,Correct,9,884
9,LVLVL,152,1,710,Correct,9,802
9,YFYFY,153,1,870,Correct,9,679
9,NXNSN,102,[2][3],[805][981],Correct,9,826
9,FNFCF,14,2,778,Correct,9,773
9,KVKVK,151,1,615,Correct,9,780
9,VZVCV,161,2,678,Correct,9,799
9,ZYZMZ,185,2,617,Correct,9,690
9,VXVZV,16,2,572,Correct,9,769
9,VPVPV,151,1,540,Correct,9,834
9,RVRNS,235,2,558,Correct,9,834
9,YZYZY,113,1,589,Correct,9,919
9,ZSZSZ,11,[1][3],[576][736],Correct,9,686
9,FRFRF,13,1,728,Correct,9,802
9,ZMZMZ,196,1,547,Correct,9,798
9,NZNXN,16,2,739,Correct,9,898
9,LSLFL,121,[1][3],[601][841],Incorrect,9,819
10,Q,5,3,1446,New Target,10,712
10,ZVZPZ,161,2,682,Correct,10,655
10,RZRZR,151,1,792,Correct,10,837
10,ZFZFZ,152,1,934,Correct,10,726
10,RZRZR,153,1,586,Correct,10,857
10,PZPXP,161,2,875,Correct,10,856
10,VFQPV,233,2,839,Correct,10,658
10,ZPZRZ,222,2,780,Correct,10,834
10,CYCVC,162,2,630,Correct,10,781
10,CPCPC,151,1,569,Correct,10,769
10,YZYQY,72,[2][3],[614][790],Correct,10,796
10,FVFXF,14,2,692,Correct,10,728
10,YNYNQ,225,1,679,Correct,10,657
10,ZYZYZ,113,1,833,Correct,10,913
10,FRFSF,181,2,620,Incorrect,10,740
10,XNXPX,16,2,639,Correct,10,716
10,NXNXN,151,1,616,Correct,10,916
10,PVPZP,161,2,763,Correct,10,694
10,XVXPX,162,2,593,Correct,10,913
10,FXFVF,163,2,689,Correct,10,808
10,NSNKN,172,2,736,Incorrect,10,781
10,VXVNV,16,2,688,Correct,10,660
10,XZXZX,151,1,625,Correct,10,713
10,VQVQV,8,[1][3],[563][707],Correct,10,652
10,ZYZPZ,14,2,601,Correct,10,899
10,PZPSP,183,2,589,Correct,10,687
10,YVYVY,15,1,564,Correct,10,703
10,NCNQN,92,[2][3],[732][876],Correct,10,753
10,FCFVF,14,2,757,Correct,10,896
10,ZFZFZ,151,1,531,Correct,10,770
10,NSNSN,194,1,595,Correct,10,866
10,YPYFY,16,2,560,Correct,10,880
10,ZKZKZ,151,1,554,Correct,10,661
10,QZRCR,231,2,688,Correct,10,686
10,YPYVY,222,2,699,Correct,10,912
10,ZNZNZ,151,1,663,Correct,10,841
10,VQVQV,10,[1][3],[607][767],Correct,10,885
10,RVRZR,14,2,531,Correct,10,773
10,KRKSK,185,2,678,Correct,10,800
10,NPNPN,15,1,596,Correct,10,787
10,YPYPY,152,1,600,Correct,10,690
10,VCVYV,161,2,682,Correct,10,755
10,FPFNF,162,2,668,Correct,10,739
10,QVXVX,221,2,698,Incorrect,10,790
10,ZVZRZ,222,2,650,Correct,10,703
10,LFLFL,151,1,567,Correct,10,899
10,VLVLV,152,1,742,Correct,10,874
10,KXQXK,223,1,789,Correct,10,705
10,YQYQY,11,[1][3],[528][720],Correct,10,719
10,YCYCY,13,1,742,Correct,10,860
10,PZPYP,161,2,659,Correct,10,818
10,LPLFL,162,2,823,Correct,10,674
10,VSVSV,196,1,628,Correct,10,664
10,VFVYQ,235,2,852,Correct,10,808
10,CZCXC,222,2,648,Correct,10,930
10,PVPCP,162,2,712,Correct,10,734
10,CXCXC,151,1,851,Correct,10,865
10,NZNZN,152,1,639,Correct,10,670
10,YPYCY,161,2,594,Correct,10,671
10,ZQZQZ,12,[1][3],[524][716],Correct,10,761
11,T,5,3,3291,New Target,11,875
11,KFKFK,151,1,764,Correct,11,906
11,LZLZL,152,1,602,Correct,11,758
11,PFPVP,161,2,664,Correct,11,836
11,FRFPF,162,2,834,Correct,11,946
11,FZFZF,151,1,570,Correct,11,840
11,VTVTV,7,[1][3],[596][1203],Correct,11,792
11,KYKCK,14,2,602,Correct,11,879
11,VPVPV,151,1,590,Correct,11,744
11,XQXQX,191,1,677,Correct,11,697
11,PZPYP,16,2,676,Correct,11,772
11,KXKLK,162,2,636,Correct,11,915
11,TCNCN,221,1,554,Correct,11,895
11,PZPNP,222,2,586,Correct,11,828
11,RCRPR,162,2,630,Correct,11,945
11,PZPRT,235,2,563,Correct,11,909
11,XFXVX,222,2,610,Correct,11,892
11,LTLVL,81,[2],[546],Incorrect,11,794
11,ZCZPZ,14,2,662,Correct,11,850
11,NCNQN,182,2,939,Correct,11,684
11,XZXNX,16,2,764,Correct,11,854
11,ZPZPZ,151,1,731,Correct,11,671
11,CFCFC,152,1,651,Correct,11,745
11,VXTRV,233,2,775,Correct,11,855
11,CFCVC,222,2,559,Correct,11,817
11,PYPYP,151,1,593,Correct,11,831
11,FQFYF,173,2,576,Correct,11,844
11,CNCFC,16,2,549,Correct,11,765
11,PTPTP,9,[1][3],[583][743],Correct,11,916
11,ZCZCZ,13,1,505,Correct,11,880
11,KZKZK,152,1,506,Correct,11,916
11,RLRVR,161,2,671,Correct,11,794
11,ZRZKZ,162,2,672,Correct,11,701
11,KLKLT,225,1,658,Correct,11,682
11,ZQZQZ,194,1,637,Correct,11,928
11,VZVZV,15,1,668,Correct,11,775
11,RVRZR,161,2,662,Correct,11,940
11,ZPZCZ,162,2,661,Correct,11,834
11,VYVYV,151,1,601,Correct,11,653
11,RVRVR,152,1,613,Correct,11,929
11,PTPTP,10,[1][3],[517][645],Correct,11,690
11,PXPXP,13,1,595,Correct,11,884
11,KCKCK,152,1,600,Correct,11,672
11,YVYVY,153,1,550,Correct,11,848
11,CYCYC,154,1,579,Correct,11,914
11,XCXCX,155,1,677,Correct,11,768
11,CYCQC,185,2,632,Correct,11,701
11,KCKNK,16,2,732,Correct,11,744
11,VPVPV,151,1,600,Correct,11,828
11,TXFZF,231,2,603,Correct,11,790
11,NYNVN,222,2,665,Correct,11,873
11,VQVXV,176,2,683,Correct,11,697
11,ZRZRZ,15,1,503,Correct,11,862
11,VTVZV,111,[1][3],[684][1212],Incorrect,11,767
11,PXPVP,14,2,849,Correct,11,786
11,FVFVF,151,1,759,Correct,11,831
11,VRVLV,161,2,816,Correct,11,833
11,YCYCY,151,1,581,Correct,11,950
11,XZTZX,223,1,982,Correct,11,821
11,VTVTV,12,[1][3],[634][826],Correct,11,809
12,O,5,3,2351,New Target,12,920
12,VXVLV,161,2,670,Correct,12,800
12,KVKCK,162,2,557,Correct,12,792
12,VLVLV,151,1,541,Correct,12,900
12,ZCZVZ,161,2,681,Correct,12,939
12,KFKFK,151,1,630,Correct,12,876
12,XKXKX,152,1,532,Correct,12,869
12,YXYXY,153,1,538,Correct,12,739
12,FVFVF,154,1,649,Correct,12,923
12,PVPOP,72,[12][2],[788][1204],Incorrect,12,866
12,ZXZYZ,14,2,1214,Correct,12,656
12,PXPVP,162,2,1002,Correct,12,733
12,ZTZTZ,191,1,1003,Correct,12,876
12,CVCKC,16,2,703,Correct,12,742
12,CKCKC,151,1,1192,Correct,12,898
12,NPNPN,152,1,534,Correct,12,729
12,ZRZNZ,161,2,684,Correct,12,682
12,OZCZC,221,2,767,Incorrect,12,710
12,LFLFL,113,1,631,Correct,12,830
12,CXCXC,152,1,699,Correct,12,702
12,KPKPK,153,1,506,Correct,12,749
12,FRFKF,161,2,605,Correct,12,805
12,FOFOF,8,[1][3],[550][741],Correct,12,930
12,ZFZFZ,13,1,558,Correct,12,879
12,LKLZO,235,2,748,Correct,12,946
12,KLKZK,222,2,614,Correct,12,819
12,YXYCY,162,2,682,Correct,12,741
12,LOLOL,9,[1][3],[523][747],Correct,12,773
12,XLXLX,13,1,622,Correct,12,794
12,XVXVX,152,2,632,Incorrect,12,929
12,FTFTF,192,1,620,Correct,12,698
12,OXNZN,231,2,748,Correct,12,802
12,CZCZC,113,1,853,Correct,12,880
12,LZLZL,152,1,635,Correct,12,809
12,VLVPV,161,2,649,Correct,12,853
12,VYVYO,225,1,648,Correct,12,843
12,XKXKX,113,1,548,Correct,12,848
12,RTRTR,193,1,548,Correct,12,905
12,KVKCK,16,2,652,Correct,12,697
12,ROROR,101,[1][3],[572][764],Correct,12,751
12,PRPRP,13,1,639,Correct,12,831
12,LYLVL,161,2,778,Correct,12,925
12,PLPLP,151,1,529,Correct,12,917
12,CTCTC,194,1,552,Correct,12,734
12,XZXYX,16,2,682,Correct,12,837
12,NKNKN,151,1,563,Correct,12,928
12,VLVZV,161,2,646,Correct,12,829
12,YOYOY,11,[1][3],[535][743],Correct,12,681
12,PZOZP,223,1,913,Correct,12,731
12,FYFYF,113,1,586,Correct,12,698
12,ZXZVZ,161,2,756,Correct,12,918
12,VKVZV,162,2,594,Correct,12,765
12,ZTZTZ,195,1,532,Correct,12,815
12,LKLZL,16,1,617,Incorrect,12,782
12,KCKVK,162,2,663,Correct,12,835
12,PXPKP,163,2,994,Correct,12,938
12,KCOZK,233,2,722,Correct,12,807
12,FKFKF,113,1,811,Correct,12,922
12,CTCRC,176,2,791,Correct,12,754
12,NXNXN,15,1,769,Correct,12,820
12,KXKVK,161,2,591,Correct,12,716
12,CPCOC,122,[2][3],[733][941],Correct,12,836
13,H,5,3,1587,New Target,13,923
13,VFVNV,151,2,575,Incorrect,13,773
13,YVYVY,152,1,671,Correct,13,884
13,XVXVX,153,1,577,Correct,13,699
13,NRNXN,161,2,542,Correct,13,946
13,PZPKP,162,2,665,Correct,13,701
13,HLVLV,221,1,697,Correct,13,748
13,CXCZC,222,2,498,Correct,13,933
13,LHLYL,71,[2][1],[634][1162],Incorrect,13,840
13,YKYFY,14,2,687,Correct,13,680
13,YOYRY,171,2,1023,Correct,13,750
13,ZKZYZ,16,2,708,Correct,13,663
13,RZRZR,151,1,709,Correct,13,727
13,NFNYN,161,2,593,Correct,13,823
13,KVKFK,162,2,543,Correct,13,894
13,XFXYX,163,2,673,Correct,13,798
13,LKLVL,164,2,496,Correct,13,740
13,NLNLN,151,1,699,Correct,13,693
13,XCXOX,182,2,725,Correct,13,936
13,FXFXF,15,1,907,Correct,13,931
13,VHVHV,8,[1][3],[717][845],Correct,13,916
13,PVPVP,13,1,752,Correct,13,722
13,CRCXC,161,2,640,Correct,13,752
13,NXNXN,151,1,660,Correct,13,660
13,XRXRX,152,1,642,Correct,13,861
13,YFYXY,161,2,640,Correct,13,804
13,ZOZOZ,193,1,587,Correct,13,907
13,RZRZR,15,1,601,Correct,13,922
13,FKFKF,152,1,702,Correct,13,656
13,PFPFP,153,1,766,Correct,13,669
13,XYXHX,92,[2][3],[857][1241],Correct,13,868
13,RZRKR,14,2,712,Correct,13,779
13,FLFLH,225,1,662,Correct,13,783
13,KRKRK,113,1,895,Correct,13,948
13,ZVZNZ,161,2,721,Correct,13,946
13,ZOZOZ,194,1,570,Correct,13,889
13,FZFZF,15,1,543,Correct,13,751
13,FHFKF,101,[2][3],[685][941],Correct,13,903
13,ZXHLZ,233,2,1028,Correct,13,659
13,FKFXF,222,2,721,Correct,13,869
13,CFCYC,162,2,706,Correct,13,718
13,ZXZVZ,163,2,624,Correct,13,768
13,KCKOK,185,2,622,Correct,13,803
13,ZXZVH,235,2,772,Correct,13,660
13,CKCKC,113,1,1070,Correct,13,861
13,ZXZCZ,161,2,622,Correct,13,761
13,YVYVY,151,2,523,Incorrect,13,862
13,RVHVR,223,2,588,Incorrect,13,937
13,ZRZRZ,113,1,719,Correct,13,743
13,ZHZHZ,11,[1][3],[537][697],Correct,13,784
13,VZVZV,13,1,670,Correct,13,942
13,HZVRV,231,2,719,Correct,13,773
13,FVFVF,113,1,539,Correct,13,848
13,RNRCR,161,2,681,Correct,13,881
13,COCOC,196,2,582,Incorrect,13,796
13,VNVXV,16,2,798,Correct,13,667
13,XHXHX,12,[1][3],[498][674],Correct,13,788
14,G,5,3,1973,New Target,14,887
14,FZFZF,151,1,866,Correct,14,741
14,RPRVR,161,2,585,Correct,14,785
14,XCXCX,151,1,572,Correct,14,734
14,YXYXY,152,1,605,Correct,14,856
14,KZKZK,153,1,532,Correct,14,691
14,RYRKR,161,2,715,Correct,14,723
14,FYFNF,162,2,698,Correct,14,793
14,VKVKV,151,1,531,Correct,14,930
14,KPGPK,223,1,903,Correct,14,842
14,YNYNY,113,1,606,Correct,14,785
14,VYVYV,152,1,746,Correct,14,933
14,YCYXY,161,2,776,Correct,14,716
14,LKLGL,72,[2][3],[610][785],Correct,14,683
14,VXVXV,13,1,541,Correct,14,723
14,KCKVK,161,2,810,Correct,14,939
14,YKYKY,151,1,529,Correct,14,881
14,RHRXR,171,2,756,Correct,14,814
14,FVFCF,16,2,699,Correct,14,944
14,YXYGY,82,[2][3],[569][761],Correct,14,896
14,CLCLC,13,1,1096,Correct,14,820
14,ZXZCZ,161,2,602,Correct,14,680
14,VLVFV,162,2,646,Correct,14,940
14,CPCPG,225,1,544,Correct,14,895
14,KHKNK,172,2,615,Correct,14,670
14,ZKZVZ,16,2,534,Correct,14,817
14,YKYLY,162,2,508,Correct,14,724
14,CNCNC,151,1,547,Correct,14,740
14,PGPGP,9,[1][3],[591][751],Correct,14,850
14,VPVPV,13,1,670,Correct,14,661
14,FXGRF,233,2,688,Correct,14,736
14,CYCVC,222,2,735,Correct,14,801
14,FNFNF,151,1,559,Correct,14,759
14,KFKCK,161,2,562,Correct,14,817
14,ZFZHZ,183,2,677,Correct,14,831
14,NXNXN,15,1,586,Correct,14,676
14,FNFNF,152,1,920,Correct,14,929
14,LXLNG,235,2,668,Correct,14,838
14,XKXVX,222,2,648,Correct,14,900
14,ZHZHZ,194,1,634,Correct,14,665
14,PFPFP,15,1,573,Correct,14,738
14,ZYZYZ,152,1,720,Correct,14,781
14,XPXVX,161,2,524,Correct,14,835
14,YCYCY,151,1,511,Correct,14,816
14,RGRGR,10,[1][3],[716][892],Correct,14,904
14,VRVRV,13,1,659,Correct,14,743
14,PKPNP,161,2,682,Correct,14,650
14,XGXGX,11,[1][3],[502][646],Correct,14,669
14,GZYVY,231,2,579,Correct,14,836
14,VCVNV,222,2,661,Correct,14,817
14,VHVHV,195,1,535,Correct,14,737
14,LXLNL,16,2,616,Correct,14,830
14,GKPKP,221,1,542,Correct,14,650
14,XRXPX,222,2,1214,Correct,14,824
14,XNXNX,151,1,619,Correct,14,793
14,KHKNK,176,1,573,Correct,14,747
14,RZRZR,15,1,608,Correct,14,722
14,CGCFC,121,[2][3],[695][1318],Correct,14,833
15,A,5,3,1903,New Target,15,893
15,XRXFX,161,2,818,Correct,15,879
15,RXRKR,162,2,654,Correct,15,704
15,YRYRY,151,2,467,Incorrect,15,681
15,XPXPX,152,1,626,Correct,15,926
15,RPRPR,153,1,734,Correct,15,914
15,NCNCN,154,2,569,Incorrect,15,876
15,RXRZR,161,2,584,Correct,15,904
15,NANAN,7,[1][3],[518][710],Correct,15,719
15,KCKYK,14,2,758,Correct,15,679
15,XKXFX,162,2,1046,Correct,15,723
15,ZLZKZ,163,2,747,Correct,15,735
15,VCVZV,164,2,676,Correct,15,815
15,XCXVX,165,2,591,Correct,15,911
15,LKLZA,235,2,613,Correct,15,742
15,NCNCN,113,1,518,Correct,15,755
15,YGYGY,191,1,511,Correct,15,690
15,VLVLV,15,2,597,Incorrect,15,788
15,XRXRX,152,1,805,Correct,15,850
15,KAKPK,81,[2][3],[869][1029],Correct,15,672
15,YZAZY,233,1,933,Incorrect,15,923
15,CFCFC,113,1,631,Correct,15,839
15,VNVLV,161,2,585,Correct,15,709
15,KPKVK,162,2,606,Correct,15,697
15,NCNRN,163,2,618,Correct,15,875
15,FGFGF,192,2,479,Incorrect,15,670
15,RCRYR,16,2,614,Correct,15,753
15,KRKCK,162,2,682,Correct,15,666
15,CRCRC,151,1,659,Correct,15,893
15,XPAPX,223,1,727,Correct,15,681
15,LPLXL,222,2,662,Correct,15,783
15,CGCVC,173,2,657,Correct,15,943
15,FKFZF,16,2,510,Correct,15,874
15,CACAC,9,[1][3],[570][746],Correct,15,903
15,XCXCX,13,1,716,Correct,15,924
15,AXRXR,221,2,657,Incorrect,15,938
15,NKNRN,222,2,741,Correct,15,688
15,KNKFK,162,2,707,Correct,15,782
15,KAKAK,10,[1][3],[504][695],Correct,15,852
15,ZCZRZ,14,2,697,Correct,15,723
15,RPRPR,151,1,935,Correct,15,778
15,NCNCN,152,1,528,Correct,15,713
15,RYRGR,184,2,630,Correct,15,798
15,VPVPV,15,1,560,Correct,15,945
15,RCRCA,225,2,744,Incorrect,15,653
15,KXKPK,222,2,754,Correct,15,875
15,NPNPN,151,1,593,Correct,15,700
15,YCYCY,152,1,596,Correct,15,770
15,PXPAP,112,[2][3],[844][1004],Correct,15,725
15,ZCZNZ,14,2,853,Correct,15,815
15,KYKGK,185,2,557,Correct,15,836
15,ANLPL,231,2,753,Correct,15,774
15,CXCPC,222,2,658,Correct,15,686
15,YRYRY,151,1,591,Correct,15,819
15,LGLGL,196,2,420,Incorrect,15,744
15,VYVLV,16,2,510,Correct,15,730
15,KVKVK,151,2,799,Incorrect,15,911
15,RKRKR,152,1,722,Correct,15,933
15,VXVXV,153,1,587,Correct,15,929
15,XAXAX,12,[1][3],[581][837],Correct,15,749
