Trial No,Stimulus,Trigger,Response,Response Time(ms),Correct,Block,Fixation Duration
Practice
OT Practice
1,SKSKS,15,1,1245,Correct,0,943
1,DLDUD,16,2,996,Correct,0,766
1,PDPGP,16,1,712,False,0,651
1,MWMWM,15,1,768,Correct,0,834
1,FTFTF,15,1,1081,Correct,0,750
1,AXAMA,16,2,1152,Correct,0,862
1,RYRGR,16,2,810,Correct,0,718
1,DODOD,15,1,1118,Correct,0,891
1,QTQAQ,16,2,940,Correct,0,728
1,YEYEY,15,1,840,Correct,0,874
2,GYGDG,16,2,897,Correct,0,851
2,SWSWS,15,1,646,Correct,0,710
2,HLHUH,16,2,1012,Correct,0,719
2,DEDED,15,1,723,Correct,0,812
2,ZPZOZ,16,2,838,Correct,0,922
2,ATATA,15,2,769,False,0,660
2,QOQOQ,15,1,779,Correct,0,682
2,FPFGF,16,2,854,Correct,0,717
2,TRTET,16,2,840,Correct,0,868
2,DQDQD,15,1,985,Correct,0,853
4,PLPLP,15,1,1112,Correct,0,784
4,ATAIA,16,2,1011,Correct,0,843
4,SKSGS,16,2,738,Correct,0,738
4,ZYZYZ,15,1,1000,Correct,0,819
4,QSQSQ,15,1,742,Correct,0,765
4,TZTDT,16,2,804,Correct,0,701
4,JYJGJ,16,2,1005,Correct,0,657
4,DYDYD,15,1,602,Correct,0,879
4,LTLCL,16,2,762,Correct,0,699
4,FQFEF,16,2,723,Correct,0,802
AT Practice
1,TKTKT,15,1,921,Correct,0,833
1,SLSUS,16,2,809,Correct,0,855
1,VZVGV,7,2,974,False,0,876
1,XWXZX,7,3,1197,Correct,0,847
1,ATATA,15,1,1295,Correct,0,941
1,HXZMH,16,2,1157,Correct,0,739
1,TZTZT,7,3,683,Correct,0,840
1,UOUOU,15,1,1018,Correct,0,711
1,ZTWAW,16,2,1539,Correct,0,888
1,RZRER,7,3,787,Correct,0,674
2,JYJDJ,16,2,1051,Correct,0,917
2,DWDWD,15,1,1190,Correct,0,799
2,GNGNG,7,3,938,Correct,0,843
2,NEZEZ,16,1,1083,Correct,0,783
2,RNROR,7,3,742,Correct,0,792
2,QTQNQ,7,3,1087,Correct,0,822
2,HOHON,15,1,893,Correct,0,730
2,KPKGK,16,2,1221,Correct,0,713
2,DRDED,16,2,1307,Correct,0,836
2,LNLNL,7,3,964,Correct,0,700
4,GLGLG,15,1,1021,Correct,0,945
4,DTDID,16,2,1050,Correct,0,792
4,SMSGS,16,2,922,Correct,0,700
4,ZFZYZ,7,3,778,Correct,0,854
4,TSTFT,7,3,933,Correct,0,714
4,OFOFO,7,3,843,Correct,0,666
4,WYFGW,16,2,1165,Correct,0,894
4,WYWYW,15,1,1332,Correct,0,836
4,MFMCM,7,3,965,Correct,0,839
4,HQHEH,16,2,1017,Correct,0,706
Trials
1,D,5,3,30469,New Target,1,721
1,ZNZYZ,161,2,1169,Correct,1,884
1,FZFZF,151,1,1193,Correct,1,934
1,RKRKR,152,1,981,Correct,1,757
1,RXRNR,161,2,1296,Correct,1,950
1,CNCFC,162,2,1078,Correct,1,839
1,PDPDP,7,3,890,Correct,1,669
1,CPCFC,14,2,1045,Correct,1,687
1,VLVNV,162,2,964,Correct,1,839
1,KFKFK,151,1,985,Correct,1,733
1,ZNZNZ,152,1,965,Correct,1,942
1,KCKPD,235,2,1013,Correct,1,917
1,ZKZFZ,222,2,1209,Correct,1,693
1,NRNZN,162,2,1119,Correct,1,869
1,KXKRK,163,2,1072,Correct,1,790
1,YPYZY,164,2,1105,Correct,1,756
1,FKDKF,223,2,1088,Incorrect,1,763
1,RPRPR,113,1,1259,Correct,1,884
1,VRVKV,161,2,1175,Correct,1,743
1,RFRPR,162,2,1317,Correct,1,747
1,KVKVK,151,1,827,Correct,1,812
1,YKYVY,161,2,981,Correct,1,765
1,VDVDV,8,3,644,Correct,1,912
1,DVZVZ,221,1,938,Correct,1,651
1,YFYFY,113,1,739,Correct,1,658
1,ZYZYZ,152,1,667,Correct,1,862
1,VLVXV,161,2,793,Correct,1,767
1,DPXZX,231,2,932,Correct,1,756
1,RYRYR,113,1,852,Correct,1,943
1,PDPNP,91,3,937,Correct,1,901
1,KXKXK,13,1,1087,Correct,1,781
1,ZYZYZ,152,1,795,Correct,1,814
1,VKVKV,153,1,754,Correct,1,896
1,YZYZY,154,1,897,Correct,1,666
1,NLNZN,161,2,737,Correct,1,926
1,ZNDYZ,233,2,907,Correct,1,843
1,PCPXP,222,2,864,Correct,1,768
1,ZVZFZ,162,2,903,Correct,1,792
1,RCRZR,163,2,729,Correct,1,926
1,LRLRL,151,1,789,Correct,1,792
1,ZDZDZ,10,3,736,Correct,1,809
1,RNRZR,14,2,1503,Correct,1,738
1,CXCYC,162,2,1442,Correct,1,725
1,RCRLR,163,2,1222,Correct,1,775
1,FRFRF,151,1,828,Correct,1,923
1,XFXFX,152,1,808,Correct,1,739
1,RPRLR,161,2,864,Correct,1,896
1,YXYRY,162,2,1153,Correct,1,924
1,FYFYF,151,1,858,Correct,1,887
1,YZYVY,161,2,977,Correct,1,796
1,YKYKY,151,1,1028,Correct,1,836
1,XRXRX,152,1,854,Correct,1,723
1,XVXZX,161,2,730,Correct,1,852
1,PDPDP,11,1,743,Incorrect,1,738
1,ZFZFZ,13,1,886,Correct,1,752
1,PXPXP,152,1,860,Correct,1,782
1,LYLYL,153,1,788,Correct,1,719
1,NKNKD,225,1,1210,Correct,1,942
1,ZNZNZ,113,1,982,Correct,1,712
1,PYPZP,161,2,813,Correct,1,705
1,XPXPX,151,1,737,Correct,1,931
1,VLVLV,152,1,893,Correct,1,763
1,PKPXP,161,2,1096,Correct,1,681
1,FZFZF,151,1,835,Correct,1,932
1,LDLDL,12,3,942,Correct,1,666
2,U,5,3,3545,New Target,2,885
2,ZVZFZ,161,2,919,Correct,2,792
2,FZFZF,151,1,847,Correct,2,686
2,RFRFR,152,1,966,Correct,2,758
2,NZNKN,161,2,894,Correct,2,709
2,FZFNF,162,2,1002,Correct,2,670
2,RXRXR,151,1,799,Correct,2,681
2,KRKYK,161,2,1062,Correct,2,859
2,NZNPN,162,2,1066,Correct,2,671
2,XPXPX,151,1,842,Correct,2,726
2,CUCUC,7,3,940,Correct,2,943
2,RFRFR,13,1,917,Correct,2,728
2,VYVXV,161,2,1036,Correct,2,686
2,VDVDV,191,1,1367,Correct,2,921
2,ZKZRZ,15,2,938,Correct,2,801
2,XCXCX,151,1,1151,Correct,2,806
2,CNCUC,82,3,780,Correct,2,841
2,RCRCR,13,1,914,Correct,2,945
2,ZPZXZ,161,2,937,Correct,2,734
2,FKFYF,162,2,782,Correct,2,768
2,ZFZYZ,163,2,1016,Correct,2,809
2,PXPXP,151,1,730,Correct,2,724
2,URCKC,231,2,1267,Correct,2,880
2,PCPCP,113,1,1078,Correct,2,932
2,XNXNX,152,1,1125,Correct,2,773
2,RCRZR,161,2,1206,Correct,2,721
2,XVXVX,151,1,1041,Correct,2,734
2,NRNRN,152,1,1106,Correct,2,837
2,FPFPF,225,1,938,Correct,2,920
2,XVXFX,222,2,1322,Correct,2,916
2,PRPRP,151,1,1100,Correct,2,900
2,FYFCF,161,2,952,Correct,2,880
2,XUXFX,91,3,881,Correct,2,682
2,CYCVC,14,2,1335,Correct,2,768
2,VDVKV,172,2,1167,Correct,2,675
2,YCYCY,15,1,854,Correct,2,887
2,NKNLN,161,2,1200,Correct,2,727
2,XPUKX,233,2,1481,Correct,2,877
2,ZPZPZ,113,1,983,Correct,2,795
2,KRKRK,152,1,1029,Correct,2,865
2,XKXKX,153,1,1154,Correct,2,903
2,YUYVY,101,3,639,Correct,2,795
2,XKXFU,235,2,1424,Correct,2,812
2,NFNFN,113,1,785,Correct,2,795
2,KDKDK,193,1,1176,Correct,2,906
2,XYXKX,16,2,1026,Correct,2,889
2,YZUZY,223,,,Incorrect,2,859
2,KFKVK,222,2,1142,Correct,2,932
2,LYLYL,151,1,852,Correct,2,750
2,CXCDC,184,2,812,Incorrect,2,810
2,XZXNX,16,2,885,Correct,2,844
2,PXPXP,151,1,776,Correct,2,912
2,ZRZYZ,161,2,854,Correct,2,746
2,PUPYP,111,3,908,Correct,2,825
2,RNRNR,14,1,945,Correct,2,752
2,KDKDK,195,1,948,Correct,2,865
2,KNKNK,15,1,763,Correct,2,693
2,PRPKP,161,2,1004,Correct,2,692
2,UNYNY,221,1,1011,Correct,2,759
2,NYNYN,113,1,1247,Correct,2,885
2,YXYXY,152,1,1322,Incorrect,2,730
2,RDRDR,196,1,989,Correct,2,825
2,FCFCF,15,1,860,Correct,2,910
2,ZKZKZ,152,1,1157,Correct,2,743
2,ZUZUZ,12,3,672,Correct,2,915
3,E,5,3,5026,New Target,3,925
3,YZYZY,151,1,1251,Correct,3,733
3,VFVNV,161,2,890,Correct,3,801
3,KYKYK,151,1,671,Correct,3,811
3,NKNKN,152,1,994,Correct,3,695
3,XVXNX,161,2,880,Correct,3,875
3,RERFR,71,3,1127,Correct,3,755
3,XNXNX,13,1,777,Correct,3,704
3,NXNXN,152,1,1041,Correct,3,875
3,ZLZNZ,161,2,1092,Correct,3,719
3,CUCNC,171,2,1346,Correct,3,855
3,FYFRF,16,2,984,Correct,3,792
3,ZLZLZ,151,1,775,Correct,3,928
3,YZYZY,152,1,671,Correct,3,924
3,CYCYC,153,1,1207,Correct,3,932
3,VUVUV,192,1,927,Correct,3,884
3,PXPRP,16,2,840,Correct,3,668
3,YPYPY,151,1,944,Correct,3,855
3,CECEC,8,3,823,Correct,3,754
3,VNENV,223,1,1251,Correct,3,699
3,KRKFK,222,2,1209,Correct,3,926
3,XLXLE,225,1,967,Correct,3,655
3,RFRUR,183,2,922,Correct,3,798
3,XRXLX,16,2,1268,Correct,3,665
3,NZNPN,162,2,930,Correct,3,667
3,XZXZX,151,1,883,Correct,3,842
3,FZFZF,152,1,774,Correct,3,887
3,PFPFP,153,1,1061,Correct,3,700
3,YZYXY,161,2,837,Correct,3,764
3,KEKEK,9,3,922,Correct,3,921
3,CXCPC,14,2,937,Correct,3,914
3,VXVXV,151,1,780,Correct,3,829
3,NUNZN,174,2,887,Correct,3,801
3,RKRVR,16,2,1070,Correct,3,825
3,XRXRX,151,1,1083,Correct,3,909
3,ERNFN,231,2,1321,Incorrect,3,770
3,YRYNY,222,2,794,Correct,3,907
3,PZPEP,102,3,898,Correct,3,844
3,ZYZXZ,14,2,875,Correct,3,703
3,RZRVR,162,2,980,Correct,3,692
3,XRXRX,151,1,608,Correct,3,950
3,KUKFK,175,2,834,Correct,3,802
3,RKRKR,15,1,827,Correct,3,819
3,ZFZFZ,152,1,676,Correct,3,691
3,YZYVY,161,2,690,Correct,3,810
3,XPXNX,162,2,1116,Correct,3,889
3,YRYRY,151,1,720,Correct,3,664
3,EPVPV,221,1,753,Correct,3,675
3,CRCEC,112,3,913,Correct,3,651
3,RFRCR,14,2,715,Correct,3,730
3,CPCVC,162,2,1210,Correct,3,774
3,RXRCR,163,2,885,Correct,3,788
3,VNVLV,164,2,960,Correct,3,704
3,ZXZXZ,151,1,882,Correct,3,884
3,ZCZCZ,152,1,733,Correct,3,692
3,PYPUP,186,2,932,Correct,3,911
3,YKYPY,16,2,933,Correct,3,842
3,YREXY,233,2,1423,Correct,3,660
3,ZKZKZ,113,1,721,Correct,3,767
3,XLXNX,161,2,670,Correct,3,800
3,KFKRE,235,2,1247,Correct,3,762
3,RXRLR,222,2,714,Correct,3,741
3,RERXR,121,1,907,Incorrect,3,697
4,J,5,3,4022,New Target,4,800
4,CYCVC,161,2,1407,Correct,4,781
4,RXRCR,162,2,993,Correct,4,807
4,FPFVF,163,2,705,Correct,4,815
4,LZLZL,151,1,814,Correct,4,821
4,PLPLP,152,1,778,Correct,4,705
4,NPNPN,153,1,1251,Correct,4,830
4,XZXZX,161,1,777,Incorrect,4,879
4,CNCKC,162,2,820,Correct,4,830
4,PCPYJ,235,2,976,Correct,4,685
4,VYVYV,113,1,720,Correct,4,885
4,RLRLR,152,1,782,Correct,4,807
4,CJCJC,7,1,669,Incorrect,4,711
4,ZLZLZ,13,1,937,Correct,4,829
4,FZFZF,152,1,828,Correct,4,833
4,CFCFC,153,1,955,Correct,4,663
4,PZPZP,154,1,726,Correct,4,658
4,XEXEX,191,1,1046,Correct,4,716
4,NVNFN,16,2,957,Correct,4,671
4,KYKYK,151,1,693,Correct,4,667
4,ZNZVZ,161,2,965,Correct,4,762
4,YVJXY,233,2,1252,Correct,4,886
4,XFXFX,113,1,766,Correct,4,704
4,XNXNX,152,1,903,Correct,4,802
4,FJFKF,81,3,743,Correct,4,931
4,CZCYC,14,2,1089,Correct,4,878
4,ZXZCZ,162,2,962,Correct,4,712
4,RYRYJ,225,1,1080,Correct,4,743
4,FPFZF,222,2,790,Correct,4,840
4,XRXRX,151,1,785,Correct,4,717
4,YPYEY,182,2,919,Correct,4,920
4,XRXRX,15,1,908,Correct,4,758
4,XZXPX,161,2,963,Correct,4,790
4,CJCJC,9,3,857,Correct,4,760
4,ZXZVZ,14,2,1168,Correct,4,759
4,VKVKV,151,1,952,Correct,4,920
4,VEVNV,173,3,1003,Incorrect,4,879
4,ZKZVZ,16,,,Incorrect,4,919
4,XVXJX,102,3,872,Correct,4,674
4,RXRVR,14,2,899,Correct,4,672
4,LRLRL,151,1,782,Correct,4,670
4,YNJNY,223,1,1273,Correct,4,795
4,NPNJN,222,3,1223,Incorrect,4,652
4,ZEZEZ,194,1,1153,Correct,4,823
4,ZNZNZ,15,1,1355,Correct,4,906
4,YZYZY,152,1,1189,Correct,4,689
4,XYXYX,153,1,670,Correct,4,849
4,ZXZXZ,221,1,890,Correct,4,885
4,LYLZL,222,2,1071,Correct,4,855
4,CYCNC,162,2,924,Correct,4,806
4,XEXEX,195,1,1208,Correct,4,668
4,CVCXC,16,2,1003,Correct,4,931
4,ZPZXZ,162,2,780,Correct,4,863
4,FZFZF,151,1,765,Correct,4,948
4,RXRJR,112,3,888,Correct,4,753
4,PRPFP,14,2,1183,Correct,4,756
4,PKPEP,186,2,1404,Correct,4,757
4,XZXPX,16,2,1063,Correct,4,923
4,JCZVZ,231,2,1191,Correct,4,799
4,RXRLR,222,2,786,Correct,4,736
4,VZVZV,151,1,818,Correct,4,650
4,XJXJX,12,3,635,Correct,4,824
5,I,5,3,2818,New Target,5,949
5,PCPCP,151,1,773,Correct,5,779
5,XYXYX,152,1,672,Correct,5,799
5,VXVXV,153,1,830,Correct,5,783
5,XVXVX,154,1,714,Correct,5,742
5,ZRZXZ,161,2,1098,Correct,5,745
5,FPFZF,162,2,825,Correct,5,742
5,ZYZYZ,151,1,638,Correct,5,858
5,RVRZR,161,2,719,Correct,5,812
5,CICIC,7,3,842,Correct,5,826
5,XLXLX,13,1,1168,Correct,5,826
5,YVYVY,152,1,918,Correct,5,924
5,CJCJC,191,1,827,Correct,5,814
5,FNFCF,16,2,918,Correct,5,757
5,PVPRP,162,2,847,Correct,5,734
5,FZFZF,151,1,889,Correct,5,682
5,NVIVN,223,2,1488,Incorrect,5,746
5,CVCIC,82,3,1021,Correct,5,832
5,ZXZXZ,13,1,717,Correct,5,837
5,FCFZF,161,2,1031,Correct,5,871
5,IXRXR,221,1,934,Correct,5,871
5,ZPZNZ,222,2,965,Correct,5,916
5,VZVZV,151,1,794,Correct,5,674
5,YRYNY,161,2,866,Correct,5,891
5,VNVPV,162,2,955,Correct,5,685
5,RVRJR,182,2,896,Correct,5,760
5,VRVRV,15,1,922,Correct,5,694
5,VIVIV,9,3,846,Correct,5,763
5,CXCVC,14,2,860,Correct,5,722
5,PZPZP,151,1,769,Correct,5,836
5,IXVKV,231,2,1213,Correct,5,738
5,YJYCY,173,2,1154,Incorrect,5,934
5,VYVYV,15,1,822,Correct,5,655
5,YVYVY,152,1,1059,Correct,5,678
5,NVNVN,153,1,1262,Correct,5,909
5,XYXVX,161,2,821,Correct,5,812
5,NJNCN,174,2,1039,Correct,5,810
5,NXNYN,16,2,826,Correct,5,907
5,VXVCV,162,2,877,Correct,5,946
5,ZKZKZ,151,1,757,Correct,5,823
5,XRXYX,161,2,836,Correct,5,650
5,ZCZXZ,162,2,985,Correct,5,894
5,KVKYI,235,2,1471,Correct,5,760
5,CNCNC,113,1,769,Correct,5,755
5,RIRIR,10,3,940,Correct,5,834
5,VYVXV,14,,,Incorrect,5,730
5,FXIRF,233,2,1096,Correct,5,893
5,PFPFP,113,1,664,Correct,5,754
5,VPVPV,152,1,696,Correct,5,813
5,ZJZJZ,195,1,944,Correct,5,926
5,ZVZNZ,16,2,784,Correct,5,899
5,YVYXY,162,2,893,Correct,5,701
5,PRPRP,151,1,1350,Correct,5,726
5,YPYPY,152,1,733,Correct,5,734
5,ZIZPZ,111,3,1301,Correct,5,944
5,NKNXN,14,2,1097,Correct,5,832
5,RZRXR,162,2,1243,Correct,5,711
5,RXRXR,151,1,720,Correct,5,905
5,ZJZJZ,196,1,972,Correct,5,803
5,CVCVI,225,1,1071,Incorrect,5,843
5,NKNKN,113,,,Incorrect,5,717
5,NRNZN,161,,,Incorrect,5,890
5,CNCNC,151,1,784,Correct,5,887
5,RFRIR,122,3,1023,Correct,5,701
6,B,5,3,1681,New Target,6,672
6,YKYZY,161,2,1350,Correct,6,838
6,VCVRV,162,2,714,Correct,6,803
6,XVXVX,151,1,883,Correct,6,876
6,KZKRK,161,2,741,Correct,6,884
6,ZVZXZ,162,2,885,Correct,6,702
6,RCRNR,163,2,1002,Correct,6,779
6,CXCRC,164,2,1083,Correct,6,830
6,VNBCV,233,2,1113,Correct,6,839
6,CXCVC,222,2,1096,Correct,6,767
6,RFRFR,151,1,817,Correct,6,935
6,XPXRX,161,2,1005,Correct,6,732
6,RYRBR,72,3,824,Correct,6,940
6,ZKZKZ,13,1,1051,Correct,6,933
6,FIFRF,171,2,1034,Correct,6,777
6,VZVLV,16,2,768,Correct,6,680
6,RPRVR,162,2,1071,Correct,6,677
6,YBYBY,8,3,1227,Correct,6,840
6,PYPVP,14,2,793,Correct,6,668
6,NININ,192,1,820,Correct,6,736
6,RNRNR,15,1,747,Correct,6,884
6,NXNVN,161,2,1113,Correct,6,770
6,RNRNR,151,1,713,Correct,6,690
6,FRFVF,161,2,690,Correct,6,871
6,YVYFB,235,2,894,Incorrect,6,854
6,ZRZXZ,222,2,710,Correct,6,749
6,VNVIV,193,2,1296,Incorrect,6,904
6,PXPNP,16,2,955,Correct,6,651
6,ZXZPZ,162,2,790,Correct,6,690
6,VBVBV,9,3,1003,Correct,6,893
6,CXCXC,13,1,900,Correct,6,675
6,PCPFP,161,2,698,Correct,6,741
6,KNKNK,151,1,838,Correct,6,819
6,XIXIX,194,1,912,Correct,6,742
6,CYCYC,15,1,671,Correct,6,925
6,FVFYF,161,2,717,Correct,6,789
6,YNYRY,162,2,726,Correct,6,929
6,BVPXP,231,2,927,Correct,6,871
6,NXNXN,113,1,893,Correct,6,942
6,FRFRF,152,1,783,Correct,6,866
6,YVYVY,153,1,882,Correct,6,943
6,ZKZCZ,161,2,742,Correct,6,837
6,VIVXV,175,2,795,Correct,6,917
6,PRBRP,223,1,1190,Correct,6,796
6,YZYBY,102,2,1396,Incorrect,6,664
6,CXCVC,14,2,952,Correct,6,782
6,FYFYF,151,1,745,Correct,6,911
6,VKVXV,161,2,1106,Correct,6,900
6,ZBZBZ,11,3,974,Correct,6,896
6,FPFNF,14,2,928,Correct,6,817
6,CXCXC,151,1,795,Correct,6,673
6,YCYCY,152,1,815,Correct,6,922
6,FPFPF,153,1,809,Correct,6,771
6,CVCVB,225,1,1016,Correct,6,662
6,ZCZCZ,113,1,690,Correct,6,935
6,CZCNC,161,2,848,Correct,6,766
6,KIKFK,176,2,804,Correct,6,912
6,PXPXP,15,1,863,Correct,6,739
6,RYRYR,152,2,709,Incorrect,6,812
6,ZRZCZ,161,2,1170,Correct,6,815
6,RVRVR,151,1,834,Correct,6,665
6,XYXNX,161,2,865,Correct,6,656
6,BVKVK,221,1,952,Correct,6,768
6,CBCBC,12,3,917,Correct,6,940
7,W,5,3,5653,New Target,7,701
7,RKRKR,151,1,1018,Correct,7,858
7,CVCRC,161,2,730,Correct,7,817
7,PKPKP,151,1,934,Correct,7,792
7,FPFPF,152,1,761,Correct,7,881
7,VRVPV,161,2,789,Correct,7,760
7,ZKZYZ,162,2,1027,Correct,7,724
7,PVPCP,233,2,754,Correct,7,882
7,KVKVK,113,1,1041,Correct,7,740
7,YXYVY,161,2,849,Correct,7,842
7,FNFNF,151,1,700,Correct,7,741
7,YWYWY,7,3,955,Correct,7,768
7,ZYZYZ,13,1,681,Correct,7,909
7,PYPYP,152,1,641,Correct,7,944
7,XRXRX,153,3,968,Incorrect,7,659
7,PXPXP,154,1,920,Correct,7,867
7,FCFBF,181,2,680,Correct,7,872
7,FVFVF,15,1,1146,Correct,7,713
7,CYCZC,161,2,980,Correct,7,864
7,XZXVX,162,2,1163,Correct,7,685
7,PFPFP,151,1,649,Correct,7,737
7,RVRLR,161,2,708,Correct,7,850
7,ZBZBZ,192,,,Incorrect,7,850
7,VCVNV,16,2,826,Correct,7,813
7,NWNWN,8,3,1171,Correct,7,776
7,XNXVX,14,2,851,Correct,7,651
7,CXCNC,162,2,795,Correct,7,788
7,YVYVW,225,1,870,Correct,7,794
7,VFVFV,113,1,937,Correct,7,848
7,VFWFV,223,1,862,Correct,7,759
7,CVCFC,222,2,1171,Correct,7,871
7,YBYBY,193,,,Incorrect,7,766
7,PYPYP,15,1,883,Correct,7,893
7,NKNWN,91,,,Incorrect,7,736
7,VNVNV,13,1,834,Correct,7,896
7,RVRVR,152,1,982,Correct,7,906
7,FVFBF,184,3,1063,Incorrect,7,864
7,VZVKV,16,2,1004,Correct,7,659
7,VPVCV,162,2,813,Correct,7,808
7,WYZCZ,231,2,857,Correct,7,763
7,PFPFP,113,1,805,Correct,7,680
7,PRPRP,152,1,1307,Correct,7,892
7,NWNWN,10,3,1573,Correct,7,669
7,VKVCV,14,2,940,Correct,7,941
7,WPYPY,221,1,891,Correct,7,925
7,VBVBV,195,1,865,Correct,7,835
7,ZKZYZ,16,2,952,Correct,7,758
7,XYXYX,151,1,1036,Correct,7,876
7,FZFXF,161,2,911,Correct,7,745
7,XKXKX,151,1,852,Correct,7,836
7,XPXPX,152,1,678,Correct,7,896
7,FWFWF,11,3,965,Correct,7,727
7,FNFBF,186,2,901,Correct,7,855
7,ZVZYZ,16,2,812,Correct,7,814
7,FZFZF,151,1,1041,Correct,7,872
7,NPNFW,235,2,836,Correct,7,726
7,PCPCP,113,1,601,Correct,7,922
7,NKNWN,122,3,1181,Correct,7,716
8,M,5,3,12347,New Target,8,815
8,VYVNV,161,2,795,Correct,8,920
8,KLKNK,162,2,808,Correct,8,758
8,NRNRN,151,1,891,Correct,8,933
8,VNVFV,161,2,795,Correct,8,935
8,XNXNM,225,1,1241,Correct,8,703
8,CXCVC,222,2,701,Correct,8,902
8,KRKZK,162,2,871,Correct,8,880
8,NMNFN,71,3,775,Correct,8,936
8,ZFZFZ,13,1,765,Correct,8,942
8,YPYCY,161,2,802,Correct,8,916
8,KCKCK,151,1,766,Correct,8,755
8,VNVNV,152,1,906,Correct,8,721
8,LXLXL,153,1,783,Correct,8,862
8,CLCLC,154,1,700,Correct,8,684
8,NYNYN,155,1,1019,Correct,8,829
8,LCMYL,233,2,1279,Correct,8,666
8,NCNCN,113,1,905,Correct,8,712
8,ZVZRZ,161,2,879,Correct,8,728
8,ZVZVZ,151,1,774,Correct,8,741
8,PZPVP,161,2,971,Correct,8,937
8,PWPNP,171,2,1231,Correct,8,770
8,KLKCM,235,2,933,Correct,8,912
8,XMXMX,8,3,876,Correct,8,728
8,PRPXP,14,2,979,Correct,8,750
8,CVCYC,162,2,838,Correct,8,834
8,PXPMP,92,3,894,Correct,8,821
8,ZCZLZ,14,2,850,Correct,8,852
8,XWXWX,192,1,920,Correct,8,790
8,ZCZLZ,16,2,764,Correct,8,827
8,MNCYC,231,2,1043,Correct,8,877
8,ZXZXZ,113,1,800,Correct,8,940
8,YRYNY,161,2,987,Correct,8,758
8,ZLZPZ,162,2,1028,Correct,8,659
8,VZVZV,151,1,929,Correct,8,924
8,MXPXP,221,1,964,Correct,8,882
8,VWVWV,193,1,1113,Correct,8,787
8,PYPYP,16,1,802,Incorrect,8,915
8,XPXVX,162,2,747,Correct,8,817
8,XLXLX,151,1,843,Correct,8,687
8,YMYMY,10,3,818,Correct,8,766
8,VYVYV,13,1,731,Correct,8,758
8,PWPZP,174,2,1176,Correct,8,747
8,PYPKP,16,2,801,Correct,8,918
8,NPNXN,162,2,1207,Correct,8,848
8,KVKVK,223,1,723,Correct,8,785
8,NVNFN,222,2,836,Correct,8,682
8,XNXNX,151,1,684,Correct,8,742
8,YZYMY,112,3,667,Correct,8,716
8,PFPFP,13,1,843,Correct,8,794
8,ZWZWZ,195,1,901,Correct,8,780
8,PCPZP,16,2,782,Correct,8,740
8,LRLPL,162,2,1064,Correct,8,774
8,CZCZC,151,1,825,Correct,8,770
8,NZNZN,152,1,933,Correct,8,734
8,CVCXC,161,2,784,Correct,8,664
8,XCXCX,151,1,634,Correct,8,827
8,YWYWY,196,1,761,Correct,8,780
8,NLNLN,15,1,752,Correct,8,903
8,VNVNV,152,1,794,Correct,8,832
8,ZMZMZ,12,3,675,Correct,8,777
9,S,5,3,5738,New Target,9,850
9,NZNZN,151,1,1045,Correct,9,885
9,KVKZK,161,2,1175,Correct,9,722
9,LZLZL,151,1,691,Correct,9,813
9,XLXLX,152,1,979,Correct,9,758
9,ZXZXZ,153,1,729,Correct,9,730
9,KNKZK,161,2,762,Correct,9,685
9,NRNYN,162,2,805,Correct,9,828
9,CLCVC,163,2,704,Correct,9,726
9,ZCZFZ,164,2,608,Correct,9,709
9,NSNSN,7,3,914,Correct,9,803
9,VZVZV,13,1,982,Correct,9,785
9,NVNCN,161,2,751,Correct,9,666
9,VMVMV,191,1,1470,Correct,9,681
9,CVCXC,16,2,1373,Correct,9,835
9,ZYZRZ,162,2,721,Correct,9,790
9,XNXZX,163,2,588,Correct,9,834
9,PXPXP,151,1,705,Correct,9,690
9,VCVSV,82,3,1048,Correct,9,918
9,PRPCP,14,2,889,Correct,9,706
9,ZMZMZ,192,1,1192,Incorrect,9,950
9,ZFZFZ,15,1,656,Correct,9,858
9,FCFCF,152,1,687,Correct,9,778
9,YLYZY,161,2,1010,Correct,9,691
9,KNKVK,162,2,1030,Correct,9,722
9,SFPCP,231,2,857,Correct,9,723
9,RPRPR,113,1,900,Correct,9,665
9,XMXMX,193,1,789,Correct,9,895
9,KFKFK,15,1,685,Correct,9,823
9,VSVSV,9,3,870,Correct,9,900
9,YVSVY,223,1,880,Correct,9,817
9,VPVPV,113,1,771,Correct,9,896
9,XZXZX,152,1,752,Correct,9,673
9,KZKXK,161,2,1145,Correct,9,878
9,RFRPR,162,2,1159,Correct,9,731
9,NVNVS,225,1,982,Correct,9,737
9,ZXZXZ,113,1,667,Correct,9,743
9,SRVRV,221,1,860,Correct,9,676
9,YCYCY,113,1,817,Correct,9,832
9,KMKZK,174,2,989,Correct,9,699
9,FZSVF,233,2,1090,Correct,9,717
9,VYVYV,113,1,724,Correct,9,683
9,LVLVL,152,1,670,Correct,9,867
9,YFYFY,153,1,610,Correct,9,657
9,NXNSN,102,2,1012,Incorrect,9,826
9,FNFCF,14,2,804,Correct,9,865
9,KVKVK,151,1,756,Correct,9,654
9,VZVCV,161,2,875,Correct,9,831
9,ZYZMZ,185,2,1030,Correct,9,713
9,VXVZV,16,2,613,Correct,9,833
9,VPVPV,151,1,732,Correct,9,661
9,RVRNS,235,2,1069,Correct,9,656
9,YZYZY,113,1,762,Correct,9,860
9,ZSZSZ,11,1,677,Incorrect,9,825
9,FRFRF,13,1,991,Correct,9,856
9,ZMZMZ,196,1,920,Correct,9,692
9,NZNXN,16,2,826,Correct,9,903
9,LSLFL,121,3,766,Correct,9,923
10,Q,5,3,8536,New Target,10,736
10,ZVZPZ,161,2,1028,Correct,10,659
10,RZRZR,151,1,689,Correct,10,919
10,ZFZFZ,152,1,667,Correct,10,946
10,RZRZR,153,1,662,Correct,10,885
10,PZPXP,161,2,845,Correct,10,679
10,VFQPV,233,2,1198,Correct,10,891
10,ZPZRZ,222,2,962,Correct,10,939
10,CYCVC,162,2,1018,Correct,10,651
10,CPCPC,151,1,809,Correct,10,820
10,YZYQY,72,3,834,Correct,10,811
10,FVFXF,14,2,779,Correct,10,755
10,YNYNQ,225,1,913,Correct,10,880
10,ZYZYZ,113,1,651,Correct,10,687
10,FRFSF,181,2,767,Incorrect,10,699
10,XNXPX,16,2,651,Correct,10,744
10,NXNXN,151,1,814,Correct,10,662
10,PVPZP,161,2,742,Correct,10,836
10,XVXPX,162,2,940,Correct,10,945
10,FXFVF,163,2,767,Correct,10,875
10,NSNKN,172,2,923,Incorrect,10,773
10,VXVNV,16,2,799,Correct,10,828
10,XZXZX,151,1,793,Correct,10,830
10,VQVQV,8,3,979,Correct,10,800
10,ZYZPZ,14,2,893,Correct,10,674
10,PZPSP,183,2,866,Correct,10,838
10,YVYVY,15,1,648,Correct,10,819
10,NCNQN,92,3,981,Correct,10,830
10,FCFVF,14,2,808,Correct,10,788
10,ZFZFZ,151,1,672,Correct,10,868
10,NSNSN,194,1,1262,Correct,10,790
10,YPYFY,16,2,933,Correct,10,856
10,ZKZKZ,151,1,1029,Correct,10,912
10,QZRCR,231,2,1106,Correct,10,897
10,YPYVY,222,2,668,Correct,10,916
10,ZNZNZ,151,1,729,Correct,10,807
10,VQVQV,10,3,837,Correct,10,851
10,RVRZR,14,2,879,Correct,10,759
10,KRKSK,185,2,882,Correct,10,936
10,NPNPN,15,1,1175,Correct,10,825
10,YPYPY,152,1,614,Correct,10,711
10,VCVYV,161,2,675,Correct,10,923
10,FPFNF,162,2,878,Correct,10,932
10,QVXVX,221,2,922,Incorrect,10,667
10,ZVZRZ,222,2,686,Correct,10,804
10,LFLFL,151,1,846,Correct,10,739
10,VLVLV,152,1,730,Correct,10,685
10,KXQXK,223,1,795,Correct,10,721
10,YQYQY,11,3,535,Correct,10,710
10,YCYCY,13,1,837,Correct,10,913
10,PZPYP,161,2,1290,Correct,10,929
10,LPLFL,162,2,736,Correct,10,834
10,VSVSV,196,1,765,Correct,10,778
10,VFVYQ,235,2,822,Correct,10,785
10,CZCXC,222,2,736,Correct,10,750
10,PVPCP,162,2,782,Correct,10,809
10,CXCXC,151,1,895,Correct,10,926
10,NZNZN,152,1,694,Correct,10,773
10,YPYCY,161,2,1007,Correct,10,899
10,ZQZQZ,12,3,781,Correct,10,889
11,T,5,3,13954,New Target,11,757
11,KFKFK,151,1,817,Correct,11,922
11,LZLZL,152,1,605,Correct,11,671
11,PFPVP,161,2,840,Correct,11,921
11,FRFPF,162,2,1133,Correct,11,873
11,FZFZF,151,1,666,Correct,11,747
11,VTVTV,7,1,708,Incorrect,11,849
11,KYKCK,14,2,883,Correct,11,743
11,VPVPV,151,1,724,Correct,11,909
11,XQXQX,191,1,708,Correct,11,745
11,PZPYP,16,2,816,Correct,11,889
11,KXKLK,162,2,1107,Correct,11,866
11,TCNCN,221,1,716,Correct,11,904
11,PZPNP,222,,,Incorrect,11,933
11,RCRPR,162,2,840,Correct,11,915
11,PZPRT,235,2,685,Correct,11,922
11,XFXVX,222,2,649,Correct,11,788
11,LTLVL,81,3,1001,Correct,11,768
11,ZCZPZ,14,2,696,Correct,11,879
11,NCNQN,182,2,737,Correct,11,918
11,XZXNX,16,2,697,Correct,11,892
11,ZPZPZ,151,1,762,Correct,11,660
11,CFCFC,152,1,684,Correct,11,668
11,VXTRV,233,2,812,Correct,11,739
11,CFCVC,222,2,869,Correct,11,833
11,PYPYP,151,1,701,Correct,11,755
11,FQFYF,173,2,937,Correct,11,855
11,CNCFC,16,2,610,Correct,11,660
11,PTPTP,9,1,911,Incorrect,11,935
11,ZCZCZ,13,1,873,Correct,11,677
11,KZKZK,152,3,687,Incorrect,11,831
11,RLRVR,161,2,1054,Correct,11,810
11,ZRZKZ,162,2,894,Correct,11,765
11,KLKLT,225,1,1086,Correct,11,942
11,ZQZQZ,194,1,987,Correct,11,781
11,VZVZV,15,1,1099,Correct,11,879
11,RVRZR,161,2,1053,Correct,11,691
11,ZPZCZ,162,2,746,Correct,11,906
11,VYVYV,151,1,806,Correct,11,792
11,RVRVR,152,1,1040,Correct,11,749
11,PTPTP,10,3,910,Correct,11,807
11,PXPXP,13,1,835,Correct,11,783
11,KCKCK,152,1,703,Correct,11,747
11,YVYVY,153,1,677,Correct,11,945
11,CYCYC,154,1,804,Correct,11,846
11,XCXCX,155,1,600,Correct,11,932
11,CYCQC,185,2,896,Correct,11,670
11,KCKNK,16,2,680,Correct,11,788
11,VPVPV,151,1,855,Correct,11,771
11,TXFZF,231,2,841,Correct,11,927
11,NYNVN,222,2,719,Correct,11,816
11,VQVXV,176,2,551,Correct,11,865
11,ZRZRZ,15,1,838,Correct,11,925
11,VTVZV,111,3,904,Correct,11,942
11,PXPVP,14,2,845,Correct,11,862
11,FVFVF,151,1,715,Correct,11,671
11,VRVLV,161,2,722,Correct,11,903
11,YCYCY,151,1,556,Correct,11,834
11,XZTZX,223,1,974,Correct,11,816
11,VTVTV,12,3,658,Correct,11,741
12,O,5,3,5827,New Target,12,828
12,VXVLV,161,2,907,Correct,12,700
12,KVKCK,162,2,580,Correct,12,737
12,VLVLV,151,1,645,Correct,12,818
12,ZCZVZ,161,2,581,Correct,12,785
12,KFKFK,151,1,674,Correct,12,937
12,XKXKX,152,1,793,Correct,12,930
12,YXYXY,153,1,546,Correct,12,818
12,FVFVF,154,1,740,Correct,12,875
12,PVPOP,72,3,1508,Correct,12,696
12,ZXZYZ,14,1,767,Incorrect,12,860
12,PXPVP,162,2,750,Correct,12,709
12,ZTZTZ,191,1,735,Correct,12,695
12,CVCKC,16,2,797,Correct,12,687
12,CKCKC,151,1,715,Correct,12,658
12,NPNPN,152,1,661,Correct,12,840
12,ZRZNZ,161,2,660,Correct,12,734
12,OZCZC,221,1,1509,Correct,12,783
12,LFLFL,113,1,649,Correct,12,658
12,CXCXC,152,1,1178,Correct,12,776
12,KPKPK,153,1,563,Correct,12,811
12,FRFKF,161,2,685,Correct,12,678
12,FOFOF,8,3,523,Correct,12,753
12,ZFZFZ,13,1,657,Correct,12,794
12,LKLZO,235,2,732,Correct,12,863
12,KLKZK,222,2,860,Correct,12,666
12,YXYCY,162,2,701,Correct,12,948
12,LOLOL,9,3,573,Correct,12,707
12,XLXLX,13,2,510,Incorrect,12,829
12,XVXVX,152,1,686,Correct,12,915
12,FTFTF,192,1,971,Correct,12,839
12,OXNZN,231,2,1262,Correct,12,802
12,CZCZC,113,1,729,Correct,12,778
12,LZLZL,152,1,579,Correct,12,851
12,VLVPV,161,2,803,Correct,12,858
12,VYVYO,225,1,1211,Correct,12,827
12,XKXKX,113,1,1023,Correct,12,914
12,RTRTR,193,1,863,Correct,12,827
12,KVKCK,16,2,745,Correct,12,788
12,ROROR,101,3,744,Correct,12,728
12,PRPRP,13,1,997,Correct,12,822
12,LYLVL,161,2,778,Correct,12,726
12,PLPLP,151,,,Incorrect,12,800
12,CTCTC,194,1,642,Correct,12,725
12,XZXYX,16,2,749,Correct,12,933
12,NKNKN,151,1,1144,Correct,12,869
12,VLVZV,161,2,656,Correct,12,859
12,YOYOY,11,3,826,Correct,12,919
12,PZOZP,223,1,1206,Correct,12,700
12,FYFYF,113,1,691,Correct,12,692
12,ZXZVZ,161,2,1221,Correct,12,761
12,VKVZV,162,2,744,Correct,12,920
12,ZTZTZ,195,1,1033,Correct,12,674
12,LKLZL,16,2,822,Correct,12,880
12,KCKVK,162,2,926,Correct,12,857
12,PXPKP,163,2,868,Correct,12,730
12,KCOZK,233,2,1024,Correct,12,653
12,FKFKF,113,1,653,Correct,12,946
12,CTCRC,176,2,765,Correct,12,808
12,NXNXN,15,2,788,Incorrect,12,886
12,KXKVK,161,2,667,Correct,12,837
12,CPCOC,122,3,1091,Correct,12,942
13,H,5,3,8038,New Target,13,701
13,VFVNV,151,2,975,Incorrect,13,758
13,YVYVY,152,1,754,Correct,13,837
13,XVXVX,153,1,589,Correct,13,745
13,NRNXN,161,2,731,Correct,13,945
13,PZPKP,162,2,608,Correct,13,950
13,HLVLV,221,2,897,Incorrect,13,754
13,CXCZC,222,2,843,Correct,13,656
13,LHLYL,71,2,1060,Incorrect,13,765
13,YKYFY,14,2,1294,Correct,13,921
13,YOYRY,171,2,1090,Correct,13,839
13,ZKZYZ,16,2,947,Correct,13,777
13,RZRZR,151,1,823,Correct,13,846
13,NFNYN,161,2,1142,Correct,13,656
13,KVKFK,162,2,1000,Correct,13,693
13,XFXYX,163,2,661,Correct,13,920
13,LKLVL,164,2,832,Correct,13,908
13,NLNLN,151,1,694,Correct,13,814
13,XCXOX,182,2,926,Correct,13,912
13,FXFXF,15,1,801,Correct,13,849
13,VHVHV,8,3,842,Correct,13,835
13,PVPVP,13,1,658,Correct,13,738
13,CRCXC,161,2,723,Correct,13,772
13,NXNXN,151,1,735,Correct,13,878
13,XRXRX,152,1,540,Correct,13,727
13,YFYXY,161,2,606,Correct,13,842
13,ZOZOZ,193,1,819,Correct,13,673
13,RZRZR,15,1,742,Correct,13,901
13,FKFKF,152,1,793,Correct,13,651
13,PFPFP,153,1,625,Correct,13,815
13,XYXHX,92,3,907,Correct,13,924
13,RZRKR,14,2,715,Correct,13,884
13,FLFLH,225,1,600,Correct,13,759
13,KRKRK,113,1,677,Correct,13,866
13,ZVZNZ,161,2,710,Correct,13,704
13,ZOZOZ,194,1,867,Correct,13,782
13,FZFZF,15,1,665,Correct,13,877
13,FHFKF,101,3,664,Correct,13,730
13,ZXHLZ,233,2,690,Correct,13,947
13,FKFXF,222,2,828,Correct,13,847
13,CFCYC,162,2,726,Correct,13,804
13,ZXZVZ,163,2,671,Correct,13,938
13,KCKOK,185,2,759,Correct,13,899
13,ZXZVH,235,2,661,Correct,13,731
13,CKCKC,113,1,1030,Correct,13,755
13,ZXZCZ,161,2,1019,Correct,13,734
13,YVYVY,151,1,733,Correct,13,766
13,RVHVR,223,1,584,Correct,13,822
13,ZRZRZ,113,1,554,Correct,13,773
13,ZHZHZ,11,3,554,Correct,13,882
13,VZVZV,13,1,622,Correct,13,755
13,HZVRV,231,2,1348,Correct,13,657
13,FVFVF,113,1,689,Correct,13,948
13,RNRCR,161,2,700,Correct,13,847
13,COCOC,196,1,828,Correct,13,752
13,VNVXV,16,2,761,Correct,13,698
13,XHXHX,12,3,738,Correct,13,851
14,G,5,3,7202,New Target,14,716
14,FZFZF,151,1,674,Correct,14,913
14,RPRVR,161,2,742,Correct,14,680
14,XCXCX,151,1,608,Correct,14,850
14,YXYXY,152,1,659,Correct,14,701
14,KZKZK,153,1,661,Correct,14,710
14,RYRKR,161,2,756,Correct,14,802
14,FYFNF,162,2,804,Correct,14,693
14,VKVKV,151,1,722,Correct,14,714
14,KPGPK,223,1,1389,Correct,14,860
14,YNYNY,113,1,725,Correct,14,701
14,VYVYV,152,1,657,Correct,14,773
14,YCYXY,161,2,732,Correct,14,886
14,LKLGL,72,3,905,Correct,14,756
14,VXVXV,13,1,698,Correct,14,913
14,KCKVK,161,2,745,Correct,14,776
14,YKYKY,151,1,625,Correct,14,905
14,RHRXR,171,2,886,Correct,14,671
14,FVFCF,16,2,807,Correct,14,938
14,YXYGY,82,3,698,Correct,14,850
14,CLCLC,13,1,997,Correct,14,817
14,ZXZCZ,161,2,777,Correct,14,829
14,VLVFV,162,2,641,Correct,14,825
14,CPCPG,225,1,660,Correct,14,693
14,KHKNK,172,2,1170,Correct,14,860
14,ZKZVZ,16,2,940,Correct,14,769
14,YKYLY,162,2,686,Correct,14,891
14,CNCNC,151,1,744,Correct,14,921
14,PGPGP,9,3,1074,Correct,14,859
14,VPVPV,13,1,786,Correct,14,765
14,FXGRF,233,2,1322,Correct,14,860
14,CYCVC,222,2,1248,Correct,14,814
14,FNFNF,151,1,925,Correct,14,697
14,KFKCK,161,2,755,Correct,14,731
14,ZFZHZ,183,2,793,Correct,14,904
14,NXNXN,15,1,992,Correct,14,837
14,FNFNF,152,1,803,Correct,14,799
14,LXLNG,235,2,1018,Correct,14,896
14,XKXVX,222,2,624,Correct,14,727
14,ZHZHZ,194,1,718,Correct,14,864
14,PFPFP,15,1,728,Correct,14,906
14,ZYZYZ,152,1,647,Correct,14,717
14,XPXVX,161,2,745,Correct,14,764
14,YCYCY,151,1,564,Correct,14,766
14,RGRGR,10,3,970,Correct,14,755
14,VRVRV,13,1,897,Correct,14,695
14,PKPNP,161,2,934,Correct,14,846
14,XGXGX,11,1,776,Incorrect,14,819
14,GZYVY,231,2,592,Correct,14,868
14,VCVNV,222,2,738,Correct,14,785
14,VHVHV,195,1,705,Correct,14,758
14,LXLNL,16,2,604,Correct,14,777
14,GKPKP,221,1,828,Correct,14,840
14,XRXPX,222,1,1000,Incorrect,14,755
14,XNXNX,151,1,984,Correct,14,857
14,KHKNK,176,2,765,Incorrect,14,775
14,RZRZR,15,1,780,Correct,14,726
14,CGCFC,121,2,1348,Incorrect,14,886
15,A,5,3,5883,New Target,15,767
15,XRXFX,161,2,1167,Correct,15,749
15,RXRKR,162,2,1052,Correct,15,733
15,YRYRY,151,1,607,Correct,15,734
15,XPXPX,152,1,562,Correct,15,756
15,RPRPR,153,1,1080,Correct,15,758
15,NCNCN,154,1,681,Correct,15,711
15,RXRZR,161,2,729,Correct,15,745
15,NANAN,7,3,982,Correct,15,794
15,KCKYK,14,2,969,Correct,15,822
15,XKXFX,162,2,893,Correct,15,745
15,ZLZKZ,163,2,709,Correct,15,798
15,VCVZV,164,2,624,Correct,15,800
15,XCXVX,165,2,725,Correct,15,668
15,LKLZA,235,2,671,Correct,15,874
15,NCNCN,113,1,860,Correct,15,854
15,YGYGY,191,1,681,Correct,15,659
15,VLVLV,15,1,589,Correct,15,678
15,XRXRX,152,1,721,Correct,15,739
15,KAKPK,81,3,853,Correct,15,660
15,YZAZY,233,1,697,Incorrect,15,899
15,CFCFC,113,1,788,Correct,15,815
15,VNVLV,161,2,881,Correct,15,736
15,KPKVK,162,2,709,Correct,15,879
15,NCNRN,163,2,663,Correct,15,673
15,FGFGF,192,1,604,Correct,15,655
15,RCRYR,16,2,590,Correct,15,814
15,KRKCK,162,2,656,Correct,15,806
15,CRCRC,151,1,677,Correct,15,666
15,XPAPX,223,1,1065,Correct,15,707
15,LPLXL,222,2,761,Correct,15,813
15,CGCVC,173,2,729,Correct,15,675
15,FKFZF,16,2,761,Correct,15,683
15,CACAC,9,3,704,Correct,15,928
15,XCXCX,13,1,666,Correct,15,771
15,AXRXR,221,1,937,Correct,15,767
15,NKNRN,222,2,730,Correct,15,867
15,KNKFK,162,2,838,Correct,15,773
15,KAKAK,10,1,725,Incorrect,15,679
15,ZCZRZ,14,2,560,Correct,15,807
15,RPRPR,151,1,1014,Correct,15,730
15,NCNCN,152,1,649,Correct,15,740
15,RYRGR,184,2,598,Correct,15,793
15,VPVPV,15,1,755,Correct,15,870
15,RCRCA,225,1,626,Correct,15,733
15,KXKPK,222,2,1230,Correct,15,898
15,NPNPN,151,1,661,Correct,15,841
15,YCYCY,152,1,611,Correct,15,857
15,PXPAP,112,3,867,Correct,15,793
15,ZCZNZ,14,2,728,Correct,15,815
15,KYKGK,185,2,597,Correct,15,769
15,ANLPL,231,2,1218,Correct,15,910
15,CXCPC,222,2,1145,Correct,15,889
15,YRYRY,151,1,872,Correct,15,747
15,LGLGL,196,1,817,Correct,15,763
15,VYVLV,16,2,821,Correct,15,938
15,KVKVK,151,2,911,Incorrect,15,785
15,RKRKR,152,1,751,Correct,15,945
15,VXVXV,153,1,727,Correct,15,875
15,XAXAX,12,3,678,Correct,15,706
