Trial No,Stimulus,Trigger,Response,Response Time(ms),Correct,Block,Fixation Duration
Practice
OT Practice
1,SKSKS,15,1,1308,Correct,0,791
1,DLDUD,16,2,938,Correct,0,895
1,PDPGP,16,2,1165,Correct,0,703
1,MWMWM,15,1,883,Correct,0,838
1,FTFTF,15,1,700,Correct,0,658
1,AXAMA,16,2,699,Correct,0,660
1,RYRGR,16,2,662,Correct,0,724
1,DODOD,15,1,702,Correct,0,908
1,QTQAQ,16,2,1080,Correct,0,770
1,YEYEY,15,1,630,Correct,0,717
AT Practice
1,TKTKT,15,1,1120,Correct,0,693
1,SLSUS,16,2,741,Correct,0,879
1,VZVGV,7,2,860,False,0,838
1,XWXZX,7,3,1363,Correct,0,692
1,ATATA,15,1,1415,Correct,0,710
1,HXZMH,16,2,1190,Correct,0,771
1,TZTZT,7,,,False,0,938
1,UOUOU,15,2,1572,False,0,719
1,ZTWAW,16,,,False,0,844
1,RZRER,7,3,1055,Correct,0,851
2,JYJDJ,16,2,1285,Correct,0,898
2,DWDWD,15,1,798,Correct,0,673
2,GNGNG,7,3,717,Correct,0,937
2,NEZEZ,16,1,1076,Correct,0,857
2,RNROR,7,2,786,False,0,719
2,QTQNQ,7,3,796,Correct,0,699
2,HOHON,15,1,1011,Correct,0,828
2,KPKGK,16,2,1012,Correct,0,754
2,DRDED,16,2,1133,Correct,0,934
2,LNLNL,7,3,662,Correct,0,782
Trials
1,D,5,3,28255,New Target,1,804
1,BNBYB,161,2,1082,Correct,1,887
1,FBFBF,151,1,908,Correct,1,726
1,RKRKR,152,1,914,Correct,1,797
1,QSQNQ,161,2,733,Correct,1,706
1,CTCFC,162,2,826,Correct,1,760
1,PDPDP,7,3,768,Correct,1,804
1,OPOFO,14,2,918,Correct,1,942
1,HLHNH,162,2,736,Correct,1,651
1,MFMFM,151,1,786,Correct,1,652
1,BTBTB,152,1,990,Correct,1,715
1,MCMPD,235,2,835,Correct,1,757
1,BMBFB,222,2,918,Correct,1,918
1,NTNZN,162,2,779,Correct,1,758
1,MXMRM,163,2,811,Correct,1,683
1,APABA,164,2,981,Correct,1,766
1,FMDMF,223,1,782,Correct,1,653
1,QPQPQ,113,1,857,Correct,1,798
1,VQVMV,161,2,667,Correct,1,929
1,RERPR,162,2,809,Correct,1,867
1,KVKVK,151,1,662,Correct,1,685
1,AKAHA,161,2,783,Correct,1,919
1,VDVDV,8,3,492,Correct,1,683
1,DUGUG,221,1,966,Correct,1,684
1,AFAFA,113,1,684,Correct,1,692
1,GYGYG,152,1,798,Correct,1,713
1,VXVSV,161,2,674,Correct,1,941
1,DOWGW,231,2,1023,Correct,1,886
1,QYQYQ,113,1,543,Correct,1,842
1,ODONO,91,3,1200,Correct,1,816
1,MSMSM,13,1,716,Correct,1,777
1,GYGYG,152,1,811,Correct,1,745
1,UMUMU,153,1,829,Correct,1,950
1,BZBZB,154,1,758,Correct,1,788
1,NTNBN,161,2,765,Correct,1,914
1,GNDYG,233,2,871,Correct,1,759
1,OCOSO,222,2,1081,Correct,1,901
1,BHBFB,162,2,752,Correct,1,939
1,QCQBQ,163,2,848,Correct,1,705
1,LQLQL,151,1,851,Correct,1,909
1,ZDZDZ,10,3,793,Correct,1,803
1,QNQZQ,14,2,864,Correct,1,913
1,CSCYC,162,2,675,Correct,1,906
1,RCRLR,163,2,641,Correct,1,860
1,FRFRF,151,1,699,Correct,1,903
1,WFWFW,152,1,663,Correct,1,804
1,QOQLQ,161,2,675,Correct,1,907
1,AWAQA,162,2,772,Correct,1,703
1,EAEAE,151,1,736,Correct,1,818
1,AGAUA,161,2,713,Correct,1,895
1,YMYMY,151,1,650,Correct,1,712
1,XQXQX,152,1,697,Correct,1,820
1,SHSGS,161,2,585,Correct,1,690
1,PDPDP,11,3,699,Correct,1,764
1,ZGZGZ,13,1,857,Correct,1,806
1,OXOXO,152,1,667,Correct,1,903
1,LYLYL,153,1,903,Correct,1,927
1,NKNKD,225,1,989,Correct,1,767
1,GNGNG,113,1,841,Correct,1,939
1,OYOBO,161,2,726,Correct,1,665
1,SOSOS,151,1,809,Correct,1,654
1,VHVHV,152,1,728,Correct,1,704
1,OKOXO,161,1,738,Incorrect,1,882
1,EZEZE,151,1,849,Correct,1,723
1,LDLDL,12,3,647,Correct,1,825
2,U,5,3,4116,New Target,2,830
2,BVBEB,161,2,1420,Correct,2,700
2,FBFBF,151,1,732,Correct,2,875
2,RFRFR,152,1,920,Correct,2,790
2,NBNKN,161,2,747,Correct,2,884
2,MKMNM,162,2,1114,Correct,2,677
2,QXQXQ,151,1,909,Correct,2,667
2,MQMYM,161,2,718,Correct,2,905
2,TGTPT,162,2,715,Correct,2,841
2,XOXOX,151,3,647,Incorrect,2,786
2,CUCUC,7,1,812,Incorrect,2,670
2,RFRFR,13,1,888,Correct,2,750
2,VYVSV,161,2,719,Correct,2,746
2,VDVDV,191,1,1150,Correct,2,746
2,GKGQG,15,2,681,Correct,2,844
2,SCSCS,151,1,809,Correct,2,687
2,CTCUC,82,3,946,Correct,2,847
2,RCRCR,13,1,663,Correct,2,734
2,BOBXB,161,2,688,Correct,2,903
2,FMFAF,162,2,794,Correct,2,939
2,BEBAB,163,2,756,Correct,2,820
2,PWPWP,151,1,658,Correct,2,666
2,UQCKC,231,2,734,Correct,2,835
2,OCOCO,113,1,744,Correct,2,815
2,TNTNT,152,1,993,Correct,2,879
2,QCQGQ,161,2,761,Correct,2,667
2,WVWVW,151,1,737,Correct,2,867
2,TQTQT,152,1,649,Correct,2,875
2,FOFOF,225,1,614,Correct,2,845
2,WVWFW,222,2,827,Correct,2,661
2,SWSWS,151,1,677,Correct,2,698
2,FYFCF,161,2,707,Correct,2,847
2,SUSWS,91,2,654,Incorrect,2,895
2,CACHC,14,2,865,Correct,2,674
2,VDVKV,172,2,1260,Correct,2,753
2,YCYCY,15,1,620,Correct,2,942
2,NMNTN,161,2,633,Correct,2,872
2,XOUKX,233,2,871,Correct,2,827
2,BPBPB,113,1,800,Correct,2,712
2,MRMRM,152,1,772,Correct,2,941
2,XMXMX,153,1,682,Correct,2,948
2,AUAHA,101,3,681,Correct,2,771
2,XKXEU,235,2,904,Correct,2,745
2,TFTFT,113,1,615,Correct,2,949
2,MDMDM,193,1,774,Correct,2,880
2,WYWMW,16,2,669,Correct,2,872
2,AZUZA,223,1,1356,Correct,2,799
2,KEKHK,222,2,874,Correct,2,937
2,LALAL,151,1,595,Correct,2,699
2,CWCDC,184,2,691,Incorrect,2,811
2,SGSTS,16,2,719,Correct,2,798
2,PXPXP,151,1,654,Correct,2,708
2,GRGYG,161,2,767,Correct,2,711
2,PUPOP,111,3,1046,Correct,2,876
2,RNRNR,14,1,844,Correct,2,703
2,KDKDK,195,1,750,Correct,2,940
2,KTKTK,15,1,730,Correct,2,820
2,OROKO,161,2,953,Correct,2,729
2,UNANA,221,1,1264,Correct,2,730
2,TATAT,113,1,662,Correct,2,862
2,AWAWA,152,1,801,Incorrect,2,926
2,RDRDR,196,1,857,Correct,2,834
2,FCFCF,15,1,620,Correct,2,930
2,ZMZMZ,152,1,713,Correct,2,933
2,BUBUB,12,3,608,Correct,2,917
3,E,5,3,7523,New Target,3,684
3,YZYZY,151,1,695,Correct,3,817
3,VFVNV,161,2,727,Correct,3,753
3,KAKAK,151,1,593,Correct,3,825
3,TKTKT,152,1,727,Correct,3,681
3,WHWTW,161,2,646,Correct,3,704
3,QEQFQ,71,3,985,Correct,3,701
3,XNXNX,13,1,700,Correct,3,781
3,TXTXT,152,1,943,Correct,3,656
3,GLGNG,161,2,644,Correct,3,739
3,CUCTC,171,2,837,Correct,3,775
3,FAFQF,16,2,812,Correct,3,824
3,ZLZLZ,151,1,761,Correct,3,710
3,YZYZY,152,1,600,Correct,3,686
3,CYCYC,153,1,620,Correct,3,712
3,HUHUH,192,1,1160,Correct,3,874
3,OSORO,16,2,765,Correct,3,657
3,YOYOY,151,1,659,Correct,3,884
3,CECEC,8,3,594,Correct,3,824
3,VNENV,223,1,980,Correct,3,743
3,KQKFK,222,2,740,Correct,3,802
3,XLXLE,225,1,1012,Correct,3,703
3,QUQUQ,193,1,903,Correct,3,712
3,SWSLS,16,2,776,Correct,3,895
3,NBNPN,162,2,904,Correct,3,677
3,SGSGS,151,1,1019,Correct,3,841
3,FBFBF,152,1,805,Correct,3,947
3,PFPFP,153,1,754,Correct,3,713
3,AGASA,161,2,674,Correct,3,669
3,KEKEK,9,3,767,Correct,3,831
3,CWCOC,14,2,827,Correct,3,755
3,HXHXH,151,1,694,Correct,3,707
3,NUNZN,174,2,696,Correct,3,672
3,QMQVQ,16,2,694,Correct,3,821
3,SQSQS,151,1,598,Correct,3,750
3,ERNFN,231,2,936,Incorrect,3,731
3,AQANA,222,2,830,Correct,3,714
3,OBOEO,102,3,728,Correct,3,773
3,SYSXS,14,2,742,Correct,3,791
3,QBQHQ,162,2,605,Correct,3,889
3,XQXQX,151,1,688,Correct,3,779
3,KUKFK,175,2,911,Correct,3,705
3,RKRKR,15,1,809,Correct,3,730
3,GFGFG,152,1,967,Correct,3,660
3,YBYVY,161,2,895,Correct,3,695
3,SPSTS,162,2,807,Correct,3,713
3,AQAQA,151,1,608,Correct,3,787
3,EPVPV,221,1,739,Correct,3,773
3,CQCEC,112,3,929,Correct,3,754
3,RFRCR,14,2,937,Correct,3,668
3,CPCVC,162,2,633,Correct,3,918
3,RXRCR,163,2,581,Correct,3,903
3,TNTLT,164,2,791,Correct,3,790
3,BSBSB,151,1,727,Correct,3,678
3,ZBZBZ,152,1,691,Correct,3,810
3,OYOUO,186,2,671,Correct,3,807
3,AKAOA,16,2,607,Correct,3,788
3,YQEWY,233,2,531,Correct,3,708
3,ZMZMZ,113,1,602,Correct,3,732
3,SWSTS,161,2,700,Correct,3,775
3,MFMQE,235,2,693,Correct,3,890
3,RSRLR,222,2,625,Correct,3,865
3,QEQWQ,121,2,645,Incorrect,3,682
4,K,5,3,5806,New Target,4,680
4,CACHC,161,2,983,Correct,4,746
4,RWRCR,162,2,710,Correct,4,912
4,FOFVF,163,2,647,Correct,4,714
4,LGLGL,151,1,699,Correct,4,670
4,PLPLP,152,1,630,Correct,4,880
4,NPNPN,153,1,667,Correct,4,673
4,SGSZS,161,2,619,Correct,4,790
4,DNDMD,162,2,733,Correct,4,763
4,OCOAK,235,2,664,Correct,4,849
4,VYVYV,113,1,595,Correct,4,813
4,RLRLR,152,1,576,Correct,4,903
4,DKDKD,7,3,701,Correct,4,881
4,ZLZLZ,13,1,873,Correct,4,807
4,FZFZF,152,2,622,Incorrect,4,832
4,CFCFC,153,1,795,Correct,4,895
4,OZOZO,154,1,788,Correct,4,830
4,XEXEX,191,1,739,Correct,4,678
4,NVNFN,16,2,732,Correct,4,911
4,AYAYA,151,1,661,Correct,4,816
4,BNBVB,161,2,777,Correct,4,718
4,AHKXA,233,2,1202,Correct,4,834
4,WFWFW,113,1,561,Correct,4,661
4,SNSNS,152,1,597,Correct,4,746
4,FKFMF,81,1,647,Incorrect,4,808
4,DZDYD,14,2,1205,Correct,4,890
4,GXGDG,162,2,719,Correct,4,793
4,AYAYK,225,1,1114,Correct,4,843
4,FPFGF,222,2,884,Correct,4,864
4,WRWRW,151,3,582,Incorrect,4,928
4,YPYEY,182,2,811,Correct,4,720
4,SQSQS,15,1,659,Correct,4,851
4,WZWPW,161,2,765,Correct,4,846
4,CKCKC,9,3,793,Correct,4,739
4,BWBVB,14,2,687,Correct,4,923
4,HMHMH,151,1,739,Correct,4,676
4,VEVNV,173,2,660,Correct,4,687
4,GMGVG,16,2,785,Correct,4,886
4,XHXKX,102,1,921,Incorrect,4,844
4,QXQRQ,14,2,721,Correct,4,740
4,LQLQL,151,1,653,Correct,4,815
4,ALELA,223,1,714,Correct,4,863
4,TPTKT,222,3,723,Incorrect,4,939
4,GEGEG,194,1,707,Correct,4,722
4,ZNZNZ,15,1,931,Correct,4,733
4,YZYZY,152,2,546,Incorrect,4,902
4,SYSYS,153,1,596,Correct,4,841
4,ZSZSZ,221,1,646,Correct,4,844
4,LALGL,222,2,770,Correct,4,884
4,CYCTC,162,2,694,Correct,4,918
4,WEWEW,195,1,582,Correct,4,797
4,CHCSC,16,2,777,Correct,4,774
4,GWGXG,162,2,821,Correct,4,715
4,FGFGF,151,1,625,Correct,4,730
4,QWQKQ,112,3,760,Correct,4,661
4,OQOFO,14,2,709,Correct,4,797
4,PMPEP,186,2,671,Correct,4,873
4,WBWPW,16,2,750,Correct,4,720
4,KCDHD,231,2,797,Correct,4,700
4,RSRWR,222,2,553,Correct,4,727
4,HGHGH,151,1,665,Correct,4,830
4,SKSKS,12,3,649,Correct,4,803
5,L,5,3,6156,New Target,5,874
5,PDPDP,151,1,763,Correct,5,934
5,WAWAW,152,1,738,Correct,5,856
5,HWHWH,153,1,706,Correct,5,656
5,SHSHS,154,1,604,Correct,5,900
5,BRBWB,161,2,724,Correct,5,660
5,FPFBF,162,2,734,Correct,5,902
5,GAGAG,151,1,601,Correct,5,788
5,QVQGQ,161,2,698,Correct,5,832
5,CLCLC,7,3,824,Correct,5,756
5,XWXWX,13,1,751,Correct,5,854
5,AUAUA,152,1,744,Correct,5,886
5,CKCKC,191,1,737,Correct,5,861
5,FNFCF,16,2,703,Correct,5,786
5,UHUQU,162,2,1005,Correct,5,796
5,FZFZF,151,1,664,Correct,5,945
5,THLHT,223,1,832,Correct,5,933
5,CUCLC,82,3,872,Correct,5,798
5,BSBSB,13,1,707,Correct,5,712
5,FDFBF,161,2,822,Correct,5,682
5,LXRXR,221,1,900,Correct,5,658
5,ZOZNZ,222,2,698,Correct,5,748
5,UZUZU,151,1,742,Correct,5,820
5,AQATA,161,2,702,Correct,5,862
5,UNUPU,162,2,572,Correct,5,751
5,RVRKR,182,2,937,Correct,5,902
5,URURU,15,1,603,Correct,5,850
5,VLVLV,9,3,672,Correct,5,669
5,DXDVD,14,2,628,Correct,5,679
5,PZPZP,151,1,780,Correct,5,660
5,LXUMU,231,2,586,Correct,5,737
5,AKADA,173,2,719,Incorrect,5,734
5,HYHYH,15,1,936,Correct,5,876
5,AVAVA,152,3,766,Incorrect,5,771
5,TUTUT,153,1,746,Correct,5,706
5,XYXWX,161,2,661,Correct,5,800
5,TKTDT,174,2,719,Correct,5,898
5,NXNYN,16,2,655,Correct,5,692
5,USUCU,162,2,633,Correct,5,854
5,ZMZMZ,151,1,651,Correct,5,717
5,WRWAW,161,2,742,Correct,5,929
5,GWGXG,162,2,727,Correct,5,666
5,MUMYL,235,2,880,Correct,5,912
5,CNCNC,113,1,627,Correct,5,913
5,RLRLR,10,3,639,Correct,5,901
5,UAUWU,14,2,850,Correct,5,704
5,FXLRF,233,2,524,Correct,5,707
5,PFPFP,113,1,589,Correct,5,846
5,HPHPH,152,1,580,Correct,5,666
5,GKGKG,195,1,716,Correct,5,696
5,ZUZTZ,16,2,587,Correct,5,739
5,AVASA,162,1,507,Incorrect,5,804
5,PRPRP,151,1,923,Correct,5,885
5,YPYPY,152,1,756,Correct,5,741
5,ZLZOZ,111,3,1205,Correct,5,693
5,WMWSW,14,2,721,Correct,5,769
5,RZRXR,162,2,657,Correct,5,733
5,QWQWQ,151,1,642,Correct,5,755
5,ZKZKZ,196,1,671,Correct,5,875
5,CVCVL,225,1,1027,Incorrect,5,677
5,NMNMN,113,1,949,Correct,5,801
5,TRTGT,161,2,744,Correct,5,794
5,CTCTC,151,1,665,Correct,5,694
5,RKRLR,122,3,835,Correct,5,918
6,B,5,3,5307,New Target,6,736
6,YMYGY,161,2,713,Correct,6,723
6,HUHRH,162,2,662,Correct,6,806
6,WHWHW,151,1,1026,Correct,6,880
6,MGMRM,161,2,678,Correct,6,778
6,ZVZWZ,162,2,691,Correct,6,842
6,RCRTR,163,2,640,Correct,6,788
6,DSDRD,164,2,625,Correct,6,776
6,VTBDV,233,2,749,Correct,6,881
6,DSDHD,222,2,745,Correct,6,779
6,QEQEQ,151,1,688,Correct,6,921
6,XOXQX,161,2,956,Correct,6,820
6,RARBR,72,3,906,Correct,6,913
6,GMGMG,13,1,722,Correct,6,784
6,ELERE,171,2,704,Correct,6,762
6,HZHUH,16,2,668,Correct,6,832
6,RHRVR,162,2,560,Correct,6,657
6,YBYBY,8,1,557,Incorrect,6,909
6,PYPVP,14,2,796,Correct,6,895
6,TLTLT,192,1,1114,Correct,6,701
6,QTQTQ,15,1,699,Correct,6,702
6,NXNVN,161,2,686,Correct,6,650
6,QNQNQ,151,1,688,Correct,6,667
6,FUFHF,161,2,707,Correct,6,681
6,YVYFB,235,2,1013,Incorrect,6,717
6,WQWSW,222,2,769,Correct,6,901
6,HNHLH,193,2,686,Incorrect,6,710
6,OSOTO,16,2,705,Correct,6,721
6,GWGOG,162,2,620,Correct,6,774
6,UBUBU,9,3,742,Correct,6,891
6,CWCWC,13,1,644,Correct,6,764
6,OCOEO,161,2,638,Correct,6,931
6,MNMNM,151,1,841,Correct,6,942
6,XLXLX,194,1,626,Correct,6,779
6,AYAYA,15,1,1038,Correct,6,868
6,FUFAF,161,2,1056,Correct,6,755
6,ANAQA,162,2,644,Correct,6,722
6,BUPWP,231,2,1029,Correct,6,740
6,WSWSW,113,1,628,Correct,6,878
6,FRFRF,152,1,767,Correct,6,899
6,AUAUA,153,1,620,Correct,6,681
6,GMGCG,161,2,684,Correct,6,775
6,HLHWH,175,2,699,Correct,6,751
6,PQBQP,223,1,695,Correct,6,836
6,AZABA,102,3,789,Correct,6,704
6,CWCVC,14,2,764,Correct,6,918
6,FAFAF,151,1,618,Correct,6,718
6,VMVSV,161,2,648,Correct,6,874
6,GBGBG,11,3,803,Correct,6,886
6,FOFNF,14,2,638,Correct,6,846
6,DSDSD,151,1,670,Correct,6,767
6,YDYDY,152,1,673,Correct,6,710
6,FOFOF,153,1,781,Correct,6,880
6,CHCHB,225,1,776,Correct,6,684
6,ZCZCZ,113,1,687,Correct,6,940
6,DZDGD,161,2,671,Correct,6,734
6,MLMEM,176,2,668,Correct,6,821
6,PXPXP,15,1,741,Correct,6,895
6,QYQYQ,152,1,662,Correct,6,678
6,GRGCG,161,2,648,Correct,6,706
6,QVQVQ,151,1,613,Correct,6,817
6,XYXNX,161,2,697,Correct,6,722
6,BHMHM,221,1,761,Correct,6,733
6,CBCBC,12,3,617,Correct,6,699
7,W,5,3,5136,New Target,7,905
7,QKQKQ,151,1,835,Correct,7,698
7,DUDQD,161,2,808,Correct,7,913
7,OKOKO,151,1,628,Correct,7,680
7,EOEOE,152,1,689,Correct,7,940
7,URUPU,161,2,817,Correct,7,754
7,GMGAG,162,2,743,Correct,7,918
7,HVWDH,233,2,681,Correct,7,662
7,MHMHM,113,1,741,Correct,7,809
7,YXYVY,161,2,674,Correct,7,759
7,FNFNF,151,1,650,Correct,7,920
7,AWAWA,7,3,800,Correct,7,652
7,ZAZAZ,13,1,622,Correct,7,661
7,OYOYO,152,1,628,Correct,7,694
7,SQSQS,153,1,759,Correct,7,775
7,OSOSO,154,1,521,Correct,7,651
7,FCFBF,181,2,647,Correct,7,898
7,EUEUE,15,1,632,Correct,7,798
7,CYCGC,161,2,724,Correct,7,905
7,SZSUS,162,1,545,Incorrect,7,764
7,OFOFO,151,1,1106,Correct,7,904
7,RVRUR,161,2,635,Correct,7,918
7,ZBZBZ,192,2,1000,Incorrect,7,880
7,UCUTU,16,2,716,Correct,7,775
7,NWNWN,8,3,1049,Correct,7,739
7,XNXUX,14,2,711,Correct,7,829
7,CXCNC,162,2,705,Correct,7,866
7,AUAUW,225,1,1034,Correct,7,937
7,HEHEH,113,1,743,Correct,7,825
7,UFWFU,223,1,768,Correct,7,875
7,HVHEH,222,2,598,Correct,7,944
7,YBYBY,193,1,929,Correct,7,950
7,OYOYO,15,1,633,Correct,7,684
7,TMTWT,91,3,825,Correct,7,779
7,HTHTH,13,1,757,Correct,7,742
7,UHUHU,152,1,607,Correct,7,880
7,EVEBE,184,2,705,Incorrect,7,749
7,HZHMH,16,2,1034,Correct,7,900
7,VHVCV,162,2,748,Correct,7,806
7,WAGDG,231,2,1003,Correct,7,732
7,PFPFP,113,1,537,Correct,7,842
7,OQOQO,152,1,609,Correct,7,656
7,TWTWT,10,3,497,Correct,7,805
7,VKVDV,14,2,659,Correct,7,866
7,WPAPA,221,1,752,Correct,7,804
7,HBHBH,195,1,573,Correct,7,768
7,ZMZAZ,16,2,668,Correct,7,861
7,SYSYS,151,1,555,Correct,7,737
7,FZFXF,161,2,747,Correct,7,888
7,SMSMS,151,1,531,Correct,7,878
7,XOXOX,152,1,546,Correct,7,905
7,FWFWF,11,3,776,Correct,7,707
7,ENEBE,186,2,1119,Correct,7,928
7,ZVZGZ,16,2,722,Correct,7,655
7,EZEZE,151,1,820,Correct,7,684
7,TOTEW,235,2,589,Correct,7,820
7,PDPDP,113,1,523,Correct,7,915
7,TKTWT,122,3,640,Correct,7,753
8,M,5,3,10499,New Target,8,910
8,VYVNV,161,2,733,Correct,8,792
8,KLKTK,162,2,571,Correct,8,733
8,NQNQN,151,1,687,Correct,8,694
8,VHVEV,161,2,603,Correct,8,802
8,XNXNM,225,1,1064,Correct,8,877
8,USUVU,222,2,554,Correct,8,723
8,KRKZK,162,2,480,Correct,8,693
8,TMTET,71,1,468,Incorrect,8,884
8,GFGFG,13,1,779,Correct,8,767
8,OPODO,161,2,713,Correct,8,759
8,KCKCK,151,1,795,Correct,8,652
8,VTVTV,152,3,627,Incorrect,8,882
8,LSLSL,153,1,700,Correct,8,671
8,DLDLD,154,1,725,Correct,8,812
8,NYNYN,155,1,955,Correct,8,939
8,DCMAD,233,2,609,Correct,8,768
8,TDTDT,113,1,494,Correct,8,920
8,GVGRG,161,2,582,Correct,8,681
8,ZUZUZ,151,1,699,Correct,8,709
8,OGOVO,161,2,625,Correct,8,950
8,PWPTP,171,2,978,Correct,8,803
8,KLKDM,235,2,979,Correct,8,812
8,SMSMS,8,3,793,Correct,8,683
8,PRPSP,14,2,706,Correct,8,783
8,DVDYD,162,2,652,Correct,8,872
8,PXPMP,92,3,774,Correct,8,938
8,GDGLG,14,2,621,Correct,8,945
8,SWSWS,192,1,1098,Correct,8,898
8,GDGLG,16,2,650,Correct,8,733
8,MTCYC,231,2,687,Correct,8,667
8,GSGSG,113,1,639,Correct,8,754
8,YQYTY,161,2,572,Correct,8,949
8,ZLZPZ,162,2,535,Correct,8,939
8,HZHZH,151,1,788,Correct,8,946
8,MSOSO,221,1,955,Correct,8,904
8,HWHWH,193,1,610,Correct,8,740
8,PYPAP,16,2,630,Correct,8,684
8,SPSVS,162,2,713,Correct,8,786
8,XLXLX,151,1,751,Correct,8,908
8,YMYMY,10,3,724,Correct,8,919
8,HYHYH,13,1,691,Correct,8,732
8,OWOGO,174,2,752,Correct,8,822
8,PHPOP,16,2,574,Correct,8,726
8,NPNSN,162,2,916,Correct,8,701
8,HVMVH,223,1,782,Correct,8,658
8,THTFT,222,2,1225,Correct,8,733
8,STSTS,151,1,652,Correct,8,932
8,AGAMA,112,2,624,Incorrect,8,696
8,PEPEP,13,1,721,Correct,8,824
8,ZWZWZ,195,1,1025,Correct,8,754
8,ODOZO,16,2,585,Correct,8,656
8,LRLOL,162,2,607,Correct,8,768
8,GZGZG,151,1,671,Correct,8,797
8,TGTGT,152,1,605,Correct,8,766
8,CUCSC,161,2,637,Correct,8,844
8,SCSCS,151,1,538,Correct,8,852
8,AWAWA,196,1,832,Correct,8,790
8,NLNLN,15,1,690,Correct,8,936
8,VNVNV,152,1,611,Correct,8,685
8,GMGMG,12,1,518,Incorrect,8,783
9,S,5,3,9466,New Target,9,865
9,NBNBN,151,1,718,Correct,9,905
9,KVKZK,161,2,737,Correct,9,651
9,LBLBL,151,1,639,Correct,9,752
9,XLXLX,152,1,579,Correct,9,666
9,ZXZXZ,153,2,513,Incorrect,9,939
9,KNKZK,161,2,739,Correct,9,879
9,TQTAT,162,2,587,Correct,9,926
9,CLCUC,163,2,783,Correct,9,750
9,ZCZFZ,164,2,677,Correct,9,901
9,NSNSN,7,3,741,Correct,9,785
9,HGHGH,13,1,652,Correct,9,938
9,THTDT,161,2,522,Correct,9,926
9,VMVMV,191,1,726,Correct,9,917
9,CVCDC,16,2,685,Correct,9,936
9,ZAZRZ,162,2,592,Correct,9,676
9,XTXZX,163,2,590,Correct,9,895
9,OXOXO,151,1,589,Correct,9,884
9,DCDSD,82,3,776,Correct,9,940
9,PQPDP,14,2,798,Correct,9,900
9,ZMZMZ,192,1,611,Incorrect,9,881
9,BEBEB,15,1,790,Correct,9,789
9,FCFCF,152,1,653,Correct,9,834
9,YAYBY,161,2,636,Correct,9,782
9,KNKVK,162,2,684,Correct,9,788
9,SEPCP,231,2,813,Correct,9,699
9,OPOPO,113,1,644,Correct,9,921
9,XMXMX,193,1,833,Correct,9,889
9,KEKEK,15,1,598,Correct,9,902
9,USUSU,9,,,Incorrect,9,914
9,YHSHY,223,1,1022,Correct,9,750
9,UPUPU,113,1,623,Correct,9,755
9,XZXZX,152,1,581,Correct,9,713
9,KGKXK,161,2,584,Correct,9,714
9,QEQPQ,162,2,761,Correct,9,795
9,NUNUS,225,1,753,Correct,9,899
9,BXBXB,113,1,605,Correct,9,825
9,SQHQH,221,1,754,Correct,9,716
9,ACACA,113,1,608,Correct,9,731
9,KMKBK,174,2,596,Correct,9,735
9,EGSVE,233,2,500,Correct,9,856
9,HYHYH,113,1,538,Correct,9,779
9,LULUL,152,1,584,Correct,9,910
9,AEAEA,153,1,621,Correct,9,761
9,TXTST,102,2,513,Incorrect,9,702
9,FDFCF,14,2,825,Correct,9,743
9,KVKVK,151,1,640,Correct,9,835
9,UBUCU,161,2,646,Correct,9,689
9,GAGMG,185,2,773,Correct,9,816
9,UXUGU,16,2,555,Correct,9,913
9,HOHOH,151,1,555,Correct,9,921
9,QUQTS,235,2,684,Correct,9,892
9,YZYZY,113,1,581,Correct,9,913
9,BSBSB,11,3,629,Correct,9,856
9,FEFEF,13,1,725,Correct,9,805
9,GMGMG,196,1,613,Correct,9,692
9,TGTXT,16,2,537,Correct,9,750
9,LSLFL,121,3,798,Correct,9,722
10,Q,5,3,8122,New Target,10,866
10,ZHZOZ,161,2,998,Correct,10,770
10,RZRZR,151,1,709,Correct,10,854
10,BFBFB,152,1,756,Correct,10,693
10,GBGBG,153,1,656,Correct,10,804
10,OGOXO,161,1,715,Incorrect,10,930
10,UEQOU,233,2,633,Correct,10,730
10,BOBRB,222,2,646,Correct,10,906
10,DYDVD,162,2,699,Correct,10,683
10,COCOC,151,1,705,Correct,10,949
10,YZYQY,72,3,590,Correct,10,813
10,FHFWF,14,2,627,Correct,10,736
10,ANANQ,225,1,896,Correct,10,853
10,ZAZAZ,113,1,578,Correct,10,918
10,ERESE,181,3,787,Incorrect,10,837
10,XTXOX,16,2,746,Correct,10,848
10,NXNXN,151,1,774,Correct,10,776
10,OVOZO,161,2,754,Correct,10,747
10,WUWOW,162,2,687,Correct,10,706
10,FWFVF,163,2,610,Correct,10,668
10,NSNKN,172,2,767,Incorrect,10,906
10,VWVNV,16,2,607,Correct,10,699
10,XZXZX,151,1,653,Correct,10,926
10,VQVQV,8,3,560,Correct,10,650
10,GYGPG,14,2,661,Correct,10,727
10,OBOSO,183,2,645,Correct,10,752
10,YUYUY,15,1,688,Correct,10,932
10,NDNQN,92,2,586,Incorrect,10,832
10,FCFHF,14,2,603,Correct,10,857
10,EFEFE,151,1,1020,Correct,10,831
10,NSNSN,194,1,751,Correct,10,703
10,YPYFY,16,2,653,Correct,10,722
10,ZKZKZ,151,1,622,Correct,10,783
10,QZQDR,231,2,944,Correct,10,773
10,AOAHA,222,2,691,Correct,10,802
10,BGBGB,151,1,689,Correct,10,778
10,HQHQH,10,3,870,Correct,10,694
10,UHUBU,14,2,648,Correct,10,842
10,KRKSK,185,2,550,Correct,10,781
10,TOTOT,15,1,483,Correct,10,932
10,APAPA,152,1,617,Correct,10,768
10,VDVYV,161,2,566,Correct,10,876
10,FOFTF,162,2,597,Correct,10,840
10,QVXVX,221,2,785,Incorrect,10,943
10,GHGRG,222,2,614,Correct,10,946
10,LFLFL,151,1,660,Correct,10,861
10,HLHLH,152,1,558,Correct,10,895
10,KWQWK,223,1,877,Correct,10,862
10,YQYQY,11,3,569,Correct,10,672
10,ADADA,13,1,726,Correct,10,942
10,OGOAO,161,2,639,Correct,10,859
10,EOEFE,162,2,670,Correct,10,884
10,USUSU,196,1,777,Correct,10,807
10,VFVAQ,235,2,599,Correct,10,726
10,DZDXD,222,2,775,Correct,10,836
10,HVHDH,162,2,630,Correct,10,685
10,DWDWD,151,1,691,Correct,10,857
10,GBGBG,152,1,692,Correct,10,735
10,AOADA,161,2,722,Correct,10,800
10,GQGQG,12,1,760,Incorrect,10,923
11,T,5,3,4510,New Target,11,846
11,KEKEK,151,1,606,Correct,11,817
11,LBLBL,152,1,589,Correct,11,862
11,HEHVH,161,2,782,Correct,11,801
11,FRFOF,162,2,525,Correct,11,708
11,EBEBE,151,1,599,Correct,11,674
11,HTHTH,7,3,603,Correct,11,741
11,MAMDM,14,2,704,Correct,11,752
11,VOVOV,151,1,510,Correct,11,730
11,XQXQX,191,1,735,Correct,11,939
11,PBPAP,16,2,687,Correct,11,699
11,MXMLM,162,2,652,Correct,11,858
11,TCNCN,221,1,697,Correct,11,794
11,OBONO,222,2,661,Correct,11,824
11,RCROR,162,2,600,Correct,11,711
11,PBPRT,235,2,590,Correct,11,674
11,WFWVW,222,2,548,Correct,11,685
11,LTLUL,81,3,904,Correct,11,793
11,ZDZPZ,14,2,624,Correct,11,772
11,NCNQN,182,2,668,Correct,11,924
11,XZXNX,16,2,755,Correct,11,931
11,GOGOG,151,1,576,Correct,11,775
11,DFDFD,152,1,769,Correct,11,838
11,VWTRV,233,2,634,Correct,11,804
11,CFCVC,222,2,701,Correct,11,677
11,PAPAP,151,1,582,Correct,11,869
11,EQEYE,173,2,560,Correct,11,944
11,DNDED,16,2,653,Correct,11,940
11,PTPTP,9,3,502,Correct,11,921
11,ZCZCZ,13,1,634,Correct,11,855
11,MZMZM,152,1,746,Correct,11,800
11,ULUVU,161,2,779,Correct,11,714
11,BRBGB,162,2,795,Correct,11,709
11,MLMLT,225,1,836,Correct,11,740
11,GQGQG,194,1,1033,Correct,11,907
11,HGHGH,15,1,552,Correct,11,875
11,RVRBR,161,2,618,Correct,11,861
11,ZOZDZ,162,2,829,Correct,11,705
11,VYVYV,151,1,625,Correct,11,891
11,RVRVR,152,1,610,Correct,11,743
11,OTOTO,10,1,518,Incorrect,11,690
11,PXPXP,13,1,631,Correct,11,898
11,MCMCM,152,1,566,Correct,11,828
11,YUYUY,153,1,567,Correct,11,838
11,DYDYD,154,1,636,Correct,11,700
11,WDWDW,155,1,570,Correct,11,898
11,DYDQD,185,2,625,Correct,11,671
11,KDKNK,16,2,724,Correct,11,700
11,HOHOH,151,1,529,Correct,11,804
11,TWEZE,231,2,527,Correct,11,935
11,NANHN,222,2,753,Correct,11,892
11,VQVWV,176,2,502,Correct,11,938
11,ZRZRZ,15,1,734,Correct,11,714
11,VTVGV,111,3,794,Correct,11,846
11,HWHVH,14,2,510,Correct,11,933
11,EHEHE,151,1,637,Correct,11,948
11,VRVLV,161,2,445,Correct,11,785
11,ACACA,151,1,596,Correct,11,830
11,WBTBW,223,1,699,Correct,11,691
11,UTUTU,12,3,492,Correct,11,691
12,O,5,3,6391,New Target,12,866
12,UXULU,161,2,740,Correct,12,725
12,MUMDM,162,2,655,Correct,12,774
12,VLVLV,151,1,610,Correct,12,671
12,BDBHB,161,2,575,Correct,12,893
12,KEKEK,151,1,551,Correct,12,673
12,WKWKW,152,1,686,Correct,12,735
12,AWAWA,153,1,566,Correct,12,948
12,EVEVE,154,1,549,Correct,12,887
12,PHPOP,72,3,680,Correct,12,846
12,WXWAW,14,2,746,Correct,12,740
12,PWPHP,162,2,709,Correct,12,777
12,ZTZTZ,191,1,961,Correct,12,794
12,HVHMH,16,2,674,Correct,12,853
12,DKDKD,151,1,668,Correct,12,888
12,NPNPN,152,1,686,Correct,12,719
12,ZRZNZ,161,2,572,Correct,12,767
12,OGCGC,221,1,834,Correct,12,678
12,LFLFL,113,1,570,Correct,12,820
12,WXWXW,152,1,666,Correct,12,801
12,KPKPK,153,1,537,Correct,12,740
12,FRFKF,161,2,704,Correct,12,752
12,EOEOE,8,3,658,Correct,12,691
12,GEGEG,13,1,595,Correct,12,787
12,LKLBO,235,2,576,Correct,12,881
12,MLMZM,222,3,979,Incorrect,12,713
12,ASACA,162,2,695,Correct,12,781
12,LOLOL,9,1,592,Incorrect,12,866
12,XLXLX,13,1,692,Correct,12,781
12,WHWHW,152,1,800,Correct,12,870
12,ETETE,192,1,587,Correct,12,709
12,OXGZG,231,2,716,Correct,12,870
12,CZCZC,113,1,873,Correct,12,727
12,LGLGL,152,1,699,Correct,12,901
12,VLVPV,161,2,604,Correct,12,762
12,UYUYO,225,1,856,Correct,12,879
12,SMSMS,113,1,609,Correct,12,734
12,RTRTR,193,1,657,Correct,12,851
12,KVKHK,16,2,641,Correct,12,800
12,ROROR,101,3,726,Correct,12,720
12,PRPRP,13,1,789,Correct,12,744
12,LALHL,161,2,675,Correct,12,650
12,PLPLP,151,1,578,Correct,12,722
12,CTCTC,194,1,660,Correct,12,829
12,XGXAX,16,2,564,Correct,12,757
12,NMNMN,151,2,721,Incorrect,12,946
12,HLHZH,161,2,674,Correct,12,726
12,YOYOY,11,3,474,Correct,12,950
12,PZOZP,223,1,862,Correct,12,855
12,EAEAE,113,1,679,Correct,12,716
12,GXGVG,161,2,567,Correct,12,780
12,HMHGH,162,2,636,Correct,12,772
12,GTGTG,195,1,631,Correct,12,896
12,LMLGL,16,2,536,Correct,12,736
12,ECEDE,162,2,651,Correct,12,861
12,PSPKP,163,2,586,Correct,12,808
12,MCOBM,233,2,1240,Correct,12,914
12,EMEME,113,1,676,Correct,12,672
12,CTCRC,176,2,589,Correct,12,938
12,NSNSN,15,1,605,Correct,12,795
12,MWMVM,161,2,644,Correct,12,691
12,CPCOC,122,2,639,Incorrect,12,950
13,H,5,3,5855,New Target,13,921
13,VUVUV,151,1,819,Correct,13,888
13,YVYVY,152,1,795,Correct,13,851
13,XUXUX,153,1,612,Correct,13,842
13,NRNWN,161,2,586,Correct,13,685
13,MZMKM,162,2,650,Correct,13,836
13,HLVLV,221,1,1150,Correct,13,665
13,DXDGD,222,2,622,Correct,13,722
13,LHLAL,71,3,574,Correct,13,751
13,YMYFY,14,2,674,Correct,13,796
13,AOARA,171,2,684,Correct,13,873
13,ZKZAZ,16,2,697,Correct,13,816
13,RZRZR,151,1,695,Correct,13,763
13,NFNAN,161,2,715,Correct,13,686
13,KUKEK,162,2,610,Correct,13,909
13,XAXYX,163,2,846,Correct,13,936
13,LKLUL,164,2,694,Correct,13,834
13,NLNLN,151,1,662,Correct,13,767
13,WDWOW,182,2,624,Correct,13,942
13,EWEWE,15,1,557,Correct,13,876
13,VHVHV,8,3,780,Correct,13,940
13,PVPVP,13,1,667,Correct,13,704
13,CRCSC,161,2,552,Correct,13,876
13,NWNWN,151,1,1016,Correct,13,921
13,SQSQS,152,1,599,Correct,13,909
13,AEASA,161,2,539,Correct,13,678
13,GOGOG,193,1,674,Correct,13,685
13,QGQGQ,15,1,581,Correct,13,697
13,FMFMF,152,1,696,Correct,13,731
13,PFPFP,153,1,602,Correct,13,666
13,SYSHS,92,3,718,Correct,13,694
13,QGQKQ,14,2,663,Correct,13,915
13,ELELH,225,1,817,Correct,13,922
13,MRMRM,113,1,654,Correct,13,651
13,GUGNG,161,2,622,Correct,13,795
13,ZOZOZ,194,1,593,Correct,13,774
13,EZEZE,15,1,549,Correct,13,684
13,FHFKF,101,3,620,Correct,13,741
13,GSHLG,233,2,497,Correct,13,707
13,FKFXF,222,2,955,Correct,13,718
13,DEDYD,162,2,592,Correct,13,708
13,UXUVU,163,2,866,Correct,13,803
13,MCMOM,185,2,746,Correct,13,722
13,BXBUH,235,2,645,Correct,13,857
13,DMDMD,113,1,663,Correct,13,787
13,BXBDB,161,2,836,Correct,13,900
13,AVAVA,151,1,777,Correct,13,891
13,QUHUQ,223,1,951,Correct,13,726
13,BRBRB,113,2,627,Incorrect,13,931
13,ZHZHZ,11,3,867,Correct,13,806
13,VZVZV,13,1,739,Correct,13,943
13,HBUQU,231,2,709,Correct,13,669
13,EUEUE,113,1,747,Correct,13,950
13,RQRDR,161,2,690,Correct,13,911
13,COCOC,196,1,629,Correct,13,693
13,VNVSV,16,2,610,Correct,13,914
13,WHWHW,12,3,517,Correct,13,749
14,G,5,3,6661,New Target,14,787
14,EBEBE,151,1,1006,Correct,14,801
14,QPQUQ,161,2,701,Correct,14,843
14,XDXDX,151,1,583,Correct,14,912
14,YXYXY,152,1,707,Correct,14,927
14,MBMBM,153,1,570,Correct,14,906
14,QMQKQ,161,2,668,Correct,14,834
14,EYETE,162,2,757,Correct,14,924
14,UKUKU,151,1,607,Correct,14,853
14,MPGPM,223,1,688,Correct,14,855
14,ANANA,113,1,865,Correct,14,700
14,UAUAU,152,1,662,Correct,14,815
14,ADASA,161,2,631,Correct,14,769
14,LKLGL,72,3,810,Correct,14,666
14,UWUWU,13,1,613,Correct,14,784
14,MCMUM,161,2,706,Correct,14,900
14,YMYMY,151,1,542,Correct,14,878
14,RHRWR,171,2,556,Correct,14,945
14,DUDCD,16,2,649,Correct,14,929
14,ASAGA,82,3,1044,Correct,14,863
14,DLDLD,13,1,804,Correct,14,846
14,ZXZDZ,161,2,777,Correct,14,907
14,ULUFU,162,2,744,Correct,14,655
14,DPDPG,225,1,799,Correct,14,944
14,KHKTK,172,2,825,Correct,14,825
14,ZKZUZ,16,2,676,Correct,14,721
14,AKALA,162,2,623,Correct,14,837
14,CNCNC,151,1,673,Correct,14,705
14,PGPGP,9,3,846,Correct,14,881
14,UPUPU,13,1,790,Correct,14,771
14,FSGWF,233,2,917,Correct,14,694
14,CACVC,222,2,742,Correct,14,920
14,FTFTF,151,1,733,Correct,14,864
14,KFKCK,161,2,725,Correct,14,937
14,ZEZHZ,183,2,642,Correct,14,823
14,NSNSN,15,1,654,Correct,14,871
14,ENENE,152,1,705,Correct,14,721
14,LXLWG,235,2,685,Correct,14,819
14,SMSUS,222,2,695,Correct,14,889
14,ZHZHZ,194,1,597,Correct,14,768
14,PFPFP,15,1,682,Correct,14,732
14,BABAB,152,1,599,Correct,14,782
14,XPXUX,161,2,535,Correct,14,772
14,ACACA,151,1,670,Correct,14,675
14,RGRGR,10,3,721,Correct,14,688
14,URURU,13,2,632,Incorrect,14,913
14,PKPTP,161,2,459,Correct,14,717
14,SGSGS,11,1,595,Incorrect,14,786
14,GZYVY,231,2,966,Correct,14,723
14,UDUTU,222,2,814,Correct,14,690
14,VHVHV,195,1,629,Correct,14,845
14,LWLNL,16,2,691,Correct,14,781
14,GKPKP,221,1,866,Correct,14,717
14,SQSPS,222,2,678,Correct,14,865
14,WNWNW,151,1,837,Correct,14,809
14,MHMTM,176,2,698,Incorrect,14,895
14,RZRZR,15,1,661,Correct,14,867
14,CGCDC,121,3,677,Correct,14,736
15,A,5,3,3137,New Target,15,934
15,WQWEW,161,2,785,Correct,15,700
15,RWRKR,162,2,576,Correct,15,662
15,YRYRY,151,1,655,Correct,15,856
15,XOXOX,152,1,573,Correct,15,844
15,QPQPQ,153,1,623,Correct,15,803
15,TDTDT,154,1,559,Correct,15,860
15,WXWBW,161,2,579,Correct,15,797
15,TATAT,7,3,777,Correct,15,658
15,MCMYM,14,2,528,Correct,15,898
15,SMSFS,162,2,644,Correct,15,818
15,ZLZMZ,163,2,661,Correct,15,801
15,VDVBV,164,2,580,Correct,15,751
15,XCXVX,165,2,546,Correct,15,924
15,LKLBA,235,2,503,Correct,15,785
15,NDNDN,113,1,518,Correct,15,902
15,YGYGY,191,1,496,Correct,15,693
15,VLVLV,15,1,626,Correct,15,873
15,WQWQW,152,1,637,Correct,15,928
15,MAMOM,81,2,510,Incorrect,15,769
15,YZABY,233,2,644,Correct,15,788
15,CFCFC,113,1,576,Correct,15,877
15,UTULU,161,2,658,Correct,15,783
15,KPKUK,162,2,554,Correct,15,931
15,TCTQT,163,2,766,Correct,15,788
15,FGFGF,192,1,585,Correct,15,739
15,RCRYR,16,2,566,Correct,15,936
15,KRKDK,162,2,517,Correct,15,902
15,CRCRC,151,1,637,Correct,15,656
15,WOAOW,223,1,617,Correct,15,919
15,LPLWL,222,2,494,Correct,15,697
15,DGDUD,173,2,596,Correct,15,733
15,EMEZE,16,2,585,Correct,15,674
15,DADAD,9,1,511,Incorrect,15,747
15,WDWDW,13,1,610,Correct,15,879
15,AWQWQ,221,1,674,Correct,15,817
15,TKTQT,222,2,533,Correct,15,710
15,MTMFM,162,2,618,Correct,15,784
15,KAKAK,10,3,603,Correct,15,804
15,BDBRB,14,2,717,Correct,15,825
15,QPQPQ,151,1,600,Correct,15,878
15,NDNDN,152,1,630,Correct,15,893
15,QYQGQ,184,2,604,Correct,15,693
15,VPVPV,15,1,557,Correct,15,792
15,RDRDA,225,1,621,Correct,15,914
15,KWKOK,222,2,513,Correct,15,723
15,TPTPT,151,1,631,Correct,15,771
15,DCDCD,152,2,697,Incorrect,15,698
15,OWOAO,112,3,923,Correct,15,714
15,ZCZNZ,14,2,738,Correct,15,760
15,MGMYM,182,2,634,Correct,15,871
15,ANLOL,231,2,982,Correct,15,855
15,DWDPD,222,2,551,Correct,15,855
15,YQYQY,151,1,982,Correct,15,882
15,LGLGL,196,1,585,Correct,15,757
15,VYVLV,16,2,605,Correct,15,779
15,MVMVM,151,1,865,Correct,15,676
15,QMQMQ,152,1,616,Correct,15,773
15,SXSXS,153,1,564,Correct,15,871
15,WAWAW,12,3,696,Correct,15,778
