Trial No,Stimulus,Trigger,Response,Response Time(ms),Correct,Block,Fixation Duration
Practice
OT Practice
1,SKSKS,15,,,False,0,700
1,DLDUD,16,,,False,0,917
1,PDPGP,16,1,993,False,0,806
1,MWMWM,15,1,1084,Correct,0,928
1,FTFTF,15,1,744,Correct,0,762
1,AXAMA,16,2,816,Correct,0,826
1,RYRGR,16,2,674,Correct,0,825
1,DODOD,15,1,776,Correct,0,902
1,QTQAQ,16,2,738,Correct,0,696
1,YEYEY,15,1,827,Correct,0,813
2,GYGDG,16,2,690,Correct,0,692
2,SWSWS,15,1,559,Correct,0,732
2,HLHUH,16,2,653,Correct,0,794
2,DEDED,15,1,539,Correct,0,757
2,ZPZOZ,16,2,541,Correct,0,793
2,ATATA,15,1,488,Correct,0,878
2,QOQOQ,15,1,692,Correct,0,891
2,FPFGF,16,2,596,Correct,0,681
2,TRTET,16,2,565,Correct,0,691
2,DQDQD,15,2,865,False,0,843
4,PLPLP,15,1,823,Correct,0,699
4,ATAIA,16,2,574,Correct,0,788
4,SKSGS,16,2,705,Correct,0,655
4,ZYZYZ,15,1,643,Correct,0,946
4,QSQSQ,15,1,801,Correct,0,709
4,TZTDT,16,2,602,Correct,0,745
4,JYJGJ,16,1,1075,False,0,891
4,DYDYD,15,1,697,Correct,0,947
4,LTLCL,16,2,1124,Correct,0,809
4,FQFEF,16,2,666,Correct,0,902
AT Practice
1,TKTKT,15,,,False,0,926
1,SLSUS,16,2,881,Correct,0,946
1,VZVGV,7,3,921,Correct,0,675
1,XWXZX,7,3,651,Correct,0,748
1,ATATA,15,1,1114,Correct,0,677
1,HXZMH,16,3,849,False,0,863
1,TZTZT,7,3,680,Correct,0,728
1,UOUOU,15,1,1043,Correct,0,827
1,ZTWAW,16,2,1123,Correct,0,716
1,RZRER,7,3,926,Correct,0,780
2,JYJDJ,16,2,1397,Correct,0,797
2,DWDWD,15,1,1149,Correct,0,944
2,GNGNG,7,3,691,Correct,0,929
2,NEZEZ,16,2,1297,False,0,733
2,RNROR,7,3,676,Correct,0,793
2,QTQNQ,7,3,810,Correct,0,912
2,HOHON,15,1,1069,Correct,0,829
2,KPKGK,16,2,975,Correct,0,654
2,DRDED,16,2,920,Correct,0,950
2,LNLNL,7,3,631,Correct,0,838
4,GLGLG,15,1,1119,Correct,0,782
4,DTDID,16,2,727,Correct,0,844
4,SMSGS,16,2,732,Correct,0,849
4,ZFZYZ,7,3,784,Correct,0,948
4,TSTFT,7,3,775,Correct,0,782
4,OFOFO,7,3,610,Correct,0,738
4,WYFGW,16,2,1266,Correct,0,692
4,WYWYW,15,1,915,Correct,0,871
4,MFMCM,7,3,901,Correct,0,812
4,HQHEH,16,2,794,Correct,0,686
Trials
1,D,5,3,9934,New Target,1,854
1,ZNZYZ,161,,,Incorrect,1,699
1,FZFZF,151,1,1214,Correct,1,749
1,RKRKR,152,1,1253,Correct,1,834
1,RXRNR,161,2,1100,Correct,1,800
1,CNCFC,162,2,797,Correct,1,734
1,PDPDP,7,3,1047,Correct,1,774
1,CPCFC,14,2,1001,Correct,1,734
1,VLVNV,162,2,795,Correct,1,825
1,KFKFK,151,1,895,Correct,1,912
1,ZNZNZ,152,1,1015,Correct,1,775
1,KCKPD,235,2,1023,Correct,1,676
1,ZKZFZ,222,2,802,Correct,1,740
1,NRNZN,162,2,717,Correct,1,720
1,KXKRK,163,2,621,Correct,1,730
1,YPYZY,164,2,607,Correct,1,764
1,FKDKF,223,2,826,Incorrect,1,940
1,RPRPR,113,1,849,Correct,1,843
1,VRVKV,161,2,701,Correct,1,666
1,RFRPR,162,2,781,Correct,1,779
1,KVKVK,151,1,775,Correct,1,767
1,YKYVY,161,2,788,Correct,1,748
1,VDVDV,8,3,513,Correct,1,757
1,DVZVZ,221,1,856,Correct,1,760
1,YFYFY,113,1,604,Correct,1,901
1,ZYZYZ,152,1,714,Correct,1,925
1,VLVXV,161,2,654,Correct,1,686
1,DPXZX,231,2,838,Correct,1,924
1,RYRYR,113,1,642,Correct,1,721
1,PDPNP,91,3,733,Correct,1,936
1,KXKXK,13,1,1061,Correct,1,909
1,ZYZYZ,152,1,582,Correct,1,779
1,VKVKV,153,1,546,Correct,1,947
1,YZYZY,154,1,668,Correct,1,663
1,NLNZN,161,2,781,Correct,1,722
1,ZNDYZ,233,2,1125,Correct,1,840
1,PCPXP,222,2,781,Correct,1,939
1,ZVZFZ,162,2,582,Correct,1,799
1,RCRZR,163,2,564,Correct,1,864
1,LRLRL,151,1,642,Correct,1,882
1,ZDZDZ,10,3,771,Correct,1,726
1,RNRZR,14,2,690,Correct,1,705
1,CXCYC,162,2,611,Correct,1,716
1,RCRLR,163,2,666,Correct,1,693
1,FRFRF,151,3,989,Incorrect,1,665
1,XFXFX,152,1,978,Correct,1,771
1,RPRLR,161,2,739,Correct,1,916
1,YXYRY,162,2,668,Correct,1,859
1,FYFYF,151,1,1101,Correct,1,785
1,YZYVY,161,2,649,Correct,1,870
1,YKYKY,151,1,760,Correct,1,833
1,XRXRX,152,1,634,Correct,1,652
1,XVXZX,161,2,710,Correct,1,900
1,PDPDP,11,3,732,Correct,1,910
1,ZFZFZ,13,1,793,Correct,1,766
1,PXPXP,152,1,693,Correct,1,759
1,LYLYL,153,1,561,Correct,1,881
1,NKNKD,225,1,644,Correct,1,803
1,ZNZNZ,113,1,689,Correct,1,855
1,PYPZP,161,1,781,Incorrect,1,868
1,XPXPX,151,1,643,Correct,1,905
1,VLVLV,152,1,684,Correct,1,927
1,PKPXP,161,2,744,Correct,1,900
1,FZFZF,151,1,676,Correct,1,846
1,LDLDL,12,3,837,Correct,1,717
2,U,5,3,2290,New Target,2,904
2,ZVZFZ,161,2,871,Correct,2,740
2,FZFZF,151,1,889,Correct,2,898
2,RFRFR,152,1,642,Correct,2,722
2,NZNKN,161,2,625,Correct,2,775
2,FZFNF,162,2,654,Correct,2,853
2,RXRXR,151,1,745,Correct,2,857
2,KRKYK,161,2,659,Correct,2,859
2,NZNPN,162,2,560,Correct,2,857
2,XPXPX,151,1,820,Correct,2,744
2,CUCUC,7,3,763,Correct,2,856
2,RFRFR,13,2,600,Incorrect,2,739
2,VYVXV,161,2,644,Correct,2,927
2,VDVDV,191,1,1412,Correct,2,749
2,ZKZRZ,15,2,646,Correct,2,846
2,XCXCX,151,1,1064,Correct,2,698
2,CNCUC,82,3,627,Correct,2,906
2,RCRCR,13,1,1045,Correct,2,765
2,ZPZXZ,161,2,653,Correct,2,939
2,FKFYF,162,2,702,Correct,2,706
2,ZFZYZ,163,2,758,Correct,2,890
2,PXPXP,151,1,1021,Correct,2,883
2,URCKC,231,2,577,Correct,2,696
2,PCPCP,113,1,614,Correct,2,688
2,XNXNX,152,1,653,Correct,2,730
2,RCRZR,161,2,634,Correct,2,846
2,XVXVX,151,1,662,Correct,2,856
2,NRNRN,152,1,740,Correct,2,809
2,FPFPF,225,1,595,Correct,2,672
2,XVXFX,222,2,550,Correct,2,765
2,PRPRP,151,1,640,Correct,2,650
2,FYFCF,161,2,657,Correct,2,801
2,XUXFX,91,3,741,Correct,2,725
2,CYCVC,14,2,742,Correct,2,674
2,VDVKV,172,2,694,Correct,2,667
2,YCYCY,15,1,725,Correct,2,753
2,NKNLN,161,2,531,Correct,2,718
2,XPUKX,233,2,914,Correct,2,920
2,ZPZPZ,113,1,757,Correct,2,833
2,KRKRK,152,1,592,Correct,2,806
2,XKXKX,153,1,597,Correct,2,747
2,YUYVY,101,3,923,Correct,2,726
2,XKXFU,235,1,725,Incorrect,2,683
2,NFNFN,113,1,701,Correct,2,930
2,KDKDK,193,1,795,Correct,2,751
2,XYXKX,16,2,661,Correct,2,763
2,YZUZY,223,2,815,Incorrect,2,931
2,KFKVK,222,2,803,Correct,2,928
2,LYLYL,151,1,765,Correct,2,829
2,CXCDC,184,2,893,Incorrect,2,696
2,XZXNX,16,2,961,Correct,2,813
2,PXPXP,151,1,806,Correct,2,769
2,ZRZYZ,161,2,725,Correct,2,674
2,PUPYP,111,3,827,Correct,2,933
2,RNRNR,14,1,738,Correct,2,845
2,KDKDK,195,2,957,Incorrect,2,838
2,KNKNK,15,1,642,Correct,2,770
2,PRPKP,161,2,784,Correct,2,875
2,UNYNY,221,1,969,Correct,2,799
2,NYNYN,113,1,897,Correct,2,694
2,YXYXY,152,1,698,Incorrect,2,689
2,RDRDR,196,1,581,Correct,2,812
2,FCFCF,15,1,611,Correct,2,919
2,ZKZKZ,152,1,531,Correct,2,767
2,ZUZUZ,12,3,786,Correct,2,907
3,E,5,3,2083,New Target,3,858
3,YZYZY,151,1,970,Correct,3,879
3,VFVNV,161,2,658,Correct,3,690
3,KYKYK,151,1,721,Correct,3,783
3,NKNKN,152,1,604,Correct,3,894
3,XVXNX,161,2,622,Correct,3,741
3,RERFR,71,2,944,Incorrect,3,703
3,XNXNX,13,1,642,Correct,3,846
3,NXNXN,152,1,605,Correct,3,850
3,ZLZNZ,161,2,858,Correct,3,931
3,CUCNC,171,2,691,Correct,3,786
3,FYFRF,16,2,734,Correct,3,904
3,ZLZLZ,151,1,712,Correct,3,823
3,YZYZY,152,1,845,Correct,3,664
3,CYCYC,153,1,629,Correct,3,802
3,VUVUV,192,1,602,Correct,3,707
3,PXPRP,16,2,719,Correct,3,658
3,YPYPY,151,1,680,Correct,3,833
3,CECEC,8,3,763,Correct,3,682
3,VNENV,223,1,1113,Correct,3,683
3,KRKFK,222,2,758,Correct,3,844
3,XLXLE,225,1,796,Correct,3,920
3,RFRUR,183,2,920,Correct,3,720
3,XRXLX,16,2,667,Correct,3,793
3,NZNPN,162,2,664,Correct,3,866
3,XZXZX,151,1,721,Correct,3,904
3,FZFZF,152,1,604,Correct,3,845
3,PFPFP,153,1,626,Correct,3,672
3,YZYXY,161,2,733,Correct,3,899
3,KEKEK,9,3,918,Correct,3,874
3,CXCPC,14,2,648,Correct,3,917
3,VXVXV,151,1,832,Correct,3,949
3,NUNZN,174,2,838,Correct,3,830
3,RKRVR,16,2,681,Correct,3,914
3,XRXRX,151,1,684,Correct,3,728
3,ERNFN,231,2,731,Incorrect,3,724
3,YRYNY,222,2,793,Correct,3,745
3,PZPEP,102,3,910,Correct,3,928
3,ZYZXZ,14,2,727,Correct,3,711
3,RZRVR,162,2,645,Correct,3,763
3,XRXRX,151,1,584,Correct,3,753
3,KUKFK,175,2,576,Correct,3,652
3,RKRKR,15,1,589,Correct,3,915
3,ZFZFZ,152,1,577,Correct,3,797
3,YZYVY,161,2,528,Correct,3,894
3,XPXNX,162,2,888,Correct,3,685
3,YRYRY,151,1,628,Correct,3,675
3,EPVPV,221,1,642,Correct,3,870
3,CRCEC,112,2,644,Incorrect,3,795
3,RFRCR,14,2,757,Correct,3,770
3,CPCVC,162,2,674,Correct,3,717
3,RXRCR,163,2,625,Correct,3,788
3,VNVLV,164,2,582,Correct,3,657
3,ZXZXZ,151,1,913,Correct,3,940
3,ZCZCZ,152,1,791,Correct,3,833
3,PYPUP,186,2,659,Correct,3,778
3,YKYPY,16,2,738,Correct,3,785
3,YREXY,233,2,1000,Correct,3,903
3,ZKZKZ,113,1,1022,Correct,3,711
3,XLXNX,161,2,892,Correct,3,880
3,KFKRE,235,2,724,Correct,3,747
3,RXRLR,222,2,572,Correct,3,889
3,RERXR,121,3,844,Correct,3,878
4,J,5,3,1888,New Target,4,811
4,CYCVC,161,2,804,Correct,4,660
4,RXRCR,162,2,631,Correct,4,938
4,FPFVF,163,2,755,Correct,4,929
4,LZLZL,151,1,815,Correct,4,751
4,PLPLP,152,1,666,Correct,4,718
4,NPNPN,153,1,633,Correct,4,794
4,XZXZX,161,1,650,Incorrect,4,753
4,CNCKC,162,2,1421,Correct,4,707
4,PCPYJ,235,2,1069,Correct,4,831
4,VYVYV,113,1,824,Correct,4,935
4,RLRLR,152,1,673,Correct,4,782
4,CJCJC,7,3,595,Correct,4,675
4,ZLZLZ,13,1,706,Correct,4,871
4,FZFZF,152,1,704,Correct,4,794
4,CFCFC,153,1,577,Correct,4,702
4,PZPZP,154,1,561,Correct,4,828
4,XEXEX,191,1,584,Correct,4,650
4,NVNFN,16,2,823,Correct,4,838
4,KYKYK,151,1,882,Correct,4,714
4,ZNZVZ,161,2,733,Correct,4,694
4,YVJXY,233,2,646,Correct,4,901
4,XFXFX,113,1,731,Correct,4,696
4,XNXNX,152,1,647,Correct,4,866
4,FJFKF,81,3,774,Correct,4,772
4,CZCYC,14,2,671,Correct,4,826
4,ZXZCZ,162,2,689,Correct,4,711
4,RYRYJ,225,2,710,Incorrect,4,658
4,FPFZF,222,2,647,Correct,4,656
4,XRXRX,151,1,692,Correct,4,854
4,YPYEY,182,2,656,Correct,4,852
4,XRXRX,15,1,747,Correct,4,890
4,XZXPX,161,2,707,Correct,4,933
4,CJCJC,9,3,576,Correct,4,777
4,ZXZVZ,14,2,654,Correct,4,916
4,VKVKV,151,1,639,Correct,4,777
4,VEVNV,173,2,557,Correct,4,799
4,ZKZVZ,16,2,642,Correct,4,717
4,XVXJX,102,3,782,Correct,4,867
4,RXRVR,14,2,1014,Correct,4,805
4,LRLRL,151,1,1032,Correct,4,715
4,YNJNY,223,1,810,Correct,4,784
4,NPNJN,222,3,750,Incorrect,4,864
4,ZEZEZ,194,1,774,Correct,4,917
4,ZNZNZ,15,1,974,Correct,4,885
4,YZYZY,152,1,594,Correct,4,793
4,XYXYX,153,1,662,Correct,4,713
4,ZXZXZ,221,1,1012,Correct,4,883
4,LYLZL,222,1,743,Incorrect,4,721
4,CYCNC,162,2,783,Correct,4,884
4,XEXEX,195,1,712,Correct,4,814
4,CVCXC,16,2,762,Correct,4,712
4,ZPZXZ,162,2,630,Correct,4,741
4,FZFZF,151,1,789,Correct,4,849
4,RXRJR,112,3,773,Correct,4,670
4,PRPFP,14,2,702,Correct,4,803
4,PKPEP,186,2,891,Correct,4,813
4,XZXPX,16,2,749,Correct,4,874
4,JCZVZ,231,2,667,Correct,4,667
4,RXRLR,222,2,668,Correct,4,712
4,VZVZV,151,1,1055,Correct,4,744
4,XJXJX,12,3,722,Correct,4,730
5,I,5,3,1256,New Target,5,686
5,PCPCP,151,1,899,Correct,5,922
5,XYXYX,152,1,749,Correct,5,718
5,VXVXV,153,1,609,Correct,5,917
5,XVXVX,154,1,1153,Correct,5,838
5,ZRZXZ,161,2,786,Correct,5,682
5,FPFZF,162,2,828,Correct,5,776
5,ZYZYZ,151,1,747,Correct,5,696
5,RVRZR,161,2,748,Correct,5,668
5,CICIC,7,3,632,Correct,5,788
5,XLXLX,13,1,793,Correct,5,694
5,YVYVY,152,1,825,Correct,5,658
5,CJCJC,191,1,1104,Correct,5,890
5,FNFCF,16,2,766,Correct,5,796
5,PVPRP,162,2,799,Correct,5,679
5,FZFZF,151,1,674,Correct,5,950
5,NVIVN,223,1,730,Correct,5,923
5,CVCIC,82,3,954,Correct,5,673
5,ZXZXZ,13,1,649,Correct,5,880
5,FCFZF,161,2,631,Correct,5,877
5,IXRXR,221,1,699,Correct,5,661
5,ZPZNZ,222,2,831,Correct,5,652
5,VZVZV,151,1,707,Correct,5,945
5,YRYNY,161,2,806,Correct,5,680
5,VNVPV,162,2,783,Correct,5,751
5,RVRJR,182,2,1401,Correct,5,828
5,VRVRV,15,1,726,Correct,5,913
5,VIVIV,9,3,624,Correct,5,867
5,CXCVC,14,2,622,Correct,5,802
5,PZPZP,151,1,882,Correct,5,708
5,IXVKV,231,2,949,Correct,5,887
5,YJYCY,173,2,647,Incorrect,5,857
5,VYVYV,15,1,710,Correct,5,851
5,YVYVY,152,1,656,Correct,5,895
5,NVNVN,153,1,593,Correct,5,703
5,XYXVX,161,2,773,Correct,5,753
5,NJNCN,174,2,718,Correct,5,816
5,NXNYN,16,2,696,Correct,5,934
5,VXVCV,162,2,822,Correct,5,723
5,ZKZKZ,151,1,720,Correct,5,778
5,XRXYX,161,2,670,Correct,5,746
5,ZCZXZ,162,2,602,Correct,5,906
5,KVKYI,235,2,782,Correct,5,679
5,CNCNC,113,1,679,Correct,5,817
5,RIRIR,10,3,757,Correct,5,788
5,VYVXV,14,2,645,Correct,5,746
5,FXIRF,233,2,808,Correct,5,663
5,PFPFP,113,1,737,Correct,5,794
5,VPVPV,152,1,921,Correct,5,850
5,ZJZJZ,195,1,744,Correct,5,943
5,ZVZNZ,16,2,734,Correct,5,920
5,YVYXY,162,2,702,Correct,5,730
5,PRPRP,151,1,992,Correct,5,699
5,YPYPY,152,1,678,Correct,5,704
5,ZIZPZ,111,3,946,Correct,5,839
5,NKNXN,14,2,741,Correct,5,862
5,RZRXR,162,2,833,Correct,5,760
5,RXRXR,151,1,880,Correct,5,672
5,ZJZJZ,196,1,1077,Correct,5,819
5,CVCVI,225,1,1079,Incorrect,5,773
5,NKNKN,113,1,982,Correct,5,833
5,NRNZN,161,2,985,Correct,5,786
5,CNCNC,151,1,1149,Correct,5,707
5,RFRIR,122,3,812,Correct,5,672
6,B,5,3,1022,New Target,6,830
6,YKYZY,161,2,799,Correct,6,833
6,VCVRV,162,2,697,Correct,6,760
6,XVXVX,151,1,978,Correct,6,940
6,KZKRK,161,2,670,Correct,6,943
6,ZVZXZ,162,2,794,Correct,6,827
6,RCRNR,163,2,1204,Correct,6,818
6,CXCRC,164,2,944,Correct,6,720
6,VNBCV,233,2,1049,Correct,6,715
6,CXCVC,222,,,Incorrect,6,722
6,RFRFR,151,1,1039,Correct,6,950
6,XPXRX,161,1,1013,Incorrect,6,684
6,RYRBR,72,3,568,Correct,6,768
6,ZKZKZ,13,1,795,Correct,6,802
6,FIFRF,171,2,809,Correct,6,655
6,VZVLV,16,2,716,Correct,6,929
6,RPRVR,162,2,632,Correct,6,875
6,YBYBY,8,3,644,Correct,6,931
6,PYPVP,14,2,673,Correct,6,812
6,NININ,192,2,883,Incorrect,6,754
6,RNRNR,15,1,859,Correct,6,768
6,NXNVN,161,2,636,Correct,6,913
6,RNRNR,151,1,811,Correct,6,857
6,FRFVF,161,2,649,Correct,6,703
6,YVYFB,235,2,657,Incorrect,6,664
6,ZRZXZ,222,2,611,Correct,6,659
6,VNVIV,193,2,851,Incorrect,6,845
6,PXPNP,16,2,591,Correct,6,711
6,ZXZPZ,162,2,509,Correct,6,921
6,VBVBV,9,3,815,Correct,6,852
6,CXCXC,13,1,982,Correct,6,867
6,PCPFP,161,2,646,Correct,6,820
6,KNKNK,151,1,839,Correct,6,760
6,XIXIX,194,1,1118,Correct,6,861
6,CYCYC,15,1,878,Correct,6,768
6,FVFYF,161,2,682,Correct,6,661
6,YNYRY,162,2,581,Correct,6,899
6,BVPXP,231,2,675,Correct,6,944
6,NXNXN,113,1,785,Correct,6,831
6,FRFRF,152,1,701,Correct,6,741
6,YVYVY,153,1,748,Correct,6,750
6,ZKZCZ,161,2,709,Correct,6,837
6,VIVXV,175,2,751,Correct,6,869
6,PRBRP,223,2,1113,Incorrect,6,830
6,YZYBY,102,3,846,Correct,6,661
6,CXCVC,14,2,697,Correct,6,686
6,FYFYF,151,1,690,Correct,6,897
6,VKVXV,161,2,894,Correct,6,816
6,ZBZBZ,11,3,802,Correct,6,810
6,FPFNF,14,2,1224,Correct,6,908
6,CXCXC,151,1,918,Correct,6,695
6,YCYCY,152,1,825,Correct,6,904
6,FPFPF,153,1,947,Correct,6,743
6,CVCVB,225,1,701,Correct,6,677
6,ZCZCZ,113,1,685,Correct,6,751
6,CZCNC,161,2,708,Correct,6,945
6,KIKFK,176,2,1159,Correct,6,667
6,PXPXP,15,1,737,Correct,6,868
6,RYRYR,152,1,1137,Correct,6,725
6,ZRZCZ,161,2,732,Correct,6,876
6,RVRVR,151,1,905,Correct,6,766
6,XYXNX,161,2,686,Correct,6,771
6,BVKVK,221,1,728,Correct,6,898
6,CBCBC,12,1,668,Incorrect,6,658
7,W,5,3,11565,New Target,7,707
7,RKRKR,151,1,698,Correct,7,808
7,CVCRC,161,2,585,Correct,7,779
7,PKPKP,151,1,623,Correct,7,675
7,FPFPF,152,1,575,Correct,7,822
7,VRVPV,161,1,579,Incorrect,7,782
7,ZKZYZ,162,2,615,Correct,7,774
7,PVPCP,233,2,716,Correct,7,704
7,KVKVK,113,1,685,Correct,7,651
7,YXYVY,161,2,661,Correct,7,926
7,FNFNF,151,1,661,Correct,7,741
7,YWYWY,7,3,883,Correct,7,830
7,ZYZYZ,13,1,936,Correct,7,826
7,PYPYP,152,1,879,Correct,7,734
7,XRXRX,153,1,789,Correct,7,829
7,PXPXP,154,1,670,Correct,7,780
7,FCFBF,181,,,Incorrect,7,702
7,FVFVF,15,1,684,Correct,7,798
7,CYCZC,161,2,693,Correct,7,879
7,XZXVX,162,2,864,Correct,7,880
7,PFPFP,151,1,791,Correct,7,845
7,RVRLR,161,2,558,Correct,7,832
7,ZBZBZ,192,1,950,Correct,7,659
7,VCVNV,16,2,604,Correct,7,747
7,NWNWN,8,3,1119,Correct,7,738
7,XNXVX,14,2,640,Correct,7,711
7,CXCNC,162,2,622,Correct,7,791
7,YVYVW,225,2,751,Incorrect,7,840
7,VFVFV,113,1,577,Correct,7,662
7,VFWFV,223,1,767,Correct,7,870
7,CVCFC,222,2,680,Correct,7,833
7,YBYBY,193,1,727,Correct,7,781
7,PYPYP,15,1,633,Correct,7,668
7,NKNWN,91,3,759,Correct,7,855
7,VNVNV,13,1,630,Correct,7,675
7,RVRVR,152,1,707,Correct,7,919
7,FVFBF,184,2,659,Incorrect,7,755
7,VZVKV,16,2,846,Correct,7,944
7,VPVCV,162,2,771,Correct,7,885
7,WYZCZ,231,2,721,Correct,7,728
7,PFPFP,113,1,578,Correct,7,676
7,PRPRP,152,1,737,Correct,7,863
7,NWNWN,10,3,827,Correct,7,831
7,VKVCV,14,2,607,Correct,7,912
7,WPYPY,221,1,708,Correct,7,667
7,VBVBV,195,1,904,Correct,7,662
7,ZKZYZ,16,2,542,Correct,7,750
7,XYXYX,151,1,690,Correct,7,759
7,FZFXF,161,2,783,Correct,7,845
7,XKXKX,151,1,904,Correct,7,793
7,XPXPX,152,1,852,Correct,7,672
7,FWFWF,11,3,901,Correct,7,915
7,FNFBF,186,2,694,Correct,7,926
7,ZVZYZ,16,2,726,Correct,7,720
7,FZFZF,151,1,623,Correct,7,853
7,NPNFW,235,2,732,Correct,7,893
7,PCPCP,113,1,791,Correct,7,815
7,NKNWN,122,3,732,Correct,7,948
8,M,5,3,1960,New Target,8,729
8,VYVNV,161,2,931,Correct,8,808
8,KLKNK,162,2,824,Correct,8,750
8,NRNRN,151,1,1036,Correct,8,916
8,VNVFV,161,2,660,Correct,8,941
8,XNXNM,225,1,913,Correct,8,889
8,CXCVC,222,2,955,Correct,8,694
8,KRKZK,162,2,768,Correct,8,737
8,NMNFN,71,3,913,Correct,8,730
8,ZFZFZ,13,1,743,Correct,8,699
8,YPYCY,161,2,880,Correct,8,897
8,KCKCK,151,1,737,Correct,8,918
8,VNVNV,152,1,762,Correct,8,855
8,LXLXL,153,1,691,Correct,8,820
8,CLCLC,154,1,721,Correct,8,781
8,NYNYN,155,1,625,Correct,8,726
8,LCMYL,233,2,625,Correct,8,793
8,NCNCN,113,1,636,Correct,8,899
8,ZVZRZ,161,2,520,Correct,8,918
8,ZVZVZ,151,1,685,Correct,8,731
8,PZPVP,161,2,712,Correct,8,904
8,PWPNP,171,2,742,Correct,8,744
8,KLKCM,235,2,822,Correct,8,720
8,XMXMX,8,3,837,Correct,8,675
8,PRPXP,14,2,772,Correct,8,699
8,CVCYC,162,1,793,Incorrect,8,927
8,PXPMP,92,3,546,Correct,8,818
8,ZCZLZ,14,2,662,Correct,8,822
8,XWXWX,192,2,923,Incorrect,8,691
8,ZCZLZ,16,2,672,Correct,8,784
8,MNCYC,231,2,909,Correct,8,871
8,ZXZXZ,113,1,705,Correct,8,844
8,YRYNY,161,2,749,Correct,8,827
8,ZLZPZ,162,2,699,Correct,8,734
8,VZVZV,151,1,893,Correct,8,673
8,MXPXP,221,1,958,Correct,8,922
8,VWVWV,193,1,929,Correct,8,840
8,PYPYP,16,1,633,Incorrect,8,720
8,XPXVX,162,2,682,Correct,8,699
8,XLXLX,151,1,661,Correct,8,919
8,YMYMY,10,3,1229,Correct,8,926
8,VYVYV,13,1,785,Correct,8,945
8,PWPZP,174,2,654,Correct,8,719
8,PYPKP,16,2,775,Correct,8,949
8,NPNXN,162,2,709,Correct,8,739
8,KVKVK,223,1,965,Correct,8,759
8,NVNFN,222,2,892,Correct,8,700
8,XNXNX,151,1,744,Correct,8,655
8,YZYMY,112,3,646,Correct,8,786
8,PFPFP,13,1,644,Correct,8,886
8,ZWZWZ,195,1,781,Correct,8,932
8,PCPZP,16,2,697,Correct,8,728
8,LRLPL,162,1,678,Incorrect,8,765
8,CZCZC,151,1,625,Correct,8,897
8,NZNZN,152,1,671,Correct,8,874
8,CVCXC,161,2,733,Correct,8,832
8,XCXCX,151,1,1142,Correct,8,895
8,YWYWY,196,1,1218,Correct,8,791
8,NLNLN,15,1,793,Correct,8,844
8,VNVNV,152,1,1015,Correct,8,671
8,ZMZMZ,12,3,841,Correct,8,826
9,S,5,3,1043,New Target,9,687
9,NZNZN,151,1,908,Correct,9,842
9,KVKZK,161,2,735,Correct,9,881
9,LZLZL,151,1,872,Correct,9,932
9,XLXLX,152,1,753,Correct,9,667
9,ZXZXZ,153,1,991,Correct,9,754
9,KNKZK,161,2,645,Correct,9,716
9,NRNYN,162,2,659,Correct,9,867
9,CLCVC,163,2,693,Correct,9,672
9,ZCZFZ,164,2,519,Correct,9,663
9,NSNSN,7,3,606,Correct,9,755
9,VZVZV,13,1,638,Correct,9,864
9,NVNCN,161,2,605,Correct,9,791
9,VMVMV,191,1,943,Correct,9,758
9,CVCXC,16,2,651,Correct,9,654
9,ZYZRZ,162,2,477,Correct,9,660
9,XNXZX,163,2,831,Correct,9,925
9,PXPXP,151,1,659,Correct,9,921
9,VCVSV,82,3,1192,Correct,9,652
9,PRPCP,14,2,612,Correct,9,689
9,ZMZMZ,192,1,659,Incorrect,9,883
9,ZFZFZ,15,1,814,Correct,9,884
9,FCFCF,152,1,765,Correct,9,662
9,YLYZY,161,2,698,Correct,9,794
9,KNKVK,162,2,776,Correct,9,825
9,SFPCP,231,2,642,Correct,9,790
9,RPRPR,113,1,815,Correct,9,869
9,XMXMX,193,1,791,Correct,9,819
9,KFKFK,15,1,592,Correct,9,831
9,VSVSV,9,3,596,Correct,9,693
9,YVSVY,223,2,817,Incorrect,9,876
9,VPVPV,113,1,612,Correct,9,925
9,XZXZX,152,1,581,Correct,9,820
9,KZKXK,161,2,744,Correct,9,784
9,RFRPR,162,2,836,Correct,9,821
9,NVNVS,225,1,714,Correct,9,808
9,ZXZXZ,113,1,757,Correct,9,871
9,SRVRV,221,1,1261,Correct,9,868
9,YCYCY,113,1,625,Correct,9,936
9,KMKZK,174,2,572,Correct,9,912
9,FZSVF,233,2,1023,Correct,9,802
9,VYVYV,113,1,619,Correct,9,936
9,LVLVL,152,1,715,Correct,9,801
9,YFYFY,153,1,658,Correct,9,934
9,NXNSN,102,3,900,Correct,9,742
9,FNFCF,14,2,810,Correct,9,821
9,KVKVK,151,1,726,Correct,9,760
9,VZVCV,161,2,645,Correct,9,669
9,ZYZMZ,185,2,565,Correct,9,781
9,VXVZV,16,2,582,Correct,9,802
9,VPVPV,151,1,1355,Correct,9,670
9,RVRNS,235,2,642,Correct,9,768
9,YZYZY,113,1,636,Correct,9,937
9,ZSZSZ,11,3,639,Correct,9,705
9,FRFRF,13,1,834,Correct,9,709
9,ZMZMZ,196,1,751,Correct,9,673
9,NZNXN,16,2,759,Correct,9,816
9,LSLFL,121,3,803,Correct,9,783
10,Q,5,3,1135,New Target,10,942
10,ZVZPZ,161,2,586,Correct,10,820
10,RZRZR,151,1,655,Correct,10,675
10,ZFZFZ,152,1,610,Correct,10,665
10,RZRZR,153,1,578,Correct,10,788
10,PZPXP,161,2,583,Correct,10,760
10,VFQPV,233,2,583,Correct,10,894
10,ZPZRZ,222,2,997,Correct,10,866
10,CYCVC,162,2,738,Correct,10,881
10,CPCPC,151,1,618,Correct,10,878
10,YZYQY,72,2,885,Incorrect,10,866
10,FVFXF,14,2,634,Correct,10,872
10,YNYNQ,225,1,733,Correct,10,751
10,ZYZYZ,113,1,710,Correct,10,829
10,FRFSF,181,2,529,Incorrect,10,894
10,XNXPX,16,2,571,Correct,10,655
10,NXNXN,151,1,668,Correct,10,924
10,PVPZP,161,2,643,Correct,10,913
10,XVXPX,162,2,564,Correct,10,775
10,FXFVF,163,2,503,Correct,10,801
10,NSNKN,172,2,1018,Incorrect,10,859
10,VXVNV,16,2,505,Correct,10,778
10,XZXZX,151,1,731,Correct,10,884
10,VQVQV,8,3,712,Correct,10,766
10,ZYZPZ,14,2,634,Correct,10,706
10,PZPSP,183,2,942,Correct,10,746
10,YVYVY,15,1,597,Correct,10,705
10,NCNQN,92,3,968,Correct,10,699
10,FCFVF,14,2,785,Correct,10,660
10,ZFZFZ,151,1,709,Correct,10,900
10,NSNSN,194,1,963,Correct,10,830
10,YPYFY,16,2,697,Correct,10,770
10,ZKZKZ,151,1,826,Correct,10,708
10,QZRCR,231,2,624,Correct,10,911
10,YPYVY,222,2,754,Correct,10,746
10,ZNZNZ,151,1,699,Correct,10,892
10,VQVQV,10,3,729,Correct,10,820
10,RVRZR,14,2,531,Correct,10,890
10,KRKSK,185,2,676,Correct,10,891
10,NPNPN,15,1,751,Correct,10,831
10,YPYPY,152,1,608,Correct,10,673
10,VCVYV,161,2,594,Correct,10,742
10,FPFNF,162,2,550,Correct,10,811
10,QVXVX,221,1,774,Correct,10,824
10,ZVZRZ,222,2,658,Correct,10,811
10,LFLFL,151,1,707,Correct,10,790
10,VLVLV,152,1,624,Correct,10,805
10,KXQXK,223,1,670,Correct,10,862
10,YQYQY,11,3,905,Correct,10,897
10,YCYCY,13,1,1054,Correct,10,799
10,PZPYP,161,2,732,Correct,10,813
10,LPLFL,162,2,735,Correct,10,650
10,VSVSV,196,1,964,Correct,10,945
10,VFVYQ,235,2,644,Correct,10,862
10,CZCXC,222,2,616,Correct,10,692
10,PVPCP,162,2,632,Correct,10,829
10,CXCXC,151,2,532,Incorrect,10,928
10,NZNZN,152,1,573,Correct,10,655
10,YPYCY,161,2,449,Correct,10,745
10,ZQZQZ,12,3,843,Correct,10,760
11,T,5,3,1125,New Target,11,670
11,KFKFK,151,1,1127,Correct,11,701
11,LZLZL,152,1,593,Correct,11,950
11,PFPVP,161,2,603,Correct,11,922
11,FRFPF,162,2,655,Correct,11,716
11,FZFZF,151,1,627,Correct,11,650
11,VTVTV,7,3,581,Correct,11,807
11,KYKCK,14,2,584,Correct,11,785
11,VPVPV,151,1,632,Correct,11,767
11,XQXQX,191,1,939,Correct,11,736
11,PZPYP,16,2,597,Correct,11,690
11,KXKLK,162,2,618,Correct,11,663
11,TCNCN,221,1,616,Correct,11,888
11,PZPNP,222,2,547,Correct,11,914
11,RCRPR,162,2,535,Correct,11,794
11,PZPRT,235,2,585,Correct,11,801
11,XFXVX,222,2,575,Correct,11,718
11,LTLVL,81,2,591,Incorrect,11,812
11,ZCZPZ,14,2,545,Correct,11,765
11,NCNQN,182,2,659,Correct,11,792
11,XZXNX,16,2,668,Correct,11,936
11,ZPZPZ,151,1,958,Correct,11,650
11,CFCFC,152,1,704,Correct,11,866
11,VXTRV,233,2,602,Correct,11,869
11,CFCVC,222,2,648,Correct,11,924
11,PYPYP,151,1,738,Correct,11,920
11,FQFYF,173,2,590,Correct,11,799
11,CNCFC,16,2,766,Correct,11,862
11,PTPTP,9,,,Incorrect,11,810
11,ZCZCZ,13,1,770,Correct,11,830
11,KZKZK,152,2,650,Incorrect,11,884
11,RLRVR,161,2,599,Correct,11,826
11,ZRZKZ,162,2,583,Correct,11,782
11,KLKLT,225,1,986,Correct,11,805
11,ZQZQZ,194,1,731,Correct,11,826
11,VZVZV,15,1,856,Correct,11,759
11,RVRZR,161,2,836,Correct,11,685
11,ZPZCZ,162,2,990,Correct,11,742
11,VYVYV,151,1,1029,Correct,11,680
11,RVRVR,152,1,867,Correct,11,893
11,PTPTP,10,3,601,Correct,11,846
11,PXPXP,13,1,785,Correct,11,663
11,KCKCK,152,1,587,Correct,11,831
11,YVYVY,153,1,583,Correct,11,941
11,CYCYC,154,1,534,Correct,11,799
11,XCXCX,155,1,534,Correct,11,883
11,CYCQC,185,2,646,Correct,11,842
11,KCKNK,16,2,709,Correct,11,858
11,VPVPV,151,1,758,Correct,11,693
11,TXFZF,231,2,661,Correct,11,721
11,NYNVN,222,2,717,Correct,11,941
11,VQVXV,176,2,632,Correct,11,878
11,ZRZRZ,15,1,691,Correct,11,903
11,VTVZV,111,3,771,Correct,11,746
11,PXPVP,14,2,593,Correct,11,724
11,FVFVF,151,1,688,Correct,11,837
11,VRVLV,161,2,656,Correct,11,764
11,YCYCY,151,1,653,Correct,11,816
11,XZTZX,223,1,1039,Correct,11,769
11,VTVTV,12,3,593,Correct,11,722
12,O,5,3,1204,New Target,12,726
12,VXVLV,161,2,728,Correct,12,922
12,KVKCK,162,2,643,Correct,12,863
12,VLVLV,151,1,692,Correct,12,761
12,ZCZVZ,161,2,562,Correct,12,779
12,KFKFK,151,1,578,Correct,12,920
12,XKXKX,152,1,785,Correct,12,908
12,YXYXY,153,1,623,Correct,12,729
12,FVFVF,154,1,636,Correct,12,905
12,PVPOP,72,3,622,Correct,12,787
12,ZXZYZ,14,2,687,Correct,12,799
12,PXPVP,162,2,659,Correct,12,654
12,ZTZTZ,191,1,717,Correct,12,880
12,CVCKC,16,2,606,Correct,12,681
12,CKCKC,151,1,764,Correct,12,916
12,NPNPN,152,1,678,Correct,12,835
12,ZRZNZ,161,2,632,Correct,12,673
12,OZCZC,221,1,633,Correct,12,805
12,LFLFL,113,1,693,Correct,12,927
12,CXCXC,152,1,598,Correct,12,745
12,KPKPK,153,1,725,Correct,12,935
12,FRFKF,161,2,582,Correct,12,661
12,FOFOF,8,3,748,Correct,12,732
12,ZFZFZ,13,1,677,Correct,12,877
12,LKLZO,235,2,733,Correct,12,932
12,KLKZK,222,2,1068,Correct,12,762
12,YXYCY,162,2,729,Correct,12,894
12,LOLOL,9,3,517,Correct,12,807
12,XLXLX,13,1,927,Correct,12,660
12,XVXVX,152,1,625,Correct,12,846
12,FTFTF,192,1,651,Correct,12,923
12,OXNZN,231,2,763,Correct,12,663
12,CZCZC,113,1,687,Correct,12,806
12,LZLZL,152,1,524,Correct,12,659
12,VLVPV,161,2,745,Correct,12,896
12,VYVYO,225,1,998,Correct,12,685
12,XKXKX,113,1,675,Correct,12,840
12,RTRTR,193,1,569,Correct,12,803
12,KVKCK,16,2,614,Correct,12,898
12,ROROR,101,3,545,Correct,12,815
12,PRPRP,13,1,814,Correct,12,810
12,LYLVL,161,2,769,Correct,12,889
12,PLPLP,151,1,628,Correct,12,886
12,CTCTC,194,1,776,Correct,12,935
12,XZXYX,16,2,846,Correct,12,828
12,NKNKN,151,1,653,Correct,12,907
12,VLVZV,161,2,713,Correct,12,717
12,YOYOY,11,3,574,Correct,12,811
12,PZOZP,223,2,791,Incorrect,12,933
12,FYFYF,113,1,832,Correct,12,703
12,ZXZVZ,161,2,613,Correct,12,732
12,VKVZV,162,2,826,Correct,12,940
12,ZTZTZ,195,1,682,Correct,12,851
12,LKLZL,16,2,784,Correct,12,947
12,KCKVK,162,2,693,Correct,12,835
12,PXPKP,163,2,644,Correct,12,684
12,KCOZK,233,2,909,Correct,12,807
12,FKFKF,113,1,664,Correct,12,934
12,CTCRC,176,2,631,Correct,12,651
12,NXNXN,15,1,785,Correct,12,861
12,KXKVK,161,2,566,Correct,12,852
12,CPCOC,122,3,702,Correct,12,928
13,H,5,3,1056,New Target,13,857
13,VFVNV,151,2,551,Incorrect,13,661
13,YVYVY,152,1,706,Correct,13,829
13,XVXVX,153,1,507,Correct,13,818
13,NRNXN,161,2,535,Correct,13,926
13,PZPKP,162,2,606,Correct,13,654
13,HLVLV,221,2,582,Incorrect,13,864
13,CXCZC,222,2,597,Correct,13,727
13,LHLYL,71,2,656,Incorrect,13,843
13,YKYFY,14,2,725,Correct,13,877
13,YOYRY,171,2,556,Correct,13,827
13,ZKZYZ,16,2,602,Correct,13,710
13,RZRZR,151,1,785,Correct,13,877
13,NFNYN,161,2,708,Correct,13,878
13,KVKFK,162,2,538,Correct,13,876
13,XFXYX,163,2,611,Correct,13,896
13,LKLVL,164,2,667,Correct,13,939
13,NLNLN,151,1,675,Correct,13,803
13,XCXOX,182,2,901,Correct,13,884
13,FXFXF,15,1,693,Correct,13,935
13,VHVHV,8,3,753,Correct,13,724
13,PVPVP,13,1,837,Correct,13,835
13,CRCXC,161,2,563,Correct,13,880
13,NXNXN,151,1,603,Correct,13,944
13,XRXRX,152,1,609,Correct,13,934
13,YFYXY,161,2,621,Correct,13,788
13,ZOZOZ,193,1,754,Correct,13,799
13,RZRZR,15,1,749,Correct,13,797
13,FKFKF,152,1,632,Correct,13,650
13,PFPFP,153,1,498,Correct,13,765
13,XYXHX,92,2,546,Incorrect,13,834
13,RZRKR,14,2,749,Correct,13,784
13,FLFLH,225,1,787,Correct,13,818
13,KRKRK,113,1,822,Correct,13,785
13,ZVZNZ,161,2,604,Correct,13,782
13,ZOZOZ,194,1,697,Correct,13,698
13,FZFZF,15,1,592,Correct,13,793
13,FHFKF,101,3,888,Correct,13,910
13,ZXHLZ,233,2,1231,Correct,13,750
13,FKFXF,222,2,709,Correct,13,745
13,CFCYC,162,2,586,Correct,13,842
13,ZXZVZ,163,2,588,Correct,13,758
13,KCKOK,185,2,665,Correct,13,653
13,ZXZVH,235,2,788,Correct,13,794
13,CKCKC,113,1,701,Correct,13,720
13,ZXZCZ,161,2,866,Correct,13,891
13,YVYVY,151,1,666,Correct,13,660
13,RVHVR,223,1,1206,Correct,13,734
13,ZRZRZ,113,1,701,Correct,13,784
13,ZHZHZ,11,3,523,Correct,13,676
13,VZVZV,13,1,758,Correct,13,912
13,HZVRV,231,2,744,Correct,13,942
13,FVFVF,113,1,648,Correct,13,932
13,RNRCR,161,2,1014,Correct,13,697
13,COCOC,196,1,980,Correct,13,695
13,VNVXV,16,2,646,Correct,13,722
13,XHXHX,12,3,673,Correct,13,728
14,G,5,3,1464,New Target,14,870
14,FZFZF,151,1,755,Correct,14,906
14,RPRVR,161,2,603,Correct,14,672
14,XCXCX,151,1,582,Correct,14,882
14,YXYXY,152,1,610,Correct,14,780
14,KZKZK,153,1,680,Correct,14,912
14,RYRKR,161,2,638,Correct,14,897
14,FYFNF,162,2,646,Correct,14,878
14,VKVKV,151,1,621,Correct,14,870
14,KPGPK,223,2,696,Incorrect,14,771
14,YNYNY,113,1,612,Correct,14,756
14,VYVYV,152,1,572,Correct,14,905
14,YCYXY,161,2,632,Correct,14,841
14,LKLGL,72,2,776,Incorrect,14,740
14,VXVXV,13,1,638,Correct,14,716
14,KCKVK,161,2,599,Correct,14,844
14,YKYKY,151,1,596,Correct,14,806
14,RHRXR,171,2,638,Correct,14,852
14,FVFCF,16,2,1254,Correct,14,894
14,YXYGY,82,3,683,Correct,14,800
14,CLCLC,13,1,694,Correct,14,778
14,ZXZCZ,161,2,667,Correct,14,812
14,VLVFV,162,2,617,Correct,14,807
14,CPCPG,225,1,752,Correct,14,932
14,KHKNK,172,2,1259,Correct,14,749
14,ZKZVZ,16,2,663,Correct,14,907
14,YKYLY,162,2,644,Correct,14,769
14,CNCNC,151,1,746,Correct,14,920
14,PGPGP,9,3,672,Correct,14,775
14,VPVPV,13,1,952,Correct,14,873
14,FXGRF,233,2,854,Correct,14,787
14,CYCVC,222,1,1085,Incorrect,14,655
14,FNFNF,151,1,683,Correct,14,671
14,KFKCK,161,2,595,Correct,14,796
14,ZFZHZ,183,2,980,Correct,14,732
14,NXNXN,15,1,677,Correct,14,684
14,FNFNF,152,1,978,Correct,14,660
14,LXLNG,235,2,986,Correct,14,944
14,XKXVX,222,2,810,Correct,14,694
14,ZHZHZ,194,1,770,Correct,14,668
14,PFPFP,15,1,759,Correct,14,852
14,ZYZYZ,152,1,712,Correct,14,933
14,XPXVX,161,2,817,Correct,14,821
14,YCYCY,151,1,680,Correct,14,756
14,RGRGR,10,3,1385,Correct,14,946
14,VRVRV,13,1,555,Correct,14,718
14,PKPNP,161,2,633,Correct,14,740
14,XGXGX,11,3,590,Correct,14,910
14,GZYVY,231,2,653,Correct,14,791
14,VCVNV,222,2,706,Correct,14,924
14,VHVHV,195,1,609,Correct,14,664
14,LXLNL,16,2,538,Correct,14,787
14,GKPKP,221,1,876,Correct,14,675
14,XRXPX,222,1,768,Incorrect,14,712
14,XNXNX,151,1,615,Correct,14,821
14,KHKNK,176,2,632,Incorrect,14,664
14,RZRZR,15,1,634,Correct,14,915
14,CGCFC,121,3,793,Correct,14,725
15,A,5,3,1222,New Target,15,697
15,XRXFX,161,2,852,Correct,15,710
15,RXRKR,162,2,984,Correct,15,815
15,YRYRY,151,1,672,Correct,15,906
15,XPXPX,152,1,750,Correct,15,657
15,RPRPR,153,1,792,Correct,15,735
15,NCNCN,154,1,607,Correct,15,751
15,RXRZR,161,2,666,Correct,15,837
15,NANAN,7,3,666,Correct,15,655
15,KCKYK,14,2,591,Correct,15,838
15,XKXFX,162,2,783,Correct,15,760
15,ZLZKZ,163,2,612,Correct,15,845
15,VCVZV,164,2,752,Correct,15,725
15,XCXVX,165,2,470,Correct,15,764
15,LKLZA,235,2,613,Correct,15,787
15,NCNCN,113,1,788,Correct,15,756
15,YGYGY,191,1,947,Correct,15,933
15,VLVLV,15,1,679,Correct,15,705
15,XRXRX,152,1,642,Correct,15,725
15,KAKPK,81,2,664,Incorrect,15,877
15,YZAZY,233,1,965,Incorrect,15,740
15,CFCFC,113,1,723,Correct,15,892
15,VNVLV,161,2,780,Correct,15,768
15,KPKVK,162,2,724,Correct,15,670
15,NCNRN,163,2,728,Correct,15,925
15,FGFGF,192,1,1042,Correct,15,697
15,RCRYR,16,2,736,Correct,15,861
15,KRKCK,162,2,718,Correct,15,893
15,CRCRC,151,1,980,Correct,15,880
15,XPAPX,223,1,1239,Correct,15,707
15,LPLXL,222,2,793,Correct,15,792
15,CGCVC,173,2,908,Correct,15,847
15,FKFZF,16,2,801,Correct,15,715
15,CACAC,9,3,757,Correct,15,821
15,XCXCX,13,1,935,Correct,15,908
15,AXRXR,221,2,823,Incorrect,15,730
15,NKNRN,222,2,752,Correct,15,663
15,KNKFK,162,2,715,Correct,15,752
15,KAKAK,10,3,655,Correct,15,882
15,ZCZRZ,14,2,692,Correct,15,901
15,RPRPR,151,1,871,Correct,15,940
15,NCNCN,152,1,632,Correct,15,829
15,RYRGR,184,2,734,Correct,15,876
15,VPVPV,15,1,632,Correct,15,726
15,RCRCA,225,1,783,Correct,15,931
15,KXKPK,222,2,679,Correct,15,718
15,NPNPN,151,1,692,Correct,15,763
15,YCYCY,152,1,636,Correct,15,749
15,PXPAP,112,3,1029,Correct,15,906
15,ZCZNZ,14,2,912,Correct,15,855
15,KYKGK,185,2,763,Correct,15,859
15,ANLPL,231,2,862,Correct,15,934
15,CXCPC,222,2,684,Correct,15,869
15,YRYRY,151,1,908,Correct,15,696
15,LGLGL,196,1,830,Correct,15,781
15,VYVLV,16,2,771,Correct,15,735
15,KVKVK,151,1,998,Correct,15,860
15,RKRKR,152,1,647,Correct,15,703
15,VXVXV,153,1,1254,Correct,15,714
15,XAXAX,12,3,726,Correct,15,874
