Trial No,Stimulus,Trigger,Response,Response Time(ms),Correct,Block,Fixation Duration
Practice
OT Practice
1,SKSKS,15,1,1491,Correct,0,741
1,DLDUD,16,2,940,Correct,0,814
1,PDPGP,16,2,1246,Correct,0,728
1,MWMWM,15,1,878,Correct,0,940
1,FTFTF,15,1,895,Correct,0,866
1,AXAMA,16,2,772,Correct,0,746
1,RYRGR,16,2,784,Correct,0,661
1,DODOD,15,1,851,Correct,0,859
1,QTQAQ,16,2,764,Correct,0,717
1,YEYEY,15,1,950,Correct,0,688
2,GYGDG,16,2,818,Correct,0,663
2,SWSWS,15,1,662,Correct,0,808
2,HLHUH,16,2,760,Correct,0,656
2,DEDED,15,1,802,Correct,0,702
2,ZPZOZ,16,2,613,Correct,0,816
2,ATATA,15,1,1097,Correct,0,665
2,QOQOQ,15,1,782,Correct,0,923
2,FPFGF,16,2,720,Correct,0,886
2,TRTET,16,,,False,0,874
2,DQDQD,15,1,1544,Correct,0,892
AT Practice
1,TKTKT,15,1,1488,Correct,0,898
1,SLSUS,16,2,943,Correct,0,742
1,VZVGV,7,3,767,Correct,0,863
1,XWXZX,7,3,808,Correct,0,736
1,ATATA,15,1,913,Correct,0,741
1,HXZMH,16,,,False,0,838
1,TZTZT,7,3,855,Correct,0,816
1,UOUOU,15,1,1000,Correct,0,902
1,ZTWAW,16,2,1416,Correct,0,756
1,RZRER,7,3,694,Correct,0,808
2,JYJDJ,16,2,1024,Correct,0,740
2,DWDWD,15,1,827,Correct,0,897
2,GNGNG,7,3,1103,Correct,0,827
2,NEZEZ,16,3,928,False,0,651
2,RNROR,7,3,864,Correct,0,806
2,QTQNQ,7,3,949,Correct,0,706
2,HOHON,15,1,1019,Correct,0,665
2,KPKGK,16,2,828,Correct,0,763
2,DRDED,16,2,866,Correct,0,780
2,LNLNL,7,3,763,Correct,0,665
4,GLGLG,15,1,916,Correct,0,832
4,DTDID,16,2,679,Correct,0,746
4,SMSGS,16,2,692,Correct,0,772
4,ZFZYZ,7,3,681,Correct,0,927
4,TSTFT,7,3,623,Correct,0,883
4,OFOFO,7,3,648,Correct,0,885
4,WYFGW,16,2,1136,Correct,0,932
4,WYWYW,15,2,854,False,0,892
4,MFMCM,7,3,773,Correct,0,898
4,HQHEH,16,2,992,Correct,0,729
Trials
1,D,5,3,18821,New Target,1,841
1,BNBYB,161,2,1300,Correct,1,856
1,FBFBF,151,1,1083,Correct,1,746
1,RKRKR,152,2,836,Incorrect,1,940
1,QSQNQ,161,2,861,Correct,1,793
1,CTCFC,162,2,819,Correct,1,818
1,PDPDP,7,1,847,Incorrect,1,693
1,OPOFO,14,2,1065,Correct,1,699
1,HLHNH,162,2,1044,Correct,1,942
1,MFMFM,151,1,784,Correct,1,934
1,BTBTB,152,1,1196,Correct,1,747
1,MCMPD,235,2,692,Correct,1,854
1,BMBFB,222,2,848,Correct,1,880
1,NTNZN,162,2,920,Correct,1,793
1,MXMRM,163,2,809,Correct,1,904
1,APABA,164,2,799,Correct,1,870
1,FMDMF,223,1,860,Correct,1,741
1,QPQPQ,113,1,787,Correct,1,838
1,VQVMV,161,2,684,Correct,1,873
1,RERPR,162,2,1004,Correct,1,745
1,KVKVK,151,2,775,Incorrect,1,948
1,AKAHA,161,2,821,Correct,1,678
1,VDVDV,8,1,602,Incorrect,1,885
1,DUGUG,221,2,648,Incorrect,1,905
1,AFAFA,113,2,604,Incorrect,1,715
1,GYGYG,152,1,881,Correct,1,741
1,VXVSV,161,2,728,Correct,1,720
1,DOWGW,231,2,807,Correct,1,739
1,QYQYQ,113,1,772,Correct,1,680
1,ODONO,91,1,1293,Incorrect,1,832
1,MSMSM,13,1,760,Correct,1,729
1,GYGYG,152,1,690,Correct,1,844
1,UMUMU,153,1,642,Correct,1,738
1,BZBZB,154,1,1237,Correct,1,746
1,NTNBN,161,2,643,Correct,1,661
1,GNDYG,233,2,804,Correct,1,767
1,OCOSO,222,2,991,Correct,1,793
1,BHBFB,162,2,897,Correct,1,824
1,QCQBQ,163,2,621,Correct,1,676
1,LQLQL,151,1,948,Correct,1,669
1,ZDZDZ,10,3,677,Correct,1,833
1,QNQZQ,14,2,936,Correct,1,688
1,CSCYC,162,2,665,Correct,1,834
1,RCRLR,163,2,517,Correct,1,888
1,FRFRF,151,1,590,Correct,1,714
1,WFWFW,152,2,464,Incorrect,1,830
1,QOQLQ,161,2,651,Correct,1,668
1,AWAQA,162,2,633,Correct,1,868
1,EAEAE,151,1,645,Correct,1,880
1,AGAUA,161,2,531,Correct,1,841
1,YMYMY,151,1,633,Correct,1,707
1,XQXQX,152,1,726,Correct,1,907
1,SHSGS,161,2,664,Correct,1,675
1,PDPDP,11,1,675,Incorrect,1,863
1,ZGZGZ,13,1,766,Correct,1,901
1,OXOXO,152,1,795,Correct,1,763
1,LYLYL,153,1,742,Correct,1,779
1,NKNKD,225,1,1014,Correct,1,651
1,GNGNG,113,1,696,Correct,1,766
1,OYOBO,161,2,662,Correct,1,834
1,SOSOS,151,1,578,Correct,1,850
1,VHVHV,152,1,611,Correct,1,817
1,OKOXO,161,2,1010,Correct,1,815
1,EZEZE,151,1,801,Correct,1,840
1,LDLDL,12,3,760,Correct,1,827
2,U,5,3,5072,New Target,2,685
2,BVBEB,161,2,1250,Correct,2,914
2,FBFBF,151,1,798,Correct,2,671
2,RFRFR,152,1,762,Correct,2,763
2,NBNKN,161,2,630,Correct,2,823
2,MKMNM,162,2,1000,Correct,2,777
2,QXQXQ,151,1,970,Correct,2,769
2,MQMYM,161,2,683,Correct,2,875
2,TGTPT,162,2,666,Correct,2,755
2,XOXOX,151,1,684,Correct,2,725
2,CUCUC,7,3,902,Correct,2,871
2,RFRFR,13,2,988,Incorrect,2,799
2,VYVSV,161,2,670,Correct,2,855
2,VDVDV,191,1,1095,Correct,2,933
2,GKGQG,15,2,721,Correct,2,931
2,SCSCS,151,1,867,Correct,2,685
2,CTCUC,82,2,678,Incorrect,2,914
2,RCRCR,13,2,680,Incorrect,2,746
2,BOBXB,161,2,729,Correct,2,704
2,FMFAF,162,2,1111,Correct,2,722
2,BEBAB,163,2,906,Correct,2,670
2,PWPWP,151,1,1023,Correct,2,775
2,UQCKC,231,2,613,Correct,2,723
2,OCOCO,113,1,950,Correct,2,801
2,TNTNT,152,1,762,Correct,2,766
2,QCQGQ,161,2,1265,Correct,2,938
2,WVWVW,151,2,899,Incorrect,2,949
2,TQTQT,152,1,629,Correct,2,879
2,FOFOF,225,1,600,Correct,2,783
2,WVWFW,222,2,745,Correct,2,791
2,SWSWS,151,1,594,Correct,2,854
2,FYFCF,161,2,611,Correct,2,838
2,SUSWS,91,2,703,Incorrect,2,887
2,CACHC,14,2,650,Correct,2,837
2,VDVKV,172,2,629,Correct,2,874
2,YCYCY,15,1,825,Correct,2,727
2,NMNTN,161,2,690,Correct,2,845
2,XOUKX,233,2,609,Correct,2,787
2,BPBPB,113,2,647,Incorrect,2,674
2,MRMRM,152,1,759,Correct,2,774
2,XMXMX,153,1,724,Correct,2,782
2,AUAHA,101,2,597,Incorrect,2,696
2,XKXEU,235,2,627,Correct,2,880
2,TFTFT,113,1,724,Correct,2,750
2,MDMDM,193,1,695,Correct,2,650
2,WYWMW,16,2,1121,Correct,2,879
2,AZUZA,223,1,625,Correct,2,690
2,KEKHK,222,2,752,Correct,2,823
2,LALAL,151,1,727,Correct,2,864
2,CWCDC,184,2,529,Incorrect,2,855
2,SGSTS,16,2,628,Correct,2,877
2,PXPXP,151,1,889,Correct,2,702
2,GRGYG,161,2,588,Correct,2,909
2,PUPOP,111,1,952,Incorrect,2,944
2,RNRNR,14,1,1096,Correct,2,893
2,KDKDK,195,2,792,Incorrect,2,776
2,KTKTK,15,1,739,Correct,2,709
2,OROKO,161,2,1339,Correct,2,925
2,UNANA,221,,,Incorrect,2,726
2,TATAT,113,3,1040,Incorrect,2,738
2,AWAWA,152,1,873,Incorrect,2,904
2,RDRDR,196,1,1181,Correct,2,848
2,FCFCF,15,1,672,Correct,2,657
2,ZMZMZ,152,1,573,Correct,2,842
2,BUBUB,12,3,768,Correct,2,774
3,E,5,3,1600,New Target,3,844
3,YZYZY,151,1,755,Correct,3,862
3,VFVNV,161,2,684,Correct,3,816
3,KAKAK,151,1,1065,Correct,3,826
3,TKTKT,152,2,744,Incorrect,3,789
3,WHWTW,161,2,836,Correct,3,788
3,QEQFQ,71,3,1134,Correct,3,685
3,XNXNX,13,1,647,Correct,3,939
3,TXTXT,152,2,615,Incorrect,3,747
3,GLGNG,161,2,787,Correct,3,944
3,CUCTC,171,2,867,Correct,3,657
3,FAFQF,16,2,908,Correct,3,694
3,ZLZLZ,151,1,929,Correct,3,786
3,YZYZY,152,1,822,Correct,3,774
3,CYCYC,153,1,641,Correct,3,745
3,HUHUH,192,1,893,Correct,3,932
3,OSORO,16,2,1277,Correct,3,900
3,YOYOY,151,1,967,Correct,3,739
3,CECEC,8,3,825,Correct,3,822
3,VNENV,223,1,769,Correct,3,828
3,KQKFK,222,2,1449,Correct,3,874
3,XLXLE,225,1,766,Correct,3,703
3,QFQUQ,183,2,1070,Correct,3,692
3,SWSLS,16,2,688,Correct,3,773
3,NBNPN,162,2,928,Correct,3,797
3,SGSGS,151,1,1031,Correct,3,670
3,FBFBF,152,1,1019,Correct,3,762
3,PFPFP,153,1,680,Correct,3,906
3,AGASA,161,2,905,Correct,3,679
3,KEKEK,9,3,771,Correct,3,727
3,CWCOC,14,2,792,Correct,3,941
3,HXHXH,151,,,Incorrect,3,752
3,NUNZN,174,2,826,Correct,3,915
3,QMQVQ,16,,,Incorrect,3,910
3,SQSQS,151,1,873,Correct,3,814
3,ERNFN,231,2,1136,Incorrect,3,807
3,AQANA,222,2,1088,Correct,3,802
3,OBOEO,102,2,1027,Incorrect,3,665
3,SYSXS,14,2,786,Correct,3,755
3,QBQHQ,162,2,571,Correct,3,861
3,XQXQX,151,1,835,Correct,3,668
3,KUKFK,175,2,986,Correct,3,843
3,RKRKR,15,1,861,Correct,3,715
3,GFGFG,152,1,676,Correct,3,826
3,YBYVY,161,2,702,Correct,3,939
3,SPSTS,162,2,970,Correct,3,808
3,AQAQA,151,1,764,Correct,3,795
3,EPVPV,221,1,755,Correct,3,884
3,CQCEC,112,2,601,Incorrect,3,943
3,RFRCR,14,2,1015,Correct,3,841
3,CPCVC,162,2,699,Correct,3,772
3,RXRCR,163,2,580,Correct,3,886
3,TNTLT,164,2,603,Correct,3,680
3,BSBSB,151,1,670,Correct,3,789
3,ZBZBZ,152,1,663,Correct,3,903
3,OYOUO,186,2,1004,Correct,3,696
3,AKAOA,16,,,Incorrect,3,876
3,YQEWY,233,2,1511,Correct,3,764
3,ZMZMZ,113,1,633,Correct,3,698
3,SWSTS,161,2,540,Correct,3,704
3,MFMQE,235,2,991,Correct,3,825
3,RSRLR,222,2,709,Correct,3,693
3,QEQWQ,121,3,1064,Correct,3,691
4,K,5,3,4709,New Target,4,870
4,CACHC,161,2,1081,Correct,4,723
4,RWRCR,162,2,858,Correct,4,718
4,FOFVF,163,2,626,Correct,4,712
4,LGLGL,151,1,677,Correct,4,772
4,PLPLP,152,1,1280,Correct,4,934
4,NPNPN,153,1,763,Correct,4,686
4,SGSZS,161,2,841,Correct,4,676
4,DNDMD,162,2,1068,Correct,4,889
4,OCOAK,235,2,1288,Correct,4,870
4,VYVYV,113,1,768,Correct,4,738
4,RLRLR,152,1,681,Correct,4,896
4,DKDKD,7,3,1315,Correct,4,860
4,ZLZLZ,13,2,868,Incorrect,4,942
4,FZFZF,152,1,1068,Correct,4,769
4,CFCFC,153,1,806,Correct,4,934
4,OZOZO,154,1,685,Correct,4,907
4,XEXEX,191,1,1294,Correct,4,698
4,NVNFN,16,2,920,Correct,4,814
4,AYAYA,151,1,1009,Correct,4,675
4,BNBVB,161,2,808,Correct,4,676
4,AHKXA,233,2,973,Correct,4,916
4,WFWFW,113,1,930,Correct,4,792
4,SNSNS,152,2,539,Incorrect,4,671
4,FKFMF,81,2,700,Incorrect,4,856
4,DZDYD,14,2,831,Correct,4,653
4,GXGDG,162,2,1006,Correct,4,659
4,AYAYK,225,1,1241,Correct,4,934
4,FPFGF,222,2,707,Correct,4,801
4,WRWRW,151,1,630,Correct,4,692
4,YPYEY,182,2,567,Correct,4,746
4,SQSQS,15,1,760,Correct,4,808
4,WZWPW,161,2,671,Correct,4,903
4,CKCKC,9,3,701,Correct,4,869
4,BWBVB,14,2,774,Correct,4,813
4,HMHMH,151,1,836,Correct,4,708
4,VEVNV,173,2,616,Correct,4,885
4,GMGVG,16,2,647,Correct,4,901
4,XHXKX,102,2,755,Incorrect,4,844
4,QXQRQ,14,2,907,Correct,4,841
4,LQLQL,151,1,721,Correct,4,832
4,ALELA,223,1,747,Correct,4,801
4,TPTKT,222,3,794,Incorrect,4,709
4,GEGEG,194,2,516,Incorrect,4,802
4,ZNZNZ,15,1,1003,Correct,4,712
4,YZYZY,152,1,1098,Correct,4,901
4,SYSYS,153,2,778,Incorrect,4,783
4,ZSZSZ,221,1,1201,Correct,4,891
4,LALGL,222,2,632,Correct,4,819
4,CYCTC,162,2,777,Correct,4,722
4,WEWEW,195,1,646,Correct,4,786
4,CHCSC,16,2,1207,Correct,4,770
4,GWGXG,162,2,1524,Correct,4,702
4,FGFGF,151,1,914,Correct,4,800
4,QWQKQ,112,2,683,Incorrect,4,676
4,OQOFO,14,2,1560,Correct,4,799
4,PMPEP,186,2,1317,Correct,4,834
4,WBWPW,16,2,1253,Correct,4,933
4,KCDHD,231,2,1024,Correct,4,712
4,RSRWR,222,2,581,Correct,4,687
4,HGHGH,151,1,835,Correct,4,935
4,SKSKS,12,3,1022,Correct,4,697
5,L,5,3,2315,New Target,5,695
5,PDPDP,151,1,978,Correct,5,891
5,WAWAW,152,1,823,Correct,5,719
5,HWHWH,153,1,1152,Correct,5,759
5,SHSHS,154,1,943,Correct,5,705
5,BRBWB,161,2,657,Correct,5,858
5,FPFBF,162,2,1023,Correct,5,831
5,GAGAG,151,1,942,Correct,5,913
5,QVQGQ,161,2,812,Correct,5,934
5,CLCLC,7,1,1066,Incorrect,5,668
5,XWXWX,13,1,806,Correct,5,878
5,AUAUA,152,1,799,Correct,5,758
5,CKCKC,191,,,Incorrect,5,764
5,FNFCF,16,2,564,Correct,5,791
5,UHUQU,162,2,1004,Correct,5,650
5,FZFZF,151,1,702,Correct,5,828
5,THLHT,223,1,960,Correct,5,664
5,CUCLC,82,3,1344,Correct,5,899
5,BSBSB,13,1,678,Correct,5,766
5,FDFBF,161,2,741,Correct,5,865
5,LXRXR,221,1,682,Correct,5,944
5,ZOZNZ,222,2,679,Correct,5,822
5,UZUZU,151,1,787,Correct,5,906
5,AQATA,161,2,766,Correct,5,801
5,UNUPU,162,2,1337,Correct,5,747
5,RVRKR,182,2,1246,Correct,5,752
5,URURU,15,1,952,Correct,5,782
5,VLVLV,9,1,1106,Incorrect,5,673
5,DXDVD,14,2,623,Correct,5,854
5,PZPZP,151,2,853,Incorrect,5,679
5,LXUMU,231,2,1200,Correct,5,671
5,AKADA,173,2,1359,Incorrect,5,651
5,HYHYH,15,1,936,Correct,5,689
5,AVAVA,152,1,682,Correct,5,878
5,TUTUT,153,1,1067,Correct,5,719
5,XYXWX,161,2,1176,Correct,5,792
5,TKTDT,174,2,1394,Correct,5,834
5,NXNYN,16,1,1106,Incorrect,5,871
5,USUCU,162,2,891,Correct,5,892
5,ZMZMZ,151,1,1158,Correct,5,704
5,WRWAW,161,2,904,Correct,5,656
5,GWGXG,162,1,993,Incorrect,5,697
5,MUMYL,235,2,1078,Correct,5,697
5,CNCNC,113,1,1171,Correct,5,867
5,RLRLR,10,3,863,Correct,5,790
5,UAUWU,14,2,952,Correct,5,778
5,FXLRF,233,2,1015,Correct,5,920
5,PFPFP,113,1,877,Correct,5,702
5,HPHPH,152,1,741,Correct,5,722
5,GKGKG,195,1,1109,Correct,5,675
5,ZUZTZ,16,2,1425,Correct,5,844
5,AVASA,162,1,934,Incorrect,5,735
5,PRPRP,151,1,728,Correct,5,837
5,YPYPY,152,1,855,Correct,5,708
5,ZLZOZ,111,2,704,Incorrect,5,773
5,WMWSW,14,2,1346,Correct,5,660
5,RZRXR,162,2,1387,Correct,5,685
5,QWQWQ,151,2,1251,Incorrect,5,651
5,ZKZKZ,196,1,983,Correct,5,909
5,CVCVL,225,1,794,Incorrect,5,783
5,NMNMN,113,1,665,Correct,5,681
5,TRTGT,161,2,1013,Correct,5,881
5,CTCTC,151,1,1221,Correct,5,836
5,RKRLR,122,3,1405,Correct,5,895
6,B,5,3,1587,New Target,6,811
6,YMYGY,161,2,886,Correct,6,669
6,HUHRH,162,2,664,Correct,6,898
6,WHWHW,151,1,646,Correct,6,832
6,MGMRM,161,2,755,Correct,6,889
6,ZVZWZ,162,2,654,Correct,6,822
6,RCRTR,163,2,627,Correct,6,666
6,DSDRD,164,2,784,Correct,6,887
6,VTBDV,233,2,1149,Correct,6,759
6,DSDHD,222,2,630,Correct,6,834
6,QEQEQ,151,1,902,Correct,6,854
6,XOXQX,161,2,752,Correct,6,724
6,RARBR,72,3,1350,Correct,6,940
6,GMGMG,13,1,652,Correct,6,760
6,ELERE,171,2,733,Correct,6,717
6,HZHUH,16,2,630,Correct,6,861
6,RHRVR,162,2,697,Correct,6,719
6,YBYBY,8,3,772,Correct,6,855
6,PYPVP,14,2,689,Correct,6,703
6,TLTLT,192,1,771,Correct,6,718
6,QTQTQ,15,1,890,Correct,6,909
6,NXNVN,161,2,595,Correct,6,669
6,QNQNQ,151,1,608,Correct,6,934
6,FUFHF,161,2,511,Correct,6,828
6,YVYFB,235,2,977,Incorrect,6,874
6,WQWSW,222,2,756,Correct,6,833
6,HNHLH,193,2,1154,Incorrect,6,758
6,OSOTO,16,2,752,Correct,6,799
6,GWGOG,162,2,591,Correct,6,668
6,UBUBU,9,3,987,Correct,6,934
6,CWCWC,13,1,1307,Correct,6,869
6,OCOEO,161,2,871,Correct,6,668
6,MNMNM,151,1,792,Correct,6,900
6,XLXLX,194,1,1176,Correct,6,683
6,AYAYA,15,1,870,Correct,6,774
6,FUFAF,161,2,604,Correct,6,827
6,ANAQA,162,2,864,Correct,6,719
6,BUPWP,231,2,713,Correct,6,706
6,WSWSW,113,1,613,Correct,6,868
6,FRFRF,152,2,1047,Incorrect,6,748
6,AUAUA,153,2,905,Incorrect,6,719
6,GMGCG,161,2,1043,Correct,6,704
6,HLHWH,175,2,1287,Correct,6,707
6,PQBQP,223,1,779,Correct,6,915
6,AZABA,102,3,856,Correct,6,775
6,CWCVC,14,2,587,Correct,6,864
6,FAFAF,151,1,686,Correct,6,830
6,VMVSV,161,2,748,Correct,6,752
6,GBGBG,11,3,836,Correct,6,897
6,FOFNF,14,2,698,Correct,6,811
6,DSDSD,151,1,795,Correct,6,730
6,YDYDY,152,1,1077,Correct,6,856
6,FOFOF,153,1,500,Correct,6,728
6,CHCHB,225,1,603,Correct,6,717
6,ZCZCZ,113,1,593,Correct,6,659
6,DZDGD,161,2,845,Correct,6,947
6,MLMEM,176,2,699,Correct,6,654
6,PXPXP,15,1,739,Correct,6,885
6,QYQYQ,152,1,653,Correct,6,798
6,GRGCG,161,2,889,Correct,6,830
6,QVQVQ,151,1,704,Correct,6,787
6,XYXNX,161,2,705,Correct,6,732
6,BHMHM,221,1,721,Correct,6,686
6,CBCBC,12,3,937,Correct,6,882
7,W,5,3,1735,New Target,7,850
7,QKQKQ,151,1,974,Correct,7,817
7,DUDQD,161,2,644,Correct,7,736
7,OKOKO,151,1,642,Correct,7,832
7,EOEOE,152,1,711,Correct,7,713
7,URUPU,161,2,1414,Correct,7,758
7,GMGAG,162,2,725,Correct,7,917
7,HVWDH,233,2,1019,Correct,7,946
7,MHMHM,113,1,939,Correct,7,792
7,YXYVY,161,2,880,Correct,7,735
7,FNFNF,151,1,969,Correct,7,722
7,AWAWA,7,2,597,Incorrect,7,946
7,ZAZAZ,13,1,639,Correct,7,946
7,OYOYO,152,1,672,Correct,7,791
7,SQSQS,153,1,636,Correct,7,836
7,OSOSO,154,1,589,Correct,7,823
7,FCFBF,181,2,752,Correct,7,781
7,EUEUE,15,2,1303,Incorrect,7,940
7,CYCGC,161,2,1136,Correct,7,685
7,SZSUS,162,2,856,Correct,7,912
7,OFOFO,151,1,702,Correct,7,838
7,RVRUR,161,2,687,Correct,7,741
7,ZBZBZ,192,1,1096,Correct,7,872
7,UCUTU,16,2,678,Correct,7,810
7,NWNWN,8,3,993,Correct,7,934
7,XNXUX,14,2,721,Correct,7,871
7,CXCNC,162,2,864,Correct,7,728
7,AUAUW,225,1,978,Correct,7,900
7,HEHEH,113,2,705,Incorrect,7,910
7,UFWFU,223,1,816,Correct,7,790
7,HVHEH,222,2,636,Correct,7,664
7,YBYBY,193,1,665,Correct,7,897
7,OYOYO,15,1,540,Correct,7,672
7,TMTWT,91,2,1055,Incorrect,7,788
7,HTHTH,13,1,1028,Correct,7,684
7,UHUHU,152,1,1113,Correct,7,682
7,EVEBE,184,3,886,Incorrect,7,846
7,HZHMH,16,2,1152,Correct,7,690
7,VHVCV,162,2,1533,Correct,7,727
7,WAGDG,231,2,1286,Correct,7,881
7,PFPFP,113,1,737,Correct,7,698
7,OQOQO,152,1,687,Correct,7,746
7,TWTWT,10,3,698,Correct,7,895
7,VKVDV,14,2,700,Correct,7,658
7,WPAPA,221,1,1049,Correct,7,800
7,HBHBH,195,1,703,Correct,7,653
7,ZMZAZ,16,2,1080,Correct,7,943
7,SYSYS,151,1,922,Correct,7,733
7,FZFXF,161,2,731,Correct,7,941
7,SMSMS,151,1,873,Correct,7,737
7,XOXOX,152,1,810,Correct,7,922
7,FWFWF,11,3,1011,Correct,7,839
7,ENEBE,186,2,823,Correct,7,698
7,ZVZGZ,16,2,939,Correct,7,871
7,EZEZE,151,1,1292,Correct,7,887
7,TOTEW,235,2,1046,Correct,7,691
7,PDPDP,113,1,986,Correct,7,711
7,TKTWT,122,,,Incorrect,7,863
8,M,5,3,1004,New Target,8,932
8,VYVNV,161,2,1041,Correct,8,815
8,KLKTK,162,2,786,Correct,8,736
8,NQNQN,151,1,843,Correct,8,766
8,VHVEV,161,2,741,Correct,8,786
8,XNXNM,225,1,975,Correct,8,833
8,USUVU,222,2,1092,Correct,8,755
8,KRKZK,162,2,760,Correct,8,678
8,TMTET,71,3,776,Correct,8,699
8,GFGFG,13,1,707,Correct,8,810
8,OPODO,161,2,900,Correct,8,688
8,KCKCK,151,1,766,Correct,8,687
8,VTVTV,152,1,741,Correct,8,844
8,LSLSL,153,1,667,Correct,8,947
8,DLDLD,154,1,856,Correct,8,859
8,NYNYN,155,1,716,Correct,8,893
8,DCMAD,233,2,1002,Correct,8,783
8,TDTDT,113,1,745,Correct,8,877
8,GVGRG,161,2,711,Correct,8,786
8,ZUZUZ,151,1,892,Correct,8,923
8,OGOVO,161,2,888,Correct,8,686
8,PWPTP,171,2,899,Correct,8,694
8,KLKDM,235,2,1283,Correct,8,950
8,SMSMS,8,3,827,Correct,8,733
8,PRPSP,14,2,1031,Correct,8,749
8,DVDYD,162,2,1576,Correct,8,809
8,PXPMP,92,3,753,Correct,8,856
8,GDGLG,14,,,Incorrect,8,708
8,SWSWS,192,2,1011,Incorrect,8,950
8,GDGLG,16,2,1356,Correct,8,674
8,MTCYC,231,2,1484,Correct,8,899
8,GSGSG,113,1,1529,Correct,8,830
8,YQYTY,161,2,790,Correct,8,787
8,ZLZPZ,162,2,899,Correct,8,711
8,HZHZH,151,1,715,Correct,8,721
8,MSOSO,221,1,675,Correct,8,947
8,HWHWH,193,1,1488,Correct,8,872
8,PYPAP,16,2,814,Correct,8,869
8,SPSVS,162,2,792,Correct,8,813
8,XLXLX,151,1,752,Correct,8,800
8,YMYMY,10,3,775,Correct,8,887
8,HYHYH,13,1,993,Correct,8,750
8,OWOGO,174,2,922,Correct,8,652
8,PHPOP,16,2,970,Correct,8,874
8,NPNSN,162,2,1026,Correct,8,653
8,HVMVH,223,3,919,Incorrect,8,667
8,THTFT,222,2,1257,Correct,8,870
8,STSTS,151,1,672,Correct,8,827
8,AGAMA,112,2,1073,Incorrect,8,731
8,PEPEP,13,1,843,Correct,8,888
8,ZWZWZ,195,2,1057,Incorrect,8,848
8,ODOZO,16,2,1118,Correct,8,840
8,LRLOL,162,2,1239,Correct,8,886
8,GZGZG,151,1,658,Correct,8,743
8,TGTGT,152,1,1206,Correct,8,703
8,CUCSC,161,2,1143,Correct,8,669
8,SCSCS,151,1,704,Correct,8,871
8,AWAWA,196,1,1208,Correct,8,917
8,NLNLN,15,1,639,Correct,8,865
8,VNVNV,152,1,1010,Correct,8,738
8,GMGMG,12,3,1369,Correct,8,657
9,S,5,3,1040,New Target,9,901
9,NBNBN,151,1,1165,Correct,9,903
9,KVKZK,161,2,874,Correct,9,746
9,LBLBL,151,1,781,Correct,9,877
9,XLXLX,152,1,856,Correct,9,772
9,ZXZXZ,153,1,909,Correct,9,870
9,KNKZK,161,2,838,Correct,9,705
9,TQTAT,162,2,946,Correct,9,746
9,CLCUC,163,2,758,Correct,9,748
9,ZCZFZ,164,2,785,Correct,9,748
9,NSNSN,7,1,652,Incorrect,9,811
9,HGHGH,13,1,1392,Correct,9,702
9,THTDT,161,2,738,Correct,9,890
9,VMVMV,191,1,1196,Correct,9,834
9,CVCDC,16,2,748,Correct,9,699
9,ZAZRZ,162,2,1324,Correct,9,701
9,XTXZX,163,2,895,Correct,9,839
9,OXOXO,151,1,1369,Correct,9,672
9,DCDSD,82,2,1432,Incorrect,9,926
9,PQPDP,14,2,887,Correct,9,889
9,ZMZMZ,192,1,1123,Incorrect,9,670
9,BEBEB,15,1,935,Correct,9,654
9,FCFCF,152,1,780,Correct,9,771
9,YAYBY,161,2,1538,Correct,9,931
9,KNKVK,162,2,1444,Correct,9,650
9,SEPCP,231,2,1058,Correct,9,882
9,OPOPO,113,1,644,Correct,9,812
9,XMXMX,193,1,883,Correct,9,854
9,KEKEK,15,1,1354,Correct,9,784
9,USUSU,9,3,1022,Correct,9,790
9,YHSHY,223,1,1017,Correct,9,943
9,UPUPU,113,1,875,Correct,9,754
9,XZXZX,152,1,703,Correct,9,909
9,KGKXK,161,2,713,Correct,9,902
9,QEQPQ,162,2,1140,Correct,9,871
9,NUNUS,225,1,1035,Correct,9,915
9,BXBXB,113,1,841,Correct,9,824
9,SQHQH,221,2,695,Incorrect,9,690
9,ACACA,113,1,1425,Correct,9,861
9,KMKBK,174,2,1046,Correct,9,726
9,EGSVE,233,2,1063,Correct,9,765
9,HYHYH,113,1,1027,Correct,9,836
9,LULUL,152,1,920,Correct,9,686
9,AEAEA,153,1,1129,Correct,9,881
9,TXTST,102,2,1201,Incorrect,9,926
9,FDFCF,14,2,745,Correct,9,936
9,KVKVK,151,1,1358,Correct,9,928
9,UBUCU,161,2,862,Correct,9,906
9,GAGMG,185,2,1046,Correct,9,765
9,UXUGU,16,2,808,Correct,9,725
9,HOHOH,151,1,734,Correct,9,943
9,QUQTS,235,2,646,Correct,9,838
9,YZYZY,113,1,706,Correct,9,943
9,BSBSB,11,3,786,Correct,9,715
9,FEFEF,13,1,749,Correct,9,816
9,GMGMG,196,1,662,Correct,9,863
9,TGTXT,16,2,905,Correct,9,694
9,LSLFL,121,3,766,Correct,9,747
10,Q,5,3,1541,New Target,10,903
10,ZHZOZ,161,2,1443,Correct,10,682
10,RZRZR,151,1,754,Correct,10,827
10,BFBFB,152,1,641,Correct,10,739
10,GBGBG,153,1,769,Correct,10,751
10,OGOXO,161,2,938,Correct,10,795
10,UEQOU,233,2,1259,Correct,10,933
10,BOBRB,222,2,787,Correct,10,817
10,DYDVD,162,2,883,Correct,10,680
10,COCOC,151,1,984,Correct,10,825
10,YZYQY,72,3,1062,Correct,10,911
10,FHFWF,14,2,842,Correct,10,699
10,ANANQ,225,1,799,Correct,10,876
10,ZAZAZ,113,1,697,Correct,10,770
10,ERESE,181,2,976,Incorrect,10,930
10,XTXOX,16,2,741,Correct,10,741
10,NXNXN,151,1,688,Correct,10,827
10,OVOZO,161,2,551,Correct,10,935
10,WUWOW,162,2,822,Correct,10,928
10,FWFVF,163,2,843,Correct,10,926
10,NSNKN,172,2,1040,Incorrect,10,900
10,VWVNV,16,2,646,Correct,10,710
10,XZXZX,151,1,644,Correct,10,810
10,VQVQV,8,3,662,Correct,10,721
10,GYGPG,14,2,661,Correct,10,839
10,OBOSO,183,2,888,Correct,10,686
10,YUYUY,15,1,716,Correct,10,889
10,NDNQN,92,3,709,Correct,10,866
10,FCFHF,14,2,719,Correct,10,885
10,EFEFE,151,1,1129,Correct,10,859
10,NSNSN,194,1,666,Correct,10,660
10,YPYFY,16,2,972,Correct,10,750
10,ZKZKZ,151,1,1199,Correct,10,862
10,QZQDR,231,2,1021,Correct,10,719
10,AOAHA,222,2,1008,Correct,10,700
10,BGBGB,151,1,1028,Correct,10,814
10,HQHQH,10,3,1154,Correct,10,822
10,UHUBU,14,2,1265,Correct,10,683
10,KRKSK,185,2,1024,Correct,10,684
10,TOTOT,15,1,686,Correct,10,887
10,APAPA,152,1,730,Correct,10,865
10,VDVYV,161,2,701,Correct,10,659
10,FOFTF,162,2,695,Correct,10,884
10,QVXVX,221,,,Incorrect,10,880
10,GHGRG,222,2,665,Correct,10,887
10,LFLFL,151,1,821,Correct,10,845
10,HLHLH,152,1,708,Correct,10,667
10,KWQWK,223,1,800,Correct,10,879
10,YQYQY,11,3,924,Correct,10,684
10,ADADA,13,1,733,Correct,10,860
10,OGOAO,161,2,704,Correct,10,679
10,EOEFE,162,2,700,Correct,10,827
10,USUSU,196,1,647,Correct,10,854
10,VFVAQ,235,2,853,Correct,10,810
10,DZDXD,222,2,793,Correct,10,928
10,HVHDH,162,2,927,Correct,10,942
10,DWDWD,151,1,777,Correct,10,652
10,GBGBG,152,1,692,Correct,10,828
10,AOADA,161,2,843,Correct,10,924
10,GQGQG,12,3,901,Correct,10,731
11,T,5,3,1040,New Target,11,829
11,KEKEK,151,1,841,Correct,11,812
11,LBLBL,152,2,676,Incorrect,11,665
11,HEHVH,161,2,819,Correct,11,777
11,FRFOF,162,1,1024,Incorrect,11,745
11,EBEBE,151,1,771,Correct,11,696
11,HTHTH,7,3,735,Correct,11,747
11,MAMDM,14,2,1157,Correct,11,883
11,VOVOV,151,1,576,Correct,11,815
11,XQXQX,191,1,915,Correct,11,778
11,PBPAP,16,2,808,Correct,11,765
11,MXMLM,162,2,1059,Correct,11,770
11,TCNCN,221,1,770,Correct,11,842
11,OBONO,222,2,833,Correct,11,693
11,RCROR,162,2,844,Correct,11,757
11,PBPRT,235,2,1154,Correct,11,843
11,WFWVW,222,2,991,Correct,11,786
11,LTLUL,81,2,929,Incorrect,11,769
11,ZDZPZ,14,2,655,Correct,11,947
11,NCNQN,182,2,800,Correct,11,763
11,XZXNX,16,2,727,Correct,11,886
11,GOGOG,151,1,1017,Correct,11,688
11,DFDFD,152,1,1026,Correct,11,950
11,VWTRV,233,2,686,Correct,11,945
11,CFCVC,222,2,791,Correct,11,942
11,PAPAP,151,2,627,Incorrect,11,733
11,EQEYE,173,2,869,Correct,11,737
11,DNDED,16,2,781,Correct,11,717
11,PTPTP,9,3,1239,Correct,11,806
11,ZCZCZ,13,1,945,Correct,11,739
11,MZMZM,152,1,1111,Correct,11,743
11,ULUVU,161,2,1251,Correct,11,871
11,BRBGB,162,2,854,Correct,11,908
11,MLMLT,225,2,1123,Incorrect,11,701
11,GQGQG,194,2,1148,Incorrect,11,912
11,HGHGH,15,1,836,Correct,11,888
11,RVRBR,161,2,922,Correct,11,812
11,ZOZDZ,162,2,981,Correct,11,653
11,VYVYV,151,1,1122,Correct,11,940
11,RVRVR,152,1,863,Correct,11,816
11,OTOTO,10,3,1251,Correct,11,897
11,PXPXP,13,,,Incorrect,11,905
11,MCMCM,152,1,556,Correct,11,946
11,YUYUY,153,1,642,Correct,11,747
11,DYDYD,154,1,691,Correct,11,754
11,WDWDW,155,1,615,Correct,11,669
11,DYDQD,185,2,675,Correct,11,910
11,KDKNK,16,2,721,Correct,11,816
11,HOHOH,151,2,849,Incorrect,11,672
11,TWEZE,231,2,1145,Correct,11,798
11,NANHN,222,2,754,Correct,11,860
11,VQVWV,176,2,716,Correct,11,813
11,ZRZRZ,15,1,742,Correct,11,840
11,VTVGV,111,2,1009,Incorrect,11,851
11,HWHVH,14,2,871,Correct,11,720
11,EHEHE,151,1,954,Correct,11,875
11,VRVLV,161,2,928,Correct,11,722
11,ACACA,151,1,672,Correct,11,896
11,WBTBW,223,2,1110,Incorrect,11,678
11,UTUTU,12,3,873,Correct,11,664
12,O,5,3,1008,New Target,12,812
12,UXULU,161,2,1163,Correct,12,916
12,MUMDM,162,2,1032,Correct,12,755
12,VLVLV,151,2,676,Incorrect,12,928
12,BDBHB,161,2,1431,Correct,12,695
12,KEKEK,151,1,676,Correct,12,899
12,WKWKW,152,1,881,Correct,12,819
12,AWAWA,153,1,1082,Correct,12,750
12,EVEVE,154,1,700,Correct,12,799
12,PHPOP,72,2,857,Incorrect,12,809
12,WXWAW,14,2,704,Correct,12,782
12,PWPHP,162,2,857,Correct,12,878
12,ZTZTZ,191,1,607,Correct,12,829
12,HVHMH,16,2,656,Correct,12,797
12,DKDKD,151,1,590,Correct,12,793
12,NPNPN,152,1,737,Correct,12,743
12,ZRZNZ,161,2,642,Correct,12,667
12,OGCGC,221,1,1344,Correct,12,795
12,LFLFL,113,1,952,Correct,12,771
12,WXWXW,152,1,656,Correct,12,665
12,KPKPK,153,1,753,Correct,12,759
12,FRFKF,161,2,736,Correct,12,713
12,EOEOE,8,3,1196,Correct,12,756
12,GEGEG,13,1,615,Correct,12,829
12,LKLBO,235,2,608,Correct,12,947
12,MLMZM,222,2,751,Correct,12,887
12,ASACA,162,1,724,Incorrect,12,912
12,LOLOL,9,3,975,Correct,12,832
12,XLXLX,13,2,981,Incorrect,12,740
12,WHWHW,152,1,837,Correct,12,905
12,ETETE,192,1,879,Correct,12,709
12,OXGZG,231,2,743,Correct,12,765
12,CZCZC,113,1,804,Correct,12,749
12,LGLGL,152,1,747,Correct,12,873
12,VLVPV,161,2,711,Correct,12,757
12,UYUYO,225,1,691,Correct,12,867
12,SMSMS,113,1,599,Correct,12,652
12,RTRTR,193,1,631,Correct,12,803
12,KVKHK,16,2,612,Correct,12,893
12,ROROR,101,3,790,Correct,12,827
12,PRPRP,13,1,970,Correct,12,914
12,LALHL,161,2,633,Correct,12,903
12,PLPLP,151,1,613,Correct,12,916
12,CTCTC,194,1,626,Correct,12,875
12,XGXAX,16,2,653,Correct,12,928
12,NMNMN,151,1,750,Correct,12,751
12,HLHZH,161,2,587,Correct,12,759
12,YOYOY,11,3,958,Correct,12,742
12,PZOZP,223,1,702,Correct,12,896
12,EAEAE,113,1,687,Correct,12,671
12,GXGVG,161,2,584,Correct,12,888
12,HMHGH,162,2,686,Correct,12,658
12,GTGTG,195,1,663,Correct,12,918
12,LMLGL,16,2,603,Correct,12,722
12,ECEDE,162,2,713,Correct,12,843
12,PSPKP,163,1,632,Incorrect,12,723
12,MCOBM,233,2,1084,Correct,12,700
12,EMEME,113,1,1230,Correct,12,701
12,CTCRC,176,2,658,Correct,12,881
12,NSNSN,15,1,722,Correct,12,734
12,MWMVM,161,2,722,Correct,12,763
12,CPCOC,122,3,1041,Correct,12,714
13,H,5,3,803,New Target,13,899
13,VUVUV,151,1,993,Correct,13,714
13,YVYVY,152,1,872,Correct,13,727
13,XUXUX,153,2,644,Incorrect,13,667
13,NRNWN,161,2,559,Correct,13,935
13,MZMKM,162,2,882,Correct,13,847
13,HLVLV,221,1,890,Correct,13,737
13,DXDGD,222,2,711,Correct,13,680
13,LHLAL,71,2,789,Incorrect,13,742
13,YMYFY,14,2,1186,Correct,13,713
13,AOARA,171,1,919,Incorrect,13,942
13,ZKZAZ,16,2,688,Correct,13,678
13,RZRZR,151,1,655,Correct,13,761
13,NFNAN,161,2,1082,Correct,13,898
13,KUKEK,162,2,1260,Correct,13,686
13,XAXYX,163,2,825,Correct,13,658
13,LKLUL,164,2,1439,Correct,13,863
13,NLNLN,151,1,702,Correct,13,816
13,WDWOW,182,2,729,Correct,13,827
13,EWEWE,15,1,681,Correct,13,713
13,VHVHV,8,3,826,Correct,13,678
13,PVPVP,13,3,738,Incorrect,13,776
13,CRCSC,161,2,785,Correct,13,706
13,NWNWN,151,1,697,Correct,13,843
13,SQSQS,152,,,Incorrect,13,927
13,AEASA,161,2,792,Correct,13,943
13,GOGOG,193,1,864,Correct,13,837
13,QGQGQ,15,1,1206,Correct,13,806
13,FMFMF,152,1,666,Correct,13,919
13,PFPFP,153,1,647,Correct,13,874
13,SYSHS,92,3,933,Correct,13,852
13,QGQKQ,14,2,956,Correct,13,728
13,ELELH,225,1,762,Correct,13,928
13,MRMRM,113,1,776,Correct,13,724
13,GUGNG,161,2,846,Correct,13,889
13,ZOZOZ,194,1,517,Correct,13,784
13,EZEZE,15,1,655,Correct,13,682
13,FHFKF,101,3,843,Correct,13,856
13,GSHLG,233,2,716,Correct,13,933
13,FKFXF,222,2,1252,Correct,13,942
13,DEDYD,162,1,670,Incorrect,13,739
13,UXUVU,163,2,703,Correct,13,725
13,MCMOM,185,2,751,Correct,13,693
13,BXBUH,235,2,525,Correct,13,763
13,DMDMD,113,1,754,Correct,13,771
13,BXBDB,161,2,890,Correct,13,849
13,AVAVA,151,1,700,Correct,13,921
13,QUHUQ,223,2,998,Incorrect,13,875
13,BRBRB,113,1,716,Correct,13,725
13,ZHZHZ,11,2,798,Incorrect,13,653
13,VZVZV,13,1,805,Correct,13,883
13,HBUQU,231,2,781,Correct,13,826
13,EUEUE,113,1,696,Correct,13,801
13,RQRDR,161,2,708,Correct,13,837
13,COCOC,196,1,746,Correct,13,950
13,VNVSV,16,2,698,Correct,13,690
13,WHWHW,12,3,690,Correct,13,917
14,G,5,3,1082,New Target,14,809
14,EBEBE,151,1,732,Correct,14,712
14,QPQUQ,161,2,855,Correct,14,816
14,XDXDX,151,1,578,Correct,14,761
14,YXYXY,152,1,614,Correct,14,733
14,MBMBM,153,1,745,Correct,14,707
14,QMQKQ,161,2,608,Correct,14,902
14,EYETE,162,2,726,Correct,14,709
14,UKUKU,151,1,669,Correct,14,938
14,MPGPM,223,1,1033,Correct,14,901
14,ANANA,113,1,622,Correct,14,665
14,UAUAU,152,1,751,Correct,14,809
14,ADASA,161,2,684,Correct,14,756
14,LKLGL,72,3,806,Correct,14,879
14,UWUWU,13,1,721,Correct,14,754
14,MCMUM,161,2,1112,Correct,14,867
14,YMYMY,151,1,649,Correct,14,710
14,RHRWR,171,2,757,Correct,14,907
14,DUDCD,16,2,846,Correct,14,864
14,ASAGA,82,1,730,Incorrect,14,674
14,DLDLD,13,1,709,Correct,14,793
14,ZXZDZ,161,2,819,Correct,14,808
14,ULUFU,162,2,727,Correct,14,883
14,DPDPG,225,1,821,Correct,14,698
14,KHKTK,172,2,658,Correct,14,751
14,ZKZUZ,16,2,699,Correct,14,902
14,AKALA,162,2,1012,Correct,14,816
14,CNCNC,151,1,791,Correct,14,765
14,PGPGP,9,3,764,Correct,14,927
14,UPUPU,13,1,1204,Correct,14,877
14,FSGWF,233,2,620,Correct,14,852
14,CACVC,222,2,694,Correct,14,915
14,FTFTF,151,1,730,Correct,14,652
14,KFKCK,161,2,865,Correct,14,905
14,ZEZHZ,183,2,938,Correct,14,754
14,NSNSN,15,1,669,Correct,14,841
14,ENENE,152,1,614,Correct,14,927
14,LXLWG,235,2,594,Correct,14,869
14,SMSUS,222,2,630,Correct,14,713
14,ZHZHZ,194,1,655,Correct,14,941
14,PFPFP,15,1,653,Correct,14,793
14,BABAB,152,1,585,Correct,14,859
14,XPXUX,161,2,598,Correct,14,848
14,ACACA,151,1,756,Correct,14,925
14,RGRGR,10,1,907,Incorrect,14,949
14,URURU,13,1,821,Correct,14,717
14,PKPTP,161,2,637,Correct,14,778
14,SGSGS,11,3,971,Correct,14,840
14,GZYVY,231,2,847,Correct,14,776
14,UDUTU,222,2,644,Correct,14,843
14,VHVHV,195,1,794,Correct,14,679
14,LWLNL,16,2,618,Correct,14,667
14,GKPKP,221,2,767,Incorrect,14,693
14,SQSPS,222,2,944,Correct,14,669
14,WNWNW,151,1,904,Correct,14,687
14,MHMTM,176,2,1084,Incorrect,14,833
14,RZRZR,15,1,649,Correct,14,829
14,CGCDC,121,3,1355,Correct,14,759
15,A,5,3,964,New Target,15,785
15,WQWEW,161,2,993,Correct,15,822
15,RWRKR,162,2,834,Correct,15,863
15,YRYRY,151,1,841,Correct,15,783
15,XOXOX,152,1,996,Correct,15,750
15,QPQPQ,153,1,642,Correct,15,934
15,TDTDT,154,1,581,Correct,15,734
15,WXWBW,161,2,550,Correct,15,751
15,TATAT,7,1,584,Incorrect,15,860
15,MCMYM,14,2,540,Correct,15,775
15,SMSFS,162,2,637,Correct,15,929
15,ZLZMZ,163,2,717,Correct,15,788
15,VDVBV,164,2,750,Correct,15,670
15,XCXVX,165,1,756,Incorrect,15,944
15,LKLBA,235,2,735,Correct,15,764
15,NDNDN,113,1,729,Correct,15,874
15,YGYGY,191,1,1147,Correct,15,657
15,VLVLV,15,1,663,Correct,15,773
15,WQWQW,152,1,584,Correct,15,705
15,MAMOM,81,3,1164,Correct,15,803
15,YZABY,233,2,746,Correct,15,724
15,CFCFC,113,1,931,Correct,15,894
15,UTULU,161,2,711,Correct,15,815
15,KPKUK,162,2,739,Correct,15,817
15,TCTQT,163,2,812,Correct,15,841
15,FGFGF,192,1,1169,Correct,15,910
15,RCRYR,16,2,1037,Correct,15,825
15,KRKDK,162,2,734,Correct,15,763
15,CRCRC,151,1,1097,Correct,15,759
15,WOAOW,223,1,1394,Correct,15,924
15,LPLWL,222,2,817,Correct,15,938
15,DGDUD,173,2,1156,Correct,15,893
15,EMEZE,16,2,788,Correct,15,663
15,DADAD,9,1,1215,Incorrect,15,802
15,WDWDW,13,1,974,Correct,15,719
15,AWQWQ,221,1,635,Correct,15,933
15,TKTQT,222,2,1117,Correct,15,773
15,MTMFM,162,2,1181,Correct,15,714
15,KAKAK,10,1,1015,Incorrect,15,797
15,BDBRB,14,2,1483,Correct,15,780
15,QPQPQ,151,1,932,Correct,15,898
15,NDNDN,152,1,701,Correct,15,724
15,QYQGQ,184,2,752,Correct,15,653
15,VPVPV,15,1,1249,Correct,15,710
15,RDRDA,225,1,888,Correct,15,860
15,KWKOK,222,2,938,Correct,15,947
15,TPTPT,151,1,835,Correct,15,742
15,DCDCD,152,1,1390,Correct,15,679
15,OWOAO,112,2,1383,Incorrect,15,651
15,ZCZNZ,14,2,1435,Correct,15,737
15,MYMGM,185,2,827,Correct,15,834
15,ANLOL,231,2,736,Correct,15,829
15,DWDPD,222,2,666,Correct,15,946
15,YQYQY,151,1,1125,Correct,15,834
15,LGLGL,196,1,671,Correct,15,913
15,VYVLV,16,2,714,Correct,15,936
15,MVMVM,151,1,643,Correct,15,871
15,QMQMQ,152,1,623,Correct,15,925
15,SXSXS,153,1,753,Correct,15,724
15,WAWAW,12,3,615,Correct,15,922
