Trial No,Stimulus,Trigger,Response,Response Time(ms),Correct,Block,Fixation Duration
Practice
OT Practice
1,SKSKS,15,,,False,0,781
1,DLDUD,16,,,False,0,650
1,PDPGP,16,1,945,False,0,768
1,MWMWM,15,,,False,0,892
1,FTFTF,15,1,743,Correct,0,682
1,AXAMA,16,2,798,Correct,0,822
1,RYRGR,16,2,826,Correct,0,651
1,DODOD,15,1,577,Correct,0,734
1,QTQAQ,16,2,1030,Correct,0,653
1,YEYEY,15,1,721,Correct,0,821
2,GYGDG,16,2,937,Correct,0,765
2,SWSWS,15,1,682,Correct,0,794
2,HLHUH,16,2,816,Correct,0,868
2,DEDED,15,2,790,False,0,791
2,ZPZOZ,16,2,680,Correct,0,882
2,ATATA,15,1,656,Correct,0,893
2,QOQOQ,15,1,797,Correct,0,765
2,FPFGF,16,2,646,Correct,0,751
2,TRTET,16,2,688,Correct,0,868
2,DQDQD,15,1,839,Correct,0,828
4,PLPLP,15,1,761,Correct,0,728
4,ATAIA,16,2,719,Correct,0,847
4,SKSGS,16,2,660,Correct,0,870
4,ZYZYZ,15,1,753,Correct,0,751
4,QSQSQ,15,1,573,Correct,0,654
4,TZTDT,16,2,598,Correct,0,942
4,JYJGJ,16,1,609,False,0,909
4,DYDYD,15,1,655,Correct,0,758
4,LTLCL,16,2,613,Correct,0,925
4,FQFEF,16,2,562,Correct,0,807
AT Practice
1,TKTKT,15,1,1002,Correct,0,921
1,SLSUS,16,2,649,Correct,0,736
1,VZVGV,7,2,637,False,0,916
1,XWXZX,7,3,763,Correct,0,785
1,ATATA,15,1,692,Correct,0,719
1,HXZMH,16,2,733,Correct,0,806
1,TZTZT,7,3,840,Correct,0,721
1,UOUOU,15,1,716,Correct,0,772
1,ZTWAW,16,3,723,False,0,893
1,RZRER,7,2,960,False,0,685
2,JYJDJ,16,2,1389,Correct,0,800
2,DWDWD,15,1,1021,Correct,0,772
2,GNGNG,7,3,873,Correct,0,893
2,NEZEZ,16,1,861,Correct,0,725
2,RNROR,7,2,732,False,0,927
2,QTQNQ,7,3,801,Correct,0,904
2,HOHON,15,1,1018,Correct,0,667
2,KPKGK,16,2,755,Correct,0,895
2,DRDED,16,2,814,Correct,0,723
2,LNLNL,7,3,560,Correct,0,863
4,GLGLG,15,2,727,False,0,850
4,DTDID,16,2,853,Correct,0,676
4,SMSGS,16,2,732,Correct,0,674
4,ZFZYZ,7,3,683,Correct,0,674
4,TSTFT,7,3,800,Correct,0,918
4,OFOFO,7,3,859,Correct,0,681
4,WYFGW,16,2,787,Correct,0,714
4,WYWYW,15,1,942,Correct,0,715
4,MFMCM,7,2,645,False,0,653
4,HQHEH,16,2,802,Correct,0,740
Trials
1,D,5,3,5312,New Target,1,771
1,BNBYB,161,2,822,Correct,1,721
1,FBFBF,151,1,951,Correct,1,914
1,RKRKR,152,1,828,Correct,1,799
1,QSQNQ,161,2,709,Correct,1,842
1,CTCFC,162,2,1148,Correct,1,935
1,PDPDP,7,3,581,Correct,1,872
1,OPOFO,14,1,689,Incorrect,1,920
1,HLHNH,162,2,861,Correct,1,787
1,MFMFM,151,1,649,Correct,1,666
1,BTBTB,152,1,726,Correct,1,835
1,MCMPD,235,2,654,Correct,1,940
1,BMBFB,222,2,762,Correct,1,868
1,NTNZN,162,2,1219,Correct,1,925
1,MXMRM,163,2,602,Correct,1,877
1,APABA,164,2,631,Correct,1,937
1,FMDMF,223,1,697,Correct,1,719
1,QPQPQ,113,1,964,Correct,1,859
1,VQVMV,161,2,569,Correct,1,768
1,RERPR,162,2,584,Correct,1,938
1,KVKVK,151,2,681,Incorrect,1,763
1,AKAHA,161,2,777,Correct,1,701
1,VDVDV,8,1,519,Incorrect,1,745
1,DUGUG,221,1,697,Correct,1,852
1,AFAFA,113,1,854,Correct,1,794
1,GYGYG,152,1,849,Correct,1,720
1,VXVSV,161,2,717,Correct,1,726
1,DOWGW,231,2,855,Correct,1,872
1,QYQYQ,113,1,673,Correct,1,812
1,ODONO,91,3,834,Correct,1,667
1,MSMSM,13,1,854,Correct,1,887
1,GYGYG,152,1,652,Correct,1,835
1,UMUMU,153,1,616,Correct,1,869
1,BZBZB,154,1,584,Correct,1,820
1,NTNBN,161,2,669,Correct,1,733
1,GNDYG,233,2,779,Correct,1,869
1,OCOSO,222,2,880,Correct,1,937
1,BHBFB,162,2,599,Correct,1,831
1,QCQBQ,163,2,550,Correct,1,877
1,LQLQL,151,1,780,Correct,1,693
1,ZDZDZ,10,3,646,Correct,1,798
1,QNQZQ,14,2,895,Correct,1,948
1,CSCYC,162,2,568,Correct,1,682
1,RCRLR,163,2,699,Correct,1,833
1,FRFRF,151,1,627,Correct,1,930
1,WFWFW,152,2,877,Incorrect,1,912
1,QOQLQ,161,2,968,Correct,1,745
1,AWAQA,162,2,651,Correct,1,810
1,EAEAE,151,1,762,Correct,1,749
1,AGAUA,161,2,664,Correct,1,716
1,YMYMY,151,1,628,Correct,1,889
1,XQXQX,152,1,853,Correct,1,794
1,SHSGS,161,2,700,Correct,1,812
1,PDPDP,11,3,678,Correct,1,882
1,ZGZGZ,13,1,696,Correct,1,663
1,OXOXO,152,1,723,Correct,1,856
1,LYLYL,153,1,788,Correct,1,665
1,NKNKD,225,1,692,Correct,1,677
1,GNGNG,113,1,741,Correct,1,720
1,OYOBO,161,2,881,Correct,1,804
1,SOSOS,151,1,681,Correct,1,712
1,VHVHV,152,1,849,Correct,1,933
1,OKOXO,161,2,888,Correct,1,771
1,EZEZE,151,1,655,Correct,1,767
1,LDLDL,12,1,703,Incorrect,1,747
2,U,5,3,6266,New Target,2,687
2,BVBEB,161,2,1046,Correct,2,659
2,FBFBF,151,1,769,Correct,2,930
2,RFRFR,152,2,753,Incorrect,2,664
2,NBNKN,161,2,721,Correct,2,709
2,MKMNM,162,2,840,Correct,2,933
2,QXQXQ,151,1,656,Correct,2,799
2,MQMYM,161,2,634,Correct,2,881
2,TGTPT,162,2,617,Correct,2,787
2,XOXOX,151,1,726,Correct,2,858
2,CUCUC,7,1,674,Incorrect,2,774
2,RFRFR,13,1,884,Correct,2,736
2,VYVSV,161,2,776,Correct,2,883
2,VDVDV,191,3,656,Incorrect,2,905
2,GKGQG,15,2,620,Correct,2,942
2,SCSCS,151,1,666,Correct,2,847
2,CTCUC,82,3,659,Correct,2,949
2,RCRCR,13,1,674,Correct,2,783
2,BOBXB,161,2,577,Correct,2,787
2,FMFAF,162,2,631,Correct,2,726
2,BEBAB,163,1,645,Incorrect,2,822
2,PWPWP,151,1,697,Correct,2,709
2,UQCKC,231,2,586,Correct,2,700
2,OCOCO,113,1,711,Correct,2,875
2,TNTNT,152,1,800,Correct,2,927
2,QCQGQ,161,2,763,Correct,2,780
2,WVWVW,151,3,1044,Incorrect,2,785
2,TQTQT,152,1,640,Correct,2,917
2,FOFOF,225,1,546,Correct,2,750
2,WVWFW,222,2,707,Correct,2,883
2,SWSWS,151,1,690,Correct,2,725
2,FYFCF,161,2,586,Correct,2,940
2,SUSWS,91,3,806,Correct,2,941
2,CACHC,14,1,818,Incorrect,2,681
2,VDVKV,172,2,796,Correct,2,752
2,YCYCY,15,1,661,Correct,2,849
2,NMNTN,161,2,689,Correct,2,891
2,XOUKX,233,2,1437,Correct,2,857
2,BPBPB,113,1,741,Correct,2,657
2,MRMRM,152,1,879,Correct,2,882
2,XMXMX,153,1,840,Correct,2,746
2,AUAHA,101,3,861,Correct,2,899
2,XKXEU,235,2,769,Correct,2,851
2,TFTFT,113,1,663,Correct,2,930
2,MDMDM,193,1,1174,Correct,2,783
2,WYWMW,16,2,653,Correct,2,911
2,AZUZA,223,1,1167,Correct,2,722
2,KEKHK,222,2,681,Correct,2,791
2,LALAL,151,1,685,Correct,2,683
2,CWCDC,184,2,681,Incorrect,2,788
2,SGSTS,16,2,690,Correct,2,922
2,PXPXP,151,1,886,Correct,2,660
2,GRGYG,161,2,754,Correct,2,711
2,PUPOP,111,1,744,Incorrect,2,888
2,RNRNR,14,1,1022,Correct,2,948
2,KDKDK,195,3,616,Incorrect,2,935
2,KTKTK,15,1,694,Correct,2,892
2,OROKO,161,2,874,Correct,2,679
2,UNANA,221,1,835,Correct,2,704
2,TATAT,113,1,779,Correct,2,837
2,AWAWA,152,1,601,Incorrect,2,748
2,RDRDR,196,1,749,Correct,2,748
2,FCFCF,15,1,490,Correct,2,753
2,ZMZMZ,152,1,668,Correct,2,908
2,BUBUB,12,3,592,Correct,2,693
3,E,5,3,2899,New Target,3,886
3,YZYZY,151,1,787,Correct,3,897
3,VFVNV,161,2,559,Correct,3,699
3,KAKAK,151,1,576,Correct,3,873
3,TKTKT,152,1,757,Correct,3,720
3,WHWTW,161,2,626,Correct,3,785
3,QEQFQ,71,3,738,Correct,3,858
3,XNXNX,13,1,604,Correct,3,772
3,TXTXT,152,1,769,Correct,3,684
3,GLGNG,161,2,644,Correct,3,950
3,CUCTC,171,1,1187,Incorrect,3,876
3,FAFQF,16,2,674,Correct,3,665
3,ZLZLZ,151,1,692,Correct,3,650
3,YZYZY,152,1,684,Correct,3,917
3,CYCYC,153,1,684,Correct,3,705
3,HUHUH,192,2,731,Incorrect,3,802
3,OSORO,16,2,1075,Correct,3,865
3,YOYOY,151,1,658,Correct,3,852
3,CECEC,8,1,636,Incorrect,3,941
3,VNENV,223,1,649,Correct,3,883
3,KQKFK,222,2,852,Correct,3,883
3,XLXLE,225,1,871,Correct,3,927
3,QFQUQ,183,2,1019,Correct,3,844
3,SWSLS,16,2,796,Correct,3,807
3,NBNPN,162,2,856,Correct,3,796
3,SGSGS,151,1,666,Correct,3,941
3,FBFBF,152,1,648,Correct,3,843
3,PFPFP,153,1,853,Correct,3,824
3,AGASA,161,2,673,Correct,3,675
3,KEKEK,9,1,688,Incorrect,3,809
3,CWCOC,14,2,638,Correct,3,823
3,HXHXH,151,2,995,Incorrect,3,708
3,NUNZN,174,2,740,Correct,3,864
3,QMQVQ,16,2,810,Correct,3,919
3,SQSQS,151,1,676,Correct,3,789
3,ERNFN,231,2,797,Incorrect,3,900
3,AQANA,222,2,659,Correct,3,894
3,OBOEO,102,3,818,Correct,3,820
3,SYSXS,14,2,570,Correct,3,832
3,QBQHQ,162,2,714,Correct,3,812
3,XQXQX,151,1,745,Correct,3,690
3,KUKFK,175,2,1040,Correct,3,940
3,RKRKR,15,1,660,Correct,3,705
3,GFGFG,152,1,741,Correct,3,762
3,YBYVY,161,2,580,Correct,3,660
3,SPSTS,162,2,661,Correct,3,871
3,AQAQA,151,1,628,Correct,3,739
3,EPVPV,221,3,853,Incorrect,3,757
3,CQCEC,112,3,752,Correct,3,728
3,RFRCR,14,2,684,Correct,3,781
3,CPCVC,162,1,662,Incorrect,3,889
3,RXRCR,163,2,769,Correct,3,899
3,TNTLT,164,2,718,Correct,3,729
3,BSBSB,151,1,632,Correct,3,866
3,ZBZBZ,152,1,586,Correct,3,773
3,OYOUO,186,2,924,Correct,3,749
3,AKAOA,16,2,595,Correct,3,727
3,YQEWY,233,2,625,Correct,3,879
3,ZMZMZ,113,1,659,Correct,3,812
3,SWSTS,161,2,563,Correct,3,856
3,MFMQE,235,2,501,Correct,3,765
3,RSRLR,222,2,665,Correct,3,829
3,QEQWQ,121,3,740,Correct,3,927
4,K,5,3,2473,New Target,4,671
4,CACHC,161,2,972,Correct,4,841
4,RWRCR,162,2,572,Correct,4,855
4,FOFVF,163,2,621,Correct,4,837
4,LGLGL,151,1,616,Correct,4,940
4,PLPLP,152,1,756,Correct,4,890
4,NPNPN,153,1,624,Correct,4,782
4,SGSZS,161,2,740,Correct,4,725
4,DNDMD,162,2,800,Correct,4,812
4,OCOAK,235,2,632,Correct,4,791
4,VYVYV,113,1,731,Correct,4,683
4,RLRLR,152,1,764,Correct,4,704
4,DKDKD,7,1,594,Incorrect,4,866
4,ZLZLZ,13,2,774,Incorrect,4,706
4,FZFZF,152,1,641,Correct,4,787
4,CFCFC,153,1,515,Correct,4,782
4,OZOZO,154,1,458,Correct,4,761
4,XEXEX,191,1,639,Correct,4,846
4,NVNFN,16,2,704,Correct,4,748
4,AYAYA,151,1,762,Correct,4,826
4,BNBVB,161,2,728,Correct,4,779
4,AHKXA,233,2,713,Correct,4,665
4,WFWFW,113,1,1059,Correct,4,861
4,SNSNS,152,1,681,Correct,4,668
4,FKFMF,81,3,756,Correct,4,927
4,DZDYD,14,2,844,Correct,4,832
4,GXGDG,162,2,536,Correct,4,736
4,AYAYK,225,1,963,Correct,4,925
4,FPFGF,222,2,761,Correct,4,751
4,WRWRW,151,1,697,Correct,4,740
4,YPYEY,182,2,631,Correct,4,756
4,SQSQS,15,1,556,Correct,4,705
4,WZWPW,161,2,621,Correct,4,828
4,CKCKC,9,1,729,Incorrect,4,854
4,BWBVB,14,2,644,Correct,4,842
4,HMHMH,151,1,676,Correct,4,814
4,VEVNV,173,2,645,Correct,4,734
4,GMGVG,16,2,601,Correct,4,721
4,XHXKX,102,2,603,Incorrect,4,753
4,QXQRQ,14,2,597,Correct,4,914
4,LQLQL,151,1,562,Correct,4,881
4,ALELA,223,1,808,Correct,4,715
4,TPTKT,222,3,686,Incorrect,4,878
4,GEGEG,194,1,887,Correct,4,932
4,ZNZNZ,15,1,669,Correct,4,770
4,YZYZY,152,1,843,Correct,4,827
4,SYSYS,153,1,598,Correct,4,758
4,ZSZSZ,221,1,522,Correct,4,729
4,LALGL,222,2,759,Correct,4,940
4,CYCTC,162,2,736,Correct,4,906
4,WEWEW,195,1,620,Correct,4,787
4,CHCSC,16,2,655,Correct,4,717
4,GWGXG,162,2,586,Correct,4,898
4,FGFGF,151,1,672,Correct,4,752
4,QWQKQ,112,3,751,Correct,4,772
4,OQOFO,14,2,794,Correct,4,836
4,PMPEP,186,2,658,Correct,4,879
4,WBWPW,16,2,615,Correct,4,660
4,KCDHD,231,2,650,Correct,4,702
4,RSRWR,222,2,617,Correct,4,753
4,HGHGH,151,1,699,Correct,4,795
4,SKSKS,12,3,661,Correct,4,870
5,L,5,3,3815,New Target,5,875
5,PDPDP,151,1,877,Correct,5,755
5,WAWAW,152,1,641,Correct,5,816
5,HWHWH,153,1,624,Correct,5,837
5,SHSHS,154,1,561,Correct,5,764
5,BRBWB,161,2,706,Correct,5,856
5,FPFBF,162,2,652,Correct,5,900
5,GAGAG,151,1,673,Correct,5,674
5,QVQGQ,161,2,721,Correct,5,754
5,CLCLC,7,1,699,Incorrect,5,897
5,XWXWX,13,1,962,Correct,5,925
5,AUAUA,152,1,1009,Correct,5,949
5,CKCKC,191,1,560,Correct,5,929
5,FNFCF,16,2,743,Correct,5,717
5,UHUQU,162,2,671,Correct,5,883
5,FZFZF,151,1,722,Correct,5,678
5,THLHT,223,1,781,Correct,5,860
5,CUCLC,82,2,616,Incorrect,5,756
5,BSBSB,13,1,668,Correct,5,668
5,FDFBF,161,2,634,Correct,5,837
5,LXRXR,221,1,844,Correct,5,703
5,ZOZNZ,222,2,598,Correct,5,755
5,UZUZU,151,1,638,Correct,5,650
5,AQATA,161,2,554,Correct,5,849
5,UNUPU,162,2,586,Correct,5,887
5,RVRKR,182,2,791,Correct,5,876
5,URURU,15,1,661,Correct,5,651
5,VLVLV,9,3,609,Correct,5,849
5,DXDVD,14,2,658,Correct,5,839
5,PZPZP,151,1,658,Correct,5,790
5,LXUMU,231,2,525,Correct,5,889
5,AKADA,173,2,791,Incorrect,5,712
5,HYHYH,15,2,610,Incorrect,5,791
5,AVAVA,152,1,575,Correct,5,878
5,TUTUT,153,1,526,Correct,5,890
5,XYXWX,161,2,636,Correct,5,904
5,TKTDT,174,2,579,Correct,5,658
5,NXNYN,16,2,649,Correct,5,702
5,USUCU,162,2,712,Correct,5,791
5,ZMZMZ,151,1,597,Correct,5,776
5,WRWAW,161,2,851,Correct,5,895
5,GWGXG,162,2,572,Correct,5,748
5,MUMYL,235,2,770,Correct,5,736
5,CNCNC,113,1,664,Correct,5,943
5,RLRLR,10,1,587,Incorrect,5,702
5,UAUWU,14,2,539,Correct,5,833
5,FXLRF,233,2,593,Correct,5,754
5,PFPFP,113,1,711,Correct,5,655
5,HPHPH,152,1,550,Correct,5,683
5,GKGKG,195,1,544,Correct,5,653
5,ZUZTZ,16,2,600,Correct,5,730
5,AVASA,162,2,627,Correct,5,950
5,PRPRP,151,1,564,Correct,5,839
5,YPYPY,152,1,554,Correct,5,763
5,ZLZOZ,111,3,623,Correct,5,744
5,WMWSW,14,2,790,Correct,5,659
5,RZRXR,162,2,702,Correct,5,839
5,QWQWQ,151,1,559,Correct,5,691
5,ZKZKZ,196,1,643,Correct,5,815
5,CVCVL,225,2,527,Correct,5,832
5,NMNMN,113,1,865,Correct,5,868
5,TRTGT,161,2,683,Correct,5,756
5,CTCTC,151,1,541,Correct,5,690
5,RKRLR,122,2,623,Incorrect,5,803
6,B,5,3,1581,New Target,6,659
6,YMYGY,161,2,1056,Correct,6,912
6,HUHRH,162,2,721,Correct,6,792
6,WHWHW,151,1,704,Correct,6,795
6,MGMRM,161,2,733,Correct,6,814
6,ZVZWZ,162,2,791,Correct,6,880
6,RCRTR,163,2,551,Correct,6,681
6,DSDRD,164,2,519,Correct,6,852
6,VTBDV,233,2,649,Correct,6,819
6,DSDHD,222,2,532,Correct,6,900
6,QEQEQ,151,1,648,Correct,6,800
6,XOXQX,161,2,1004,Correct,6,690
6,RARBR,72,2,788,Incorrect,6,658
6,GMGMG,13,1,688,Correct,6,669
6,ELERE,171,2,623,Correct,6,827
6,HZHUH,16,2,1014,Correct,6,672
6,RHRVR,162,2,613,Correct,6,813
6,YBYBY,8,3,497,Correct,6,874
6,PYPVP,14,2,692,Correct,6,813
6,TLTLT,192,2,658,Incorrect,6,852
6,QTQTQ,15,1,651,Correct,6,942
6,NXNVN,161,2,637,Correct,6,705
6,QNQNQ,151,1,728,Correct,6,893
6,FUFHF,161,2,686,Correct,6,928
6,YVYFB,235,2,570,Incorrect,6,852
6,WQWSW,222,2,557,Correct,6,810
6,HNHLH,193,2,736,Incorrect,6,740
6,OSOTO,16,2,610,Correct,6,657
6,GWGOG,162,2,626,Correct,6,808
6,UBUBU,9,3,636,Correct,6,907
6,CWCWC,13,2,443,Incorrect,6,870
6,OCOEO,161,2,612,Correct,6,757
6,MNMNM,151,1,714,Correct,6,658
6,XLXLX,194,1,736,Correct,6,935
6,AYAYA,15,1,600,Correct,6,938
6,FUFAF,161,2,663,Correct,6,888
6,ANAQA,162,2,590,Correct,6,948
6,BUPWP,231,2,605,Correct,6,890
6,WSWSW,113,1,705,Correct,6,693
6,FRFRF,152,1,668,Correct,6,907
6,AUAUA,153,1,892,Correct,6,702
6,GMGCG,161,2,912,Correct,6,908
6,HLHWH,175,2,640,Correct,6,904
6,PQBQP,223,1,673,Correct,6,765
6,AZABA,102,3,784,Correct,6,777
6,CWCVC,14,2,989,Correct,6,688
6,FAFAF,151,1,829,Correct,6,889
6,VMVSV,161,2,610,Correct,6,924
6,GBGBG,11,3,673,Correct,6,830
6,FOFNF,14,2,677,Correct,6,665
6,DSDSD,151,1,682,Correct,6,687
6,YDYDY,152,1,1014,Correct,6,865
6,FOFOF,153,1,659,Correct,6,944
6,CHCHB,225,1,869,Correct,6,670
6,ZCZCZ,113,1,698,Correct,6,876
6,DZDGD,161,2,861,Correct,6,692
6,MLMEM,176,2,768,Correct,6,928
6,PXPXP,15,1,918,Correct,6,910
6,QYQYQ,152,1,881,Correct,6,665
6,GRGCG,161,2,757,Correct,6,821
6,QVQVQ,151,1,849,Correct,6,752
6,XYXNX,161,2,725,Correct,6,897
6,BHMHM,221,1,1116,Correct,6,886
6,CBCBC,12,3,759,Correct,6,895
7,W,5,3,3160,New Target,7,836
7,QKQKQ,151,1,782,Correct,7,717
7,DUDQD,161,2,898,Correct,7,939
7,OKOKO,151,1,687,Correct,7,658
7,EOEOE,152,1,780,Correct,7,797
7,URUPU,161,2,916,Correct,7,862
7,GMGAG,162,2,702,Correct,7,685
7,HVWDH,233,2,734,Correct,7,659
7,MHMHM,113,1,896,Correct,7,659
7,YXYVY,161,2,883,Correct,7,858
7,FNFNF,151,1,728,Correct,7,841
7,AWAWA,7,3,739,Correct,7,824
7,ZAZAZ,13,1,820,Correct,7,684
7,OYOYO,152,1,616,Correct,7,914
7,SQSQS,153,1,628,Correct,7,936
7,OSOSO,154,1,616,Correct,7,746
7,FCFBF,181,2,773,Correct,7,862
7,EUEUE,15,1,807,Correct,7,659
7,CYCGC,161,2,754,Correct,7,781
7,SZSUS,162,2,795,Correct,7,871
7,OFOFO,151,1,676,Correct,7,857
7,RVRUR,161,2,704,Correct,7,803
7,ZBZBZ,192,1,986,Correct,7,848
7,UCUTU,16,2,817,Correct,7,708
7,NWNWN,8,3,774,Correct,7,843
7,XNXUX,14,2,709,Correct,7,679
7,CXCNC,162,2,718,Correct,7,935
7,AUAUW,225,1,888,Correct,7,837
7,HEHEH,113,1,923,Correct,7,879
7,UFWFU,223,1,912,Correct,7,740
7,HVHEH,222,2,1275,Correct,7,708
7,YBYBY,193,1,814,Correct,7,917
7,OYOYO,15,1,1046,Correct,7,781
7,TMTWT,91,3,1163,Correct,7,652
7,HTHTH,13,1,1013,Correct,7,824
7,UHUHU,152,1,922,Correct,7,678
7,EVEBE,184,2,750,Incorrect,7,806
7,HZHMH,16,2,1015,Correct,7,799
7,VHVCV,162,2,1063,Correct,7,809
7,WAGDG,231,2,775,Correct,7,786
7,PFPFP,113,1,980,Correct,7,709
7,OQOQO,152,2,968,Incorrect,7,746
7,TWTWT,10,3,937,Correct,7,826
7,VKVDV,14,2,816,Correct,7,691
7,WPAPA,221,1,821,Correct,7,939
7,HBHBH,195,1,804,Correct,7,674
7,ZMZAZ,16,2,828,Correct,7,853
7,SYSYS,151,1,854,Correct,7,763
7,FZFXF,161,2,759,Correct,7,943
7,SMSMS,151,1,901,Correct,7,763
7,XOXOX,152,1,652,Correct,7,799
7,FWFWF,11,3,832,Correct,7,696
7,ENEBE,186,2,661,Correct,7,849
7,ZVZGZ,16,2,737,Correct,7,930
7,EZEZE,151,1,784,Correct,7,687
7,TOTEW,235,2,711,Correct,7,897
7,PDPDP,113,1,740,Correct,7,825
7,TKTWT,122,3,848,Correct,7,778
8,M,5,3,4051,New Target,8,871
8,VYVNV,161,2,978,Correct,8,898
8,KLKTK,162,2,779,Correct,8,666
8,NQNQN,151,1,776,Correct,8,750
8,VHVEV,161,2,778,Correct,8,654
8,XNXNM,225,2,1113,Incorrect,8,658
8,USUVU,222,2,807,Correct,8,781
8,KRKZK,162,2,881,Correct,8,751
8,TMTET,71,3,812,Correct,8,699
8,GFGFG,13,1,788,Correct,8,874
8,OPODO,161,2,1053,Correct,8,856
8,KCKCK,151,1,880,Correct,8,675
8,VTVTV,152,1,826,Correct,8,727
8,LSLSL,153,1,755,Correct,8,799
8,DLDLD,154,1,676,Correct,8,650
8,NYNYN,155,1,857,Correct,8,661
8,DCMAD,233,2,659,Correct,8,728
8,TDTDT,113,1,644,Correct,8,717
8,GVGRG,161,2,627,Correct,8,812
8,ZUZUZ,151,1,740,Correct,8,791
8,OGOVO,161,2,670,Correct,8,822
8,PWPTP,171,3,865,Incorrect,8,667
8,KLKDM,235,2,1203,Correct,8,895
8,SMSMS,8,3,785,Correct,8,761
8,PRPSP,14,2,996,Correct,8,944
8,DVDYD,162,2,857,Correct,8,689
8,PXPMP,92,3,869,Correct,8,690
8,GDGLG,14,2,683,Correct,8,797
8,SWSWS,192,1,1288,Correct,8,843
8,GDGLG,16,2,737,Correct,8,713
8,MTCYC,231,2,958,Correct,8,732
8,GSGSG,113,1,847,Correct,8,886
8,YQYTY,161,2,600,Correct,8,791
8,ZLZPZ,162,2,926,Correct,8,711
8,HZHZH,151,1,913,Correct,8,847
8,MSOSO,221,1,826,Correct,8,729
8,HWHWH,193,1,1198,Correct,8,883
8,PYPAP,16,2,837,Correct,8,898
8,SPSVS,162,2,651,Correct,8,876
8,XLXLX,151,1,667,Correct,8,812
8,YMYMY,10,3,953,Correct,8,843
8,HYHYH,13,1,1022,Correct,8,796
8,OWOGO,174,2,764,Correct,8,896
8,PHPOP,16,2,774,Correct,8,829
8,NPNSN,162,2,767,Correct,8,903
8,HVMVH,223,1,973,Correct,8,761
8,THTFT,222,2,835,Correct,8,695
8,STSTS,151,1,654,Correct,8,726
8,AGAMA,112,3,780,Correct,8,784
8,PEPEP,13,1,860,Correct,8,712
8,ZWZWZ,195,1,1120,Correct,8,855
8,ODOZO,16,2,930,Correct,8,678
8,LRLOL,162,2,785,Correct,8,940
8,GZGZG,151,1,645,Correct,8,941
8,TGTGT,152,1,796,Correct,8,693
8,CUCSC,161,2,917,Correct,8,812
8,SCSCS,151,1,790,Correct,8,883
8,AWAWA,196,1,973,Correct,8,840
8,NLNLN,15,1,941,Correct,8,950
8,VNVNV,152,1,991,Correct,8,808
8,GMGMG,12,3,757,Correct,8,690
9,S,5,3,3419,New Target,9,751
9,NBNBN,151,1,695,Correct,9,743
9,KVKZK,161,2,788,Correct,9,799
9,LBLBL,151,1,626,Correct,9,663
9,XLXLX,152,1,669,Correct,9,930
9,ZXZXZ,153,1,916,Correct,9,948
9,KNKZK,161,2,934,Correct,9,847
9,TQTAT,162,2,793,Correct,9,876
9,CLCUC,163,2,900,Correct,9,797
9,ZCZFZ,164,2,886,Correct,9,888
9,NSNSN,7,3,1058,Correct,9,693
9,HGHGH,13,1,758,Correct,9,654
9,THTDT,161,2,806,Correct,9,720
9,VMVMV,191,1,1085,Correct,9,875
9,CVCDC,16,2,749,Correct,9,722
9,ZAZRZ,162,2,950,Correct,9,875
9,XTXZX,163,2,636,Correct,9,751
9,OXOXO,151,1,762,Correct,9,884
9,DCDSD,82,2,651,Incorrect,9,653
9,PQPDP,14,2,763,Correct,9,807
9,ZMZMZ,192,1,730,Incorrect,9,651
9,BEBEB,15,1,776,Correct,9,722
9,FCFCF,152,1,818,Correct,9,823
9,YAYBY,161,2,710,Correct,9,885
9,KNKVK,162,2,870,Correct,9,774
9,SEPCP,231,2,941,Correct,9,736
9,OPOPO,113,1,853,Correct,9,756
9,XMXMX,193,1,931,Correct,9,651
9,KEKEK,15,1,776,Correct,9,743
9,USUSU,9,3,694,Correct,9,762
9,YHSHY,223,2,661,Incorrect,9,769
9,UPUPU,113,1,754,Correct,9,839
9,XZXZX,152,1,706,Correct,9,705
9,KGKXK,161,2,817,Correct,9,780
9,QEQPQ,162,2,811,Correct,9,752
9,NUNUS,225,1,955,Correct,9,656
9,BXBXB,113,1,753,Correct,9,789
9,SQHQH,221,1,650,Correct,9,888
9,ACACA,113,1,773,Correct,9,946
9,KMKBK,174,2,734,Correct,9,862
9,EGSVE,233,2,1068,Correct,9,732
9,HYHYH,113,1,855,Correct,9,915
9,LULUL,152,1,778,Correct,9,917
9,AEAEA,153,1,724,Correct,9,821
9,TXTST,102,3,947,Correct,9,712
9,FDFCF,14,2,988,Correct,9,652
9,KVKVK,151,1,962,Correct,9,700
9,UBUCU,161,2,858,Correct,9,739
9,GAGMG,185,2,822,Correct,9,686
9,UXUGU,16,2,617,Correct,9,928
9,HOHOH,151,1,888,Correct,9,819
9,QUQTS,235,2,1091,Correct,9,738
9,YZYZY,113,1,776,Correct,9,703
9,BSBSB,11,3,852,Correct,9,716
9,FEFEF,13,1,808,Correct,9,858
9,GMGMG,196,1,812,Correct,9,927
9,TGTXT,16,2,801,Correct,9,912
9,LSLFL,121,3,747,Correct,9,810
10,Q,5,3,7432,New Target,10,831
10,ZHZOZ,161,,,Incorrect,10,657
10,RZRZR,151,1,827,Correct,10,877
10,BFBFB,152,1,1234,Correct,10,796
10,GBGBG,153,1,926,Correct,10,732
10,OGOXO,161,2,871,Correct,10,651
10,UEQOU,233,2,731,Correct,10,910
10,BOBRB,222,2,742,Correct,10,836
10,DYDVD,162,2,639,Correct,10,871
10,COCOC,151,1,786,Correct,10,737
10,YZYQY,72,3,988,Correct,10,824
10,FHFWF,14,2,821,Correct,10,661
10,ANANQ,225,1,827,Correct,10,784
10,ZAZAZ,113,1,711,Correct,10,686
10,ERESE,181,2,611,Incorrect,10,826
10,XTXOX,16,2,598,Correct,10,722
10,NXNXN,151,1,837,Correct,10,855
10,OVOZO,161,2,632,Correct,10,912
10,WUWOW,162,2,612,Correct,10,925
10,FWFVF,163,2,836,Correct,10,768
10,NSNKN,172,2,578,Incorrect,10,652
10,VWVNV,16,2,741,Correct,10,767
10,XZXZX,151,1,797,Correct,10,869
10,VQVQV,8,3,678,Correct,10,795
10,GYGPG,14,2,822,Correct,10,764
10,OBOSO,183,2,672,Correct,10,755
10,YUYUY,15,1,704,Correct,10,747
10,NDNQN,92,3,972,Correct,10,802
10,FCFHF,14,2,688,Correct,10,736
10,EFEFE,151,1,1388,Correct,10,936
10,NSNSN,194,1,684,Correct,10,834
10,YPYFY,16,2,976,Correct,10,675
10,ZKZKZ,151,1,741,Correct,10,750
10,QZQDR,231,2,814,Correct,10,889
10,AOAHA,222,2,666,Correct,10,695
10,BGBGB,151,1,881,Correct,10,936
10,HQHQH,10,3,779,Correct,10,681
10,UHUBU,14,2,659,Correct,10,888
10,KRKSK,185,2,1246,Correct,10,879
10,TOTOT,15,1,739,Correct,10,930
10,APAPA,152,1,754,Correct,10,702
10,VDVYV,161,2,652,Correct,10,817
10,FOFTF,162,2,796,Correct,10,822
10,QVXVX,221,1,824,Correct,10,756
10,GHGRG,222,2,737,Correct,10,780
10,LFLFL,151,1,877,Correct,10,796
10,HLHLH,152,1,904,Correct,10,672
10,KWQWK,223,1,815,Correct,10,806
10,YQYQY,11,3,679,Correct,10,779
10,ADADA,13,1,618,Correct,10,650
10,OGOAO,161,2,788,Correct,10,938
10,EOEFE,162,2,724,Correct,10,683
10,USUSU,196,1,659,Correct,10,696
10,VFVAQ,235,2,687,Correct,10,899
10,DZDXD,222,2,729,Correct,10,892
10,HVHDH,162,2,675,Correct,10,821
10,DWDWD,151,1,692,Correct,10,710
10,GBGBG,152,1,742,Correct,10,689
10,AOADA,161,2,654,Correct,10,927
10,GQGQG,12,1,606,Incorrect,10,756
11,T,5,3,3520,New Target,11,712
11,KEKEK,151,1,728,Correct,11,934
11,LBLBL,152,1,822,Correct,11,723
11,HEHVH,161,2,787,Correct,11,716
11,FRFOF,162,2,609,Correct,11,728
11,EBEBE,151,1,718,Correct,11,921
11,HTHTH,7,3,826,Correct,11,785
11,MAMDM,14,2,847,Correct,11,918
11,VOVOV,151,1,746,Correct,11,753
11,XQXQX,191,1,1058,Correct,11,919
11,PBPAP,16,2,788,Correct,11,745
11,MXMLM,162,2,777,Correct,11,924
11,TCNCN,221,1,745,Correct,11,679
11,OBONO,222,2,708,Correct,11,816
11,RCROR,162,2,598,Correct,11,718
11,PBPRT,235,2,680,Correct,11,764
11,WFWVW,222,2,610,Correct,11,912
11,LTLUL,81,3,880,Correct,11,925
11,ZDZPZ,14,2,626,Correct,11,874
11,NCNQN,182,2,515,Correct,11,761
11,XZXNX,16,2,617,Correct,11,719
11,GOGOG,151,1,698,Correct,11,778
11,DFDFD,152,1,816,Correct,11,928
11,VWTRV,233,2,709,Correct,11,907
11,CFCVC,222,2,619,Correct,11,945
11,PAPAP,151,1,727,Correct,11,944
11,EQEYE,173,2,593,Correct,11,887
11,DNDED,16,2,710,Correct,11,669
11,PTPTP,9,1,654,Incorrect,11,944
11,ZCZCZ,13,1,959,Correct,11,710
11,MZMZM,152,1,733,Correct,11,933
11,ULUVU,161,2,906,Correct,11,785
11,BRBGB,162,2,809,Correct,11,939
11,MLMLT,225,1,807,Correct,11,651
11,GQGQG,194,1,822,Correct,11,668
11,HGHGH,15,1,732,Correct,11,884
11,RVRBR,161,2,781,Correct,11,692
11,ZOZDZ,162,2,841,Correct,11,777
11,VYVYV,151,1,860,Correct,11,897
11,RVRVR,152,1,873,Correct,11,668
11,OTOTO,10,3,938,Correct,11,897
11,PXPXP,13,1,737,Correct,11,808
11,MCMCM,152,1,682,Correct,11,803
11,YUYUY,153,1,764,Correct,11,718
11,DYDYD,154,1,569,Correct,11,685
11,WDWDW,155,1,552,Correct,11,864
11,DYDQD,185,2,694,Correct,11,932
11,KDKNK,16,2,810,Correct,11,720
11,HOHOH,151,1,579,Correct,11,742
11,TWEZE,231,2,582,Correct,11,823
11,NANHN,222,2,712,Correct,11,830
11,VQVWV,176,2,587,Correct,11,702
11,ZRZRZ,15,1,713,Correct,11,901
11,VTVGV,111,2,598,Incorrect,11,859
11,HWHVH,14,2,644,Correct,11,910
11,EHEHE,151,1,707,Correct,11,824
11,VRVLV,161,2,642,Correct,11,760
11,ACACA,151,1,661,Correct,11,748
11,WBTBW,223,2,663,Incorrect,11,681
11,UTUTU,12,3,663,Correct,11,837
12,O,5,3,1713,New Target,12,789
12,UXULU,161,2,863,Correct,12,844
12,MUMDM,162,2,649,Correct,12,775
12,VLVLV,151,1,779,Correct,12,761
12,BDBHB,161,2,657,Correct,12,921
12,KEKEK,151,1,673,Correct,12,727
12,WKWKW,152,1,686,Correct,12,783
12,AWAWA,153,1,810,Correct,12,888
12,EVEVE,154,1,703,Correct,12,897
12,PHPOP,72,3,905,Correct,12,886
12,WXWAW,14,2,835,Correct,12,658
12,PWPHP,162,2,811,Correct,12,754
12,ZTZTZ,191,1,731,Correct,12,668
12,HVHMH,16,2,587,Correct,12,673
12,DKDKD,151,1,690,Correct,12,703
12,NPNPN,152,1,979,Correct,12,735
12,ZRZNZ,161,2,708,Correct,12,860
12,OGCGC,221,2,872,Incorrect,12,654
12,LFLFL,113,1,640,Correct,12,804
12,WXWXW,152,1,1013,Correct,12,672
12,KPKPK,153,1,659,Correct,12,787
12,FRFKF,161,2,676,Correct,12,722
12,EOEOE,8,3,656,Correct,12,829
12,GEGEG,13,1,745,Correct,12,941
12,LKLBO,235,2,773,Correct,12,739
12,MLMZM,222,2,896,Correct,12,787
12,ASACA,162,2,710,Correct,12,846
12,LOLOL,9,3,848,Correct,12,825
12,XLXLX,13,1,789,Correct,12,885
12,WHWHW,152,1,914,Correct,12,689
12,ETETE,192,1,812,Correct,12,672
12,OXGZG,231,2,769,Correct,12,929
12,CZCZC,113,1,762,Correct,12,872
12,LGLGL,152,1,714,Correct,12,652
12,VLVPV,161,2,693,Correct,12,842
12,UYUYO,225,1,840,Correct,12,680
12,SMSMS,113,1,836,Correct,12,730
12,RTRTR,193,1,748,Correct,12,846
12,KVKHK,16,2,708,Correct,12,904
12,ROROR,101,3,804,Correct,12,742
12,PRPRP,13,1,735,Correct,12,769
12,LALHL,161,2,708,Correct,12,943
12,PLPLP,151,1,813,Correct,12,871
12,CTCTC,194,1,634,Correct,12,652
12,XGXAX,16,2,677,Correct,12,871
12,NMNMN,151,1,657,Correct,12,912
12,HLHZH,161,2,639,Correct,12,810
12,YOYOY,11,3,693,Correct,12,728
12,PZOZP,223,2,964,Incorrect,12,693
12,EAEAE,113,1,761,Correct,12,703
12,GXGVG,161,2,746,Correct,12,684
12,HMHGH,162,2,616,Correct,12,748
12,GTGTG,195,1,729,Correct,12,755
12,LMLGL,16,2,645,Correct,12,826
12,ECEDE,162,2,549,Correct,12,810
12,PSPKP,163,2,583,Correct,12,777
12,MCOBM,233,2,565,Correct,12,942
12,EMEME,113,1,672,Correct,12,937
12,CTCRC,176,2,564,Correct,12,681
12,NSNSN,15,1,696,Correct,12,766
12,MWMVM,161,2,594,Correct,12,924
12,CPCOC,122,3,833,Correct,12,806
13,H,5,3,1753,New Target,13,917
13,VUVUV,151,1,824,Correct,13,720
13,YVYVY,152,2,849,Incorrect,13,737
13,XUXUX,153,1,597,Correct,13,859
13,NRNWN,161,2,980,Correct,13,839
13,MZMKM,162,2,916,Correct,13,913
13,HLVLV,221,2,774,Incorrect,13,915
13,DXDGD,222,2,885,Correct,13,652
13,LHLAL,71,3,682,Correct,13,865
13,YMYFY,14,2,828,Correct,13,671
13,AOARA,171,2,720,Correct,13,889
13,ZKZAZ,16,2,651,Correct,13,768
13,RZRZR,151,1,646,Correct,13,939
13,NFNAN,161,2,563,Correct,13,906
13,KUKEK,162,2,935,Correct,13,797
13,XAXYX,163,2,529,Correct,13,659
13,LKLUL,164,2,722,Correct,13,902
13,NLNLN,151,1,815,Correct,13,821
13,WDWOW,182,2,512,Correct,13,950
13,EWEWE,15,1,690,Correct,13,882
13,VHVHV,8,3,781,Correct,13,915
13,PVPVP,13,1,700,Correct,13,660
13,CRCSC,161,2,805,Correct,13,935
13,NWNWN,151,1,800,Correct,13,718
13,SQSQS,152,1,677,Correct,13,925
13,AEASA,161,2,736,Correct,13,920
13,GOGOG,193,2,590,Incorrect,13,739
13,QGQGQ,15,1,669,Correct,13,901
13,FMFMF,152,1,625,Correct,13,665
13,PFPFP,153,1,877,Correct,13,900
13,SYSHS,92,3,934,Correct,13,722
13,QGQKQ,14,2,844,Correct,13,723
13,ELELH,225,1,745,Correct,13,726
13,MRMRM,113,1,711,Correct,13,745
13,GUGNG,161,2,687,Correct,13,920
13,ZOZOZ,194,1,732,Correct,13,785
13,EZEZE,15,1,730,Correct,13,713
13,FHFKF,101,3,647,Correct,13,788
13,GSHLG,233,2,1161,Correct,13,696
13,FKFXF,222,2,1045,Correct,13,801
13,DEDYD,162,2,607,Correct,13,945
13,UXUVU,163,2,543,Correct,13,867
13,MCMOM,185,2,612,Correct,13,778
13,BXBUH,235,2,743,Correct,13,753
13,DMDMD,113,2,655,Incorrect,13,853
13,BXBDB,161,2,571,Correct,13,856
13,AVAVA,151,1,782,Correct,13,786
13,QUHUQ,223,1,971,Correct,13,667
13,BRBRB,113,1,756,Correct,13,654
13,ZHZHZ,11,3,610,Correct,13,740
13,VZVZV,13,1,865,Correct,13,892
13,HBUQU,231,2,774,Correct,13,850
13,EUEUE,113,1,723,Correct,13,754
13,RQRDR,161,2,754,Correct,13,741
13,COCOC,196,1,684,Correct,13,890
13,VNVSV,16,2,604,Correct,13,778
13,WHWHW,12,1,686,Incorrect,13,826
14,G,5,3,3334,New Target,14,860
14,EBEBE,151,1,1319,Correct,14,829
14,QPQUQ,161,2,932,Correct,14,656
14,XDXDX,151,1,661,Correct,14,841
14,YXYXY,152,1,712,Correct,14,715
14,MBMBM,153,1,640,Correct,14,921
14,QMQKQ,161,2,705,Correct,14,717
14,EYETE,162,2,880,Correct,14,717
14,UKUKU,151,1,809,Correct,14,742
14,MPGPM,223,1,887,Correct,14,654
14,ANANA,113,1,650,Correct,14,913
14,UAUAU,152,1,598,Correct,14,896
14,ADASA,161,2,668,Correct,14,701
14,LKLGL,72,3,779,Correct,14,760
14,UWUWU,13,1,611,Correct,14,810
14,MCMUM,161,2,680,Correct,14,669
14,YMYMY,151,1,675,Correct,14,905
14,RHRWR,171,2,916,Correct,14,726
14,DUDCD,16,2,698,Correct,14,766
14,ASAGA,82,3,969,Correct,14,713
14,DLDLD,13,1,813,Correct,14,733
14,ZXZDZ,161,2,748,Correct,14,703
14,ULUFU,162,2,914,Correct,14,942
14,DPDPG,225,1,729,Correct,14,686
14,KHKTK,172,2,707,Correct,14,925
14,ZKZUZ,16,2,654,Correct,14,868
14,AKALA,162,2,732,Correct,14,816
14,CNCNC,151,1,620,Correct,14,657
14,PGPGP,9,3,698,Correct,14,848
14,UPUPU,13,1,661,Correct,14,797
14,FSGWF,233,2,563,Correct,14,807
14,CACVC,222,2,723,Correct,14,892
14,FTFTF,151,1,625,Correct,14,747
14,KFKCK,161,2,566,Correct,14,670
14,ZEZHZ,183,2,698,Correct,14,801
14,NSNSN,15,1,682,Correct,14,723
14,ENENE,152,2,792,Incorrect,14,819
14,LXLWG,235,2,560,Correct,14,773
14,SMSUS,222,2,696,Correct,14,704
14,ZHZHZ,194,1,729,Correct,14,734
14,PFPFP,15,1,902,Correct,14,763
14,BABAB,152,1,672,Correct,14,701
14,XPXUX,161,2,654,Correct,14,782
14,ACACA,151,1,654,Correct,14,786
14,RGRGR,10,3,817,Correct,14,705
14,URURU,13,1,630,Correct,14,847
14,PKPTP,161,2,714,Correct,14,725
14,SGSGS,11,1,662,Incorrect,14,830
14,GZYVY,231,2,740,Correct,14,869
14,UDUTU,222,2,784,Correct,14,762
14,VHVHV,195,1,669,Correct,14,750
14,LWLNL,16,2,599,Correct,14,938
14,GKPKP,221,1,715,Correct,14,764
14,SQSPS,222,2,697,Correct,14,752
14,WNWNW,151,1,678,Correct,14,775
14,MHMTM,176,2,837,Incorrect,14,761
14,RZRZR,15,3,784,Incorrect,14,750
14,CGCDC,121,3,789,Correct,14,939
15,A,5,3,8115,New Target,15,697
15,WQWEW,161,2,819,Correct,15,804
15,RWRKR,162,2,651,Correct,15,771
15,YRYRY,151,1,711,Correct,15,891
15,XOXOX,152,1,671,Correct,15,902
15,QPQPQ,153,1,658,Correct,15,670
15,TDTDT,154,1,593,Correct,15,857
15,WXWBW,161,2,562,Correct,15,765
15,TATAT,7,3,931,Correct,15,861
15,MCMYM,14,2,677,Correct,15,839
15,SMSFS,162,2,739,Correct,15,773
15,ZLZMZ,163,2,531,Correct,15,680
15,VDVBV,164,2,628,Correct,15,891
15,XCXVX,165,2,532,Correct,15,766
15,LKLBA,235,2,517,Correct,15,855
15,NDNDN,113,1,700,Correct,15,693
15,YGYGY,191,2,571,Incorrect,15,784
15,VLVLV,15,1,622,Correct,15,731
15,WQWQW,152,1,597,Correct,15,673
15,MAMOM,81,3,658,Correct,15,941
15,YZABY,233,2,913,Correct,15,850
15,CFCFC,113,1,659,Correct,15,922
15,UTULU,161,2,948,Correct,15,753
15,KPKUK,162,2,741,Correct,15,903
15,TCTQT,163,2,601,Correct,15,933
15,FGFGF,192,1,679,Correct,15,893
15,RCRYR,16,2,885,Correct,15,847
15,KRKDK,162,2,649,Correct,15,910
15,CRCRC,151,1,706,Correct,15,948
15,WOAOW,223,1,715,Correct,15,936
15,LPLWL,222,2,506,Correct,15,737
15,DGDUD,173,2,564,Correct,15,678
15,EMEZE,16,2,518,Correct,15,808
15,DADAD,9,3,886,Correct,15,877
15,WDWDW,13,1,776,Correct,15,933
15,AWQWQ,221,1,813,Correct,15,931
15,TKTQT,222,2,585,Correct,15,705
15,MTMFM,162,2,685,Correct,15,721
15,KAKAK,10,1,638,Incorrect,15,755
15,BDBRB,14,2,810,Correct,15,856
15,QPQPQ,151,1,708,Correct,15,840
15,NDNDN,152,1,752,Correct,15,868
15,QYQGQ,184,2,633,Correct,15,800
15,VPVPV,15,1,779,Correct,15,777
15,RDRDA,225,1,664,Correct,15,699
15,KWKOK,222,2,612,Correct,15,830
15,TPTPT,151,1,886,Correct,15,775
15,DCDCD,152,1,775,Correct,15,939
15,OWOAO,112,3,607,Correct,15,901
15,ZCZNZ,14,2,743,Correct,15,664
15,MYMGM,185,2,866,Correct,15,828
15,ANLOL,231,2,739,Correct,15,921
15,DWDPD,222,2,574,Correct,15,787
15,YQYQY,151,1,686,Correct,15,868
15,LGLGL,196,1,714,Correct,15,846
15,VYVLV,16,2,805,Correct,15,858
15,MVMVM,151,1,866,Correct,15,714
15,QMQMQ,152,1,808,Correct,15,831
15,SXSXS,153,1,853,Correct,15,658
15,WAWAW,12,3,909,Correct,15,799
