Trial No,Stimulus,Trigger,Response,Response Time(ms),Correct,Block,Fixation Duration
Practice
OT Practice
1,SKSKS,15,,,False,0,742
1,DLDUD,16,2,1025,Correct,0,913
1,PDPGP,16,2,907,Correct,0,919
1,MWMWM,15,1,684,Correct,0,795
1,FTFTF,15,1,627,Correct,0,841
1,AXAMA,16,2,737,Correct,0,808
1,RYRGR,16,2,581,Correct,0,917
1,DODOD,15,1,707,Correct,0,751
1,QTQAQ,16,2,750,Correct,0,733
1,YEYEY,15,1,478,Correct,0,927
2,GYGDG,16,2,646,Correct,0,692
2,SWSWS,15,1,500,Correct,0,738
2,HLHUH,16,2,604,Correct,0,664
2,DEDED,15,1,612,Correct,0,944
2,ZPZOZ,16,2,605,Correct,0,936
2,ATATA,15,1,679,Correct,0,852
2,QOQOQ,15,2,498,False,0,754
2,FPFGF,16,2,656,Correct,0,878
2,TRTET,16,2,666,Correct,0,847
2,DQDQD,15,2,686,False,0,944
AT Practice
1,TKTKT,15,1,1243,Correct,0,826
1,SLSUS,16,2,686,Correct,0,827
1,VZVGV,7,3,915,Correct,0,897
1,XWXZX,7,2,728,False,0,685
1,ATATA,15,1,647,Correct,0,680
1,HXZMH,16,2,786,Correct,0,862
1,TZTZT,7,3,645,Correct,0,833
1,UOUOU,15,1,671,Correct,0,883
1,ZTWAW,16,2,601,Correct,0,849
1,RZRER,7,3,801,Correct,0,899
2,JYJDJ,16,2,818,Correct,0,815
2,DWDWD,15,1,662,Correct,0,868
2,GNGNG,7,3,723,Correct,0,791
2,NEZEZ,16,2,620,False,0,771
2,RNROR,7,3,799,Correct,0,658
2,QTQNQ,7,3,832,Correct,0,914
2,HOHON,15,1,690,Correct,0,880
2,KPKGK,16,2,934,Correct,0,937
2,DRDED,16,1,680,False,0,808
2,LNLNL,7,3,756,Correct,0,829
4,GLGLG,15,1,1044,Correct,0,882
4,DTDID,16,2,777,Correct,0,651
4,SMSGS,16,2,811,Correct,0,934
4,ZFZYZ,7,3,702,Correct,0,899
4,TSTFT,7,3,705,Correct,0,937
4,OFOFO,7,3,700,Correct,0,739
4,WYFGW,16,2,597,Correct,0,842
4,WYWYW,15,1,741,Correct,0,721
4,MFMCM,7,3,784,Correct,0,719
4,HQHEH,16,2,823,Correct,0,740
Trials
1,D,5,3,27459,New Target,1,812
1,BNBYB,161,2,980,Correct,1,837
1,FBFBF,151,1,761,Correct,1,691
1,RKRKR,152,1,771,Correct,1,868
1,QSQNQ,161,2,749,Correct,1,757
1,CTCFC,162,2,761,Correct,1,878
1,PDPDP,7,3,593,Correct,1,889
1,OPOFO,14,2,754,Correct,1,800
1,HLHNH,162,3,573,Incorrect,1,822
1,MFMFM,151,1,914,Correct,1,685
1,BTBTB,152,1,710,Correct,1,801
1,MCMPD,235,2,740,Correct,1,781
1,BMBFB,222,2,814,Correct,1,843
1,NTNZN,162,2,679,Correct,1,774
1,MXMRM,163,2,744,Correct,1,744
1,APABA,164,2,817,Correct,1,815
1,FMDMF,223,1,812,Correct,1,706
1,QPQPQ,113,1,812,Correct,1,656
1,VQVMV,161,2,707,Correct,1,830
1,RERPR,162,2,701,Correct,1,832
1,KVKVK,151,1,1084,Correct,1,702
1,AKAHA,161,2,730,Correct,1,854
1,VDVDV,8,1,823,Incorrect,1,776
1,DUGUG,221,1,917,Correct,1,661
1,AFAFA,113,1,663,Correct,1,852
1,GYGYG,152,1,643,Correct,1,804
1,VXVSV,161,2,692,Correct,1,817
1,DOWGW,231,2,811,Correct,1,941
1,QYQYQ,113,1,670,Correct,1,932
1,ODONO,91,3,734,Correct,1,793
1,MSMSM,13,1,601,Correct,1,789
1,GYGYG,152,1,636,Correct,1,739
1,UMUMU,153,1,767,Correct,1,711
1,BZBZB,154,1,697,Correct,1,929
1,NTNBN,161,2,643,Correct,1,803
1,GNDYG,233,2,741,Correct,1,726
1,OCOSO,222,2,945,Correct,1,843
1,BHBFB,162,2,1011,Correct,1,807
1,QCQBQ,163,2,856,Correct,1,752
1,LQLQL,151,1,755,Correct,1,699
1,ZDZDZ,10,3,781,Correct,1,783
1,QNQZQ,14,2,805,Correct,1,860
1,CSCYC,162,2,665,Correct,1,921
1,RCRLR,163,2,743,Correct,1,876
1,FRFRF,151,2,688,Incorrect,1,927
1,WFWFW,152,1,594,Correct,1,668
1,QOQLQ,161,2,743,Correct,1,760
1,AWAQA,162,2,743,Correct,1,650
1,EAEAE,151,1,679,Correct,1,715
1,AGAUA,161,2,682,Correct,1,699
1,YMYMY,151,1,618,Correct,1,717
1,XQXQX,152,1,584,Correct,1,831
1,SHSGS,161,2,693,Correct,1,892
1,PDPDP,11,3,785,Correct,1,833
1,ZGZGZ,13,1,680,Correct,1,944
1,OXOXO,152,1,733,Correct,1,664
1,LYLYL,153,1,776,Correct,1,770
1,NKNKD,225,2,1104,Incorrect,1,818
1,GNGNG,113,1,761,Correct,1,934
1,OYOBO,161,2,873,Correct,1,670
1,SOSOS,151,1,640,Correct,1,750
1,VHVHV,152,1,591,Correct,1,831
1,OKOXO,161,2,909,Correct,1,850
1,EZEZE,151,1,641,Correct,1,861
1,LDLDL,12,3,750,Correct,1,868
2,U,5,3,1510,New Target,2,878
2,BVBEB,161,2,807,Correct,2,929
2,FBFBF,151,1,557,Correct,2,835
2,RFRFR,152,1,821,Correct,2,665
2,NBNKN,161,2,736,Correct,2,753
2,MKMNM,162,1,655,Incorrect,2,693
2,QXQXQ,151,1,628,Correct,2,660
2,MQMYM,161,2,673,Correct,2,892
2,TGTPT,162,2,820,Correct,2,710
2,XOXOX,151,1,526,Correct,2,747
2,CUCUC,7,1,723,Incorrect,2,784
2,RFRFR,13,1,627,Correct,2,777
2,VYVSV,161,2,690,Correct,2,887
2,VDVDV,191,3,812,Incorrect,2,883
2,GKGQG,15,2,729,Correct,2,668
2,SCSCS,151,1,614,Correct,2,837
2,CTCUC,82,3,851,Correct,2,865
2,RCRCR,13,1,714,Correct,2,809
2,BOBXB,161,2,694,Correct,2,811
2,FMFAF,162,2,822,Correct,2,700
2,BEBAB,163,2,833,Correct,2,720
2,PWPWP,151,1,746,Correct,2,821
2,UQCKC,231,2,1123,Correct,2,822
2,OCOCO,113,1,622,Correct,2,859
2,TNTNT,152,1,827,Correct,2,872
2,QCQGQ,161,1,822,Incorrect,2,729
2,WVWVW,151,1,1119,Correct,2,784
2,TQTQT,152,1,648,Correct,2,894
2,FOFOF,225,1,501,Correct,2,823
2,WVWFW,222,2,762,Correct,2,732
2,SWSWS,151,1,639,Correct,2,950
2,FYFCF,161,2,673,Correct,2,710
2,SUSWS,91,3,727,Correct,2,666
2,CACHC,14,2,687,Correct,2,889
2,VDVKV,172,2,651,Correct,2,881
2,YCYCY,15,1,621,Correct,2,700
2,NMNTN,161,2,674,Correct,2,690
2,XOUKX,233,2,1243,Correct,2,913
2,BPBPB,113,1,1029,Correct,2,770
2,MRMRM,152,1,858,Correct,2,693
2,XMXMX,153,1,788,Correct,2,730
2,AUAHA,101,2,721,Incorrect,2,738
2,XKXEU,235,2,786,Correct,2,706
2,TFTFT,113,1,619,Correct,2,773
2,MDMDM,193,1,844,Correct,2,804
2,WYWMW,16,2,1110,Correct,2,760
2,AZUZA,223,2,1048,Incorrect,2,671
2,KEKHK,222,2,1143,Correct,2,842
2,LALAL,151,1,1075,Correct,2,773
2,CWCDC,184,2,887,Incorrect,2,702
2,SGSTS,16,2,733,Correct,2,847
2,PXPXP,151,1,913,Correct,2,666
2,GRGYG,161,2,1303,Correct,2,741
2,PUPOP,111,1,969,Incorrect,2,886
2,RNRNR,14,1,998,Correct,2,913
2,KDKDK,195,1,678,Correct,2,832
2,KTKTK,15,1,1125,Correct,2,757
2,OROKO,161,1,593,Incorrect,2,812
2,UNANA,221,1,1025,Correct,2,861
2,TATAT,113,1,773,Correct,2,766
2,AWAWA,152,1,685,Incorrect,2,943
2,RDRDR,196,1,1032,Correct,2,862
2,FCFCF,15,1,761,Correct,2,821
2,ZMZMZ,152,1,628,Correct,2,837
2,BUBUB,12,1,546,Incorrect,2,827
3,E,5,3,3799,New Target,3,870
3,YZYZY,151,1,1176,Correct,3,898
3,VFVNV,161,2,995,Correct,3,877
3,KAKAK,151,1,615,Correct,3,744
3,TKTKT,152,1,711,Correct,3,788
3,WHWTW,161,2,654,Correct,3,940
3,QEQFQ,71,3,825,Correct,3,939
3,XNXNX,13,1,639,Correct,3,886
3,TXTXT,152,1,595,Correct,3,677
3,GLGNG,161,2,857,Correct,3,668
3,CUCTC,171,2,1230,Correct,3,893
3,FAFQF,16,2,755,Correct,3,931
3,ZLZLZ,151,1,656,Correct,3,732
3,YZYZY,152,1,762,Correct,3,929
3,CYCYC,153,1,849,Correct,3,924
3,HUHUH,192,1,954,Correct,3,731
3,OSORO,16,2,796,Correct,3,846
3,YOYOY,151,1,818,Correct,3,891
3,CECEC,8,1,590,Incorrect,3,679
3,VNENV,223,1,1451,Correct,3,898
3,KQKFK,222,2,993,Correct,3,694
3,XLXLE,225,1,1167,Correct,3,893
3,QUQUQ,193,1,1030,Correct,3,903
3,SWSLS,16,2,806,Correct,3,826
3,NBNPN,162,2,900,Correct,3,683
3,SGSGS,151,1,720,Correct,3,657
3,FBFBF,152,1,792,Correct,3,936
3,PFPFP,153,1,814,Correct,3,891
3,AGASA,161,1,866,Incorrect,3,947
3,KEKEK,9,3,666,Correct,3,727
3,CWCOC,14,2,828,Correct,3,713
3,HXHXH,151,1,809,Correct,3,709
3,NUNZN,174,2,942,Correct,3,937
3,QMQVQ,16,2,877,Correct,3,921
3,SQSQS,151,1,777,Correct,3,694
3,ERNFN,231,2,1247,Incorrect,3,866
3,AQANA,222,2,858,Correct,3,773
3,OBOEO,102,3,995,Correct,3,803
3,SYSXS,14,2,914,Correct,3,944
3,QBQHQ,162,2,855,Correct,3,842
3,XQXQX,151,1,755,Correct,3,668
3,KUKFK,175,2,1022,Correct,3,832
3,RKRKR,15,1,589,Correct,3,807
3,GFGFG,152,1,642,Correct,3,739
3,YBYVY,161,2,641,Correct,3,803
3,SPSTS,162,2,831,Correct,3,889
3,AQAQA,151,1,726,Correct,3,792
3,EPVPV,221,1,1317,Correct,3,755
3,CQCEC,112,3,759,Correct,3,854
3,RFRCR,14,2,1059,Correct,3,779
3,CPCVC,162,2,710,Correct,3,717
3,RXRCR,163,2,644,Correct,3,830
3,TNTLT,164,2,725,Correct,3,706
3,BSBSB,151,1,772,Correct,3,723
3,ZBZBZ,152,1,780,Correct,3,853
3,OYOUO,186,2,1098,Correct,3,707
3,AKAOA,16,2,756,Correct,3,909
3,YQEWY,233,2,1200,Correct,3,761
3,ZMZMZ,113,1,692,Correct,3,941
3,SWSTS,161,2,773,Correct,3,710
3,MFMQE,235,2,948,Correct,3,698
3,RSRLR,222,2,660,Correct,3,878
3,QEQWQ,121,3,949,Correct,3,751
4,K,5,3,2936,New Target,4,873
4,CACHC,161,2,841,Correct,4,840
4,RWRCR,162,2,676,Correct,4,690
4,FOFVF,163,2,558,Correct,4,918
4,LGLGL,151,1,670,Correct,4,843
4,PLPLP,152,1,1267,Correct,4,673
4,NPNPN,153,1,714,Correct,4,834
4,SGSZS,161,2,873,Correct,4,700
4,DNDMD,162,2,1187,Correct,4,701
4,OCOAK,235,2,910,Correct,4,854
4,VYVYV,113,1,750,Correct,4,922
4,RLRLR,152,1,811,Correct,4,784
4,DKDKD,7,3,807,Correct,4,734
4,ZLZLZ,13,1,709,Correct,4,689
4,FZFZF,152,1,949,Correct,4,719
4,CFCFC,153,1,650,Correct,4,790
4,OZOZO,154,1,557,Correct,4,704
4,XEXEX,191,1,1039,Correct,4,809
4,NVNFN,16,2,723,Correct,4,746
4,AYAYA,151,1,637,Correct,4,754
4,BNBVB,161,2,877,Correct,4,808
4,AHKXA,233,2,1447,Correct,4,692
4,WFWFW,113,1,661,Correct,4,901
4,SNSNS,152,1,600,Correct,4,694
4,FKFMF,81,2,806,Incorrect,4,851
4,DZDYD,14,2,769,Correct,4,720
4,GXGDG,162,2,666,Correct,4,825
4,AYAYK,225,1,964,Correct,4,928
4,FPFGF,222,2,1142,Correct,4,877
4,WRWRW,151,1,952,Correct,4,674
4,YPYEY,182,2,849,Correct,4,712
4,SQSQS,15,1,596,Correct,4,904
4,WZWPW,161,2,856,Correct,4,785
4,CKCKC,9,3,888,Correct,4,919
4,BWBVB,14,2,1163,Correct,4,901
4,HMHMH,151,1,1093,Correct,4,858
4,VEVNV,173,2,1247,Correct,4,926
4,GMGVG,16,2,951,Correct,4,759
4,XHXKX,102,3,1128,Correct,4,889
4,QXQRQ,14,2,757,Correct,4,856
4,LQLQL,151,1,642,Correct,4,774
4,ALELA,223,2,531,Incorrect,4,806
4,TPTKT,222,3,1142,Incorrect,4,753
4,GEGEG,194,1,691,Correct,4,767
4,ZNZNZ,15,1,1376,Correct,4,786
4,YZYZY,152,1,670,Correct,4,903
4,SYSYS,153,1,585,Correct,4,853
4,ZSZSZ,221,1,535,Correct,4,934
4,LALGL,222,2,639,Correct,4,673
4,CYCTC,162,2,704,Correct,4,718
4,WEWEW,195,1,592,Correct,4,729
4,CHCSC,16,2,613,Correct,4,744
4,GWGXG,162,2,630,Correct,4,823
4,FGFGF,151,1,619,Correct,4,711
4,QWQKQ,112,3,992,Correct,4,683
4,OQOFO,14,2,802,Correct,4,793
4,PMPEP,186,2,877,Correct,4,718
4,WBWPW,16,2,937,Correct,4,724
4,KCDHD,231,2,815,Correct,4,744
4,RSRWR,222,2,796,Correct,4,683
4,HGHGH,151,1,697,Correct,4,698
4,SKSKS,12,3,986,Correct,4,719
5,L,5,3,6029,New Target,5,874
5,PDPDP,151,1,784,Correct,5,905
5,WAWAW,152,1,538,Correct,5,821
5,HWHWH,153,1,544,Correct,5,727
5,SHSHS,154,1,627,Correct,5,819
5,BRBWB,161,2,807,Correct,5,722
5,FPFBF,162,2,801,Correct,5,767
5,GAGAG,151,1,600,Correct,5,876
5,QVQGQ,161,2,824,Correct,5,800
5,CLCLC,7,3,752,Correct,5,826
5,XWXWX,13,1,696,Correct,5,868
5,AUAUA,152,1,585,Correct,5,666
5,CKCKC,191,1,750,Correct,5,720
5,FNFCF,16,2,707,Correct,5,925
5,UHUQU,162,2,1010,Correct,5,815
5,FZFZF,151,1,822,Correct,5,730
5,THLHT,223,1,875,Correct,5,911
5,CUCLC,82,3,782,Correct,5,920
5,BSBSB,13,1,716,Correct,5,670
5,FDFBF,161,2,643,Correct,5,941
5,LXRXR,221,1,1160,Correct,5,665
5,ZOZNZ,222,2,745,Correct,5,682
5,UZUZU,151,1,627,Correct,5,827
5,AQATA,161,2,628,Correct,5,772
5,UNUPU,162,2,662,Correct,5,747
5,RVRKR,182,2,1068,Correct,5,664
5,URURU,15,1,783,Correct,5,729
5,VLVLV,9,3,654,Correct,5,661
5,DXDVD,14,2,717,Correct,5,821
5,PZPZP,151,1,652,Correct,5,785
5,LXUMU,231,2,1238,Correct,5,864
5,AKADA,173,2,817,Incorrect,5,741
5,HYHYH,15,1,825,Correct,5,765
5,AVAVA,152,1,661,Correct,5,737
5,TUTUT,153,1,743,Correct,5,735
5,XYXWX,161,2,805,Correct,5,764
5,TKTDT,174,2,995,Correct,5,657
5,NXNYN,16,2,918,Correct,5,825
5,USUCU,162,2,680,Correct,5,879
5,ZMZMZ,151,1,564,Correct,5,935
5,WRWAW,161,2,660,Correct,5,896
5,GWGXG,162,2,806,Correct,5,670
5,MUMYL,235,2,656,Correct,5,789
5,CNCNC,113,1,959,Correct,5,815
5,RLRLR,10,3,865,Correct,5,810
5,UAUWU,14,2,713,Correct,5,730
5,FXLRF,233,2,668,Correct,5,679
5,PFPFP,113,1,961,Correct,5,936
5,HPHPH,152,1,835,Correct,5,875
5,GKGKG,195,1,728,Correct,5,930
5,ZUZTZ,16,2,728,Correct,5,716
5,AVASA,162,2,626,Correct,5,806
5,PRPRP,151,1,677,Correct,5,717
5,YPYPY,152,1,704,Correct,5,912
5,ZLZOZ,111,3,960,Correct,5,712
5,WMWSW,14,2,747,Correct,5,655
5,RZRXR,162,2,709,Correct,5,769
5,QWQWQ,151,1,644,Correct,5,738
5,ZKZKZ,196,1,533,Correct,5,726
5,CVCVL,225,1,840,Incorrect,5,814
5,NMNMN,113,1,643,Correct,5,710
5,TRTGT,161,2,1076,Correct,5,762
5,CTCTC,151,1,691,Correct,5,874
5,RKRLR,122,3,764,Correct,5,852
6,B,5,3,3002,New Target,6,656
6,YMYGY,161,2,773,Correct,6,765
6,HUHRH,162,2,723,Correct,6,715
6,WHWHW,151,1,843,Correct,6,933
6,MGMRM,161,2,688,Correct,6,923
6,ZVZWZ,162,2,731,Correct,6,877
6,RCRTR,163,2,629,Correct,6,836
6,DSDRD,164,2,850,Correct,6,862
6,VTBDV,233,2,644,Correct,6,901
6,DSDHD,222,2,758,Correct,6,689
6,QEQEQ,151,1,695,Correct,6,670
6,XOXQX,161,2,791,Correct,6,757
6,RARBR,72,3,913,Correct,6,760
6,GMGMG,13,1,770,Correct,6,904
6,ELERE,171,2,647,Correct,6,905
6,HZHUH,16,2,884,Correct,6,880
6,RHRVR,162,2,724,Correct,6,945
6,YBYBY,8,3,811,Correct,6,904
6,PYPVP,14,2,582,Correct,6,731
6,TLTLT,192,1,600,Correct,6,808
6,QTQTQ,15,1,571,Correct,6,758
6,NXNVN,161,2,572,Correct,6,889
6,QNQNQ,151,1,640,Correct,6,765
6,FUFHF,161,2,709,Correct,6,661
6,YVYFB,235,2,608,Incorrect,6,851
6,WQWSW,222,2,600,Correct,6,651
6,HNHLH,193,2,611,Incorrect,6,902
6,OSOTO,16,2,655,Correct,6,920
6,GWGOG,162,2,736,Correct,6,723
6,UBUBU,9,3,786,Correct,6,714
6,CWCWC,13,1,637,Correct,6,722
6,OCOEO,161,2,594,Correct,6,664
6,MNMNM,151,1,755,Correct,6,798
6,XLXLX,194,1,672,Correct,6,732
6,AYAYA,15,1,496,Correct,6,809
6,FUFAF,161,2,1051,Correct,6,716
6,ANAQA,162,2,626,Correct,6,950
6,BUPWP,231,2,866,Correct,6,767
6,WSWSW,113,1,681,Correct,6,791
6,FRFRF,152,1,826,Correct,6,759
6,AUAUA,153,1,560,Correct,6,840
6,GMGCG,161,2,689,Correct,6,882
6,HLHWH,175,2,703,Correct,6,830
6,PQBQP,223,1,1072,Correct,6,754
6,AZABA,102,3,811,Correct,6,867
6,CWCVC,14,2,680,Correct,6,696
6,FAFAF,151,1,552,Correct,6,714
6,VMVSV,161,2,657,Correct,6,657
6,GBGBG,11,3,909,Correct,6,880
6,FOFNF,14,2,588,Correct,6,938
6,DSDSD,151,1,785,Correct,6,684
6,YDYDY,152,1,654,Correct,6,677
6,FOFOF,153,1,554,Correct,6,835
6,CHCHB,225,1,882,Correct,6,690
6,ZCZCZ,113,1,703,Correct,6,651
6,DZDGD,161,2,680,Correct,6,942
6,MLMEM,176,2,743,Correct,6,747
6,PXPXP,15,1,785,Correct,6,847
6,QYQYQ,152,1,671,Correct,6,670
6,GRGCG,161,2,795,Correct,6,913
6,QVQVQ,151,1,698,Correct,6,658
6,XYXNX,161,2,899,Correct,6,921
6,BHMHM,221,1,1301,Correct,6,868
6,CBCBC,12,3,942,Correct,6,794
7,W,5,3,4247,New Target,7,887
7,QKQKQ,151,1,693,Correct,7,838
7,DUDQD,161,2,738,Correct,7,788
7,OKOKO,151,1,497,Correct,7,741
7,EOEOE,152,1,569,Correct,7,696
7,URUPU,161,2,649,Correct,7,846
7,GMGAG,162,2,725,Correct,7,907
7,HVWDH,233,2,638,Correct,7,910
7,MHMHM,113,1,895,Correct,7,728
7,YXYVY,161,2,758,Correct,7,816
7,FNFNF,151,1,649,Correct,7,925
7,AWAWA,7,3,759,Correct,7,837
7,ZAZAZ,13,1,645,Correct,7,720
7,OYOYO,152,1,596,Correct,7,791
7,SQSQS,153,1,547,Correct,7,922
7,OSOSO,154,1,436,Correct,7,849
7,FCFBF,181,2,667,Correct,7,857
7,EUEUE,15,1,476,Correct,7,688
7,CYCGC,161,2,690,Correct,7,735
7,SZSUS,162,2,702,Correct,7,817
7,OFOFO,151,1,623,Correct,7,723
7,RVRUR,161,2,826,Correct,7,915
7,ZBZBZ,192,1,707,Correct,7,729
7,UCUTU,16,2,693,Correct,7,673
7,NWNWN,8,3,1234,Correct,7,779
7,XNXUX,14,2,891,Correct,7,758
7,CXCNC,162,2,725,Correct,7,691
7,AUAUW,225,1,928,Correct,7,896
7,HEHEH,113,1,610,Correct,7,889
7,UFWFU,223,1,769,Correct,7,887
7,HVHEH,222,2,681,Correct,7,884
7,YBYBY,193,1,636,Correct,7,671
7,OYOYO,15,1,601,Correct,7,912
7,TMTWT,91,3,678,Correct,7,933
7,HTHTH,13,1,708,Correct,7,768
7,UHUHU,152,1,629,Correct,7,681
7,EVEBE,184,2,628,Incorrect,7,843
7,HZHMH,16,2,761,Correct,7,710
7,VHVCV,162,2,691,Correct,7,873
7,WAGDG,231,2,1015,Correct,7,680
7,PFPFP,113,1,946,Correct,7,944
7,OQOQO,152,1,772,Correct,7,854
7,TWTWT,10,3,787,Correct,7,695
7,VKVDV,14,2,783,Correct,7,734
7,WPAPA,221,1,958,Correct,7,729
7,HBHBH,195,1,691,Correct,7,730
7,ZMZAZ,16,2,738,Correct,7,779
7,SYSYS,151,1,606,Correct,7,824
7,FZFXF,161,2,706,Correct,7,685
7,SMSMS,151,1,563,Correct,7,672
7,XOXOX,152,1,924,Correct,7,666
7,FWFWF,11,3,799,Correct,7,854
7,ENEBE,186,2,856,Correct,7,780
7,ZVZGZ,16,2,625,Correct,7,754
7,EZEZE,151,1,675,Correct,7,755
7,TOTEW,235,2,790,Correct,7,724
7,PDPDP,113,1,604,Correct,7,930
7,TKTWT,122,3,684,Correct,7,785
8,M,5,3,14869,New Target,8,716
8,VYVNV,161,2,962,Correct,8,744
8,KLKTK,162,2,727,Correct,8,795
8,NQNQN,151,1,605,Correct,8,925
8,VHVEV,161,2,570,Correct,8,912
8,XNXNM,225,1,750,Correct,8,764
8,USUVU,222,2,682,Correct,8,827
8,KRKZK,162,2,535,Correct,8,773
8,TMTET,71,3,780,Correct,8,784
8,GFGFG,13,1,593,Correct,8,949
8,OPODO,161,2,609,Correct,8,804
8,KCKCK,151,1,854,Correct,8,751
8,VTVTV,152,1,552,Correct,8,905
8,LSLSL,153,1,668,Correct,8,775
8,DLDLD,154,1,542,Correct,8,694
8,NYNYN,155,1,686,Correct,8,860
8,DCMAD,233,2,1420,Correct,8,827
8,TDTDT,113,1,602,Correct,8,888
8,GVGRG,161,2,592,Correct,8,672
8,ZUZUZ,151,1,562,Correct,8,768
8,OGOVO,161,2,675,Correct,8,819
8,PWPTP,171,2,621,Correct,8,869
8,KLKDM,235,2,1133,Correct,8,777
8,SMSMS,8,3,809,Correct,8,795
8,PRPSP,14,2,717,Correct,8,925
8,DVDYD,162,2,637,Correct,8,670
8,PXPMP,92,3,813,Correct,8,845
8,GDGLG,14,2,681,Correct,8,742
8,SWSWS,192,1,603,Correct,8,675
8,GDGLG,16,2,638,Correct,8,705
8,MTCYC,231,2,673,Correct,8,734
8,GSGSG,113,1,722,Correct,8,756
8,YQYTY,161,2,811,Correct,8,860
8,ZLZPZ,162,2,759,Correct,8,715
8,HZHZH,151,1,819,Correct,8,748
8,MSOSO,221,2,925,Incorrect,8,757
8,HWHWH,193,1,830,Correct,8,941
8,PYPAP,16,2,913,Correct,8,908
8,SPSVS,162,2,872,Correct,8,716
8,XLXLX,151,1,692,Correct,8,655
8,YMYMY,10,3,767,Correct,8,907
8,HYHYH,13,1,670,Correct,8,707
8,OWOGO,174,2,680,Correct,8,894
8,PHPOP,16,2,667,Correct,8,678
8,NPNSN,162,2,586,Correct,8,806
8,HVMVH,223,1,1036,Correct,8,791
8,THTFT,222,2,590,Correct,8,803
8,STSTS,151,1,624,Correct,8,782
8,AGAMA,112,3,655,Correct,8,790
8,PEPEP,13,1,642,Correct,8,747
8,ZWZWZ,195,1,1004,Correct,8,915
8,ODOZO,16,2,767,Correct,8,768
8,LRLOL,162,2,726,Correct,8,921
8,GZGZG,151,1,624,Correct,8,834
8,TGTGT,152,1,549,Correct,8,667
8,CUCSC,161,2,648,Correct,8,763
8,SCSCS,151,1,844,Correct,8,721
8,AWAWA,196,1,663,Correct,8,693
8,NLNLN,15,1,533,Correct,8,811
8,VNVNV,152,1,953,Correct,8,797
8,GMGMG,12,3,704,Correct,8,652
9,S,5,3,4675,New Target,9,735
9,NBNBN,151,1,830,Correct,9,864
9,KVKZK,161,2,674,Correct,9,932
9,LBLBL,151,1,1309,Correct,9,871
9,XLXLX,152,1,591,Correct,9,866
9,ZXZXZ,153,1,562,Correct,9,701
9,KNKZK,161,2,699,Correct,9,651
9,TQTAT,162,2,582,Correct,9,892
9,CLCUC,163,2,677,Correct,9,886
9,ZCZFZ,164,2,584,Correct,9,686
9,NSNSN,7,3,623,Correct,9,659
9,HGHGH,13,1,522,Correct,9,905
9,THTDT,161,2,627,Correct,9,714
9,VMVMV,191,1,658,Correct,9,803
9,CVCDC,16,2,691,Correct,9,707
9,ZAZRZ,162,2,767,Correct,9,839
9,XTXZX,163,2,699,Correct,9,809
9,OXOXO,151,1,1070,Correct,9,664
9,DCDSD,82,3,896,Correct,9,731
9,PQPDP,14,2,661,Correct,9,802
9,ZMZMZ,192,1,705,Incorrect,9,894
9,BEBEB,15,2,505,Incorrect,9,897
9,FCFCF,152,1,542,Correct,9,743
9,YAYBY,161,2,1189,Correct,9,739
9,KNKVK,162,2,843,Correct,9,922
9,SEPCP,231,2,856,Correct,9,651
9,OPOPO,113,1,733,Correct,9,886
9,XMXMX,193,1,645,Correct,9,942
9,KEKEK,15,1,607,Correct,9,943
9,USUSU,9,3,1150,Correct,9,824
9,YHSHY,223,1,782,Correct,9,661
9,UPUPU,113,1,869,Correct,9,875
9,XZXZX,152,1,601,Correct,9,832
9,KGKXK,161,2,1177,Correct,9,876
9,QEQPQ,162,2,930,Correct,9,941
9,NUNUS,225,1,690,Correct,9,886
9,BXBXB,113,1,721,Correct,9,802
9,SQHQH,221,1,1087,Correct,9,707
9,ACACA,113,1,639,Correct,9,737
9,KMKBK,174,2,700,Correct,9,906
9,EGSVE,233,1,538,Incorrect,9,755
9,HYHYH,113,1,656,Correct,9,715
9,LULUL,152,1,558,Correct,9,805
9,AEAEA,153,1,777,Correct,9,935
9,TXTST,102,2,689,Incorrect,9,862
9,FDFCF,14,2,1284,Correct,9,696
9,KVKVK,151,1,940,Correct,9,821
9,UBUCU,161,2,833,Correct,9,762
9,GAGMG,185,2,808,Correct,9,866
9,UXUGU,16,2,704,Correct,9,791
9,HOHOH,151,1,795,Correct,9,874
9,QUQTS,235,2,1118,Correct,9,927
9,YZYZY,113,1,729,Correct,9,883
9,BSBSB,11,3,983,Correct,9,742
9,FEFEF,13,1,629,Correct,9,921
9,GMGMG,196,1,723,Correct,9,830
9,TGTXT,16,2,639,Correct,9,841
9,LSLFL,121,3,915,Correct,9,677
10,Q,5,3,1003,New Target,10,938
10,ZHZOZ,161,2,651,Correct,10,678
10,RZRZR,151,1,778,Correct,10,724
10,BFBFB,152,1,586,Correct,10,698
10,GBGBG,153,2,487,Incorrect,10,893
10,OGOXO,161,2,704,Correct,10,747
10,UEQOU,233,2,790,Correct,10,930
10,BOBRB,222,2,939,Correct,10,918
10,DYDVD,162,2,869,Correct,10,683
10,COCOC,151,1,714,Correct,10,897
10,YZYQY,72,3,753,Correct,10,921
10,FHFWF,14,2,700,Correct,10,779
10,ANANQ,225,1,797,Correct,10,718
10,ZAZAZ,113,1,627,Correct,10,865
10,ERESE,181,2,949,Incorrect,10,747
10,XTXOX,16,2,757,Correct,10,867
10,NXNXN,151,1,866,Correct,10,803
10,OVOZO,161,2,757,Correct,10,940
10,WUWOW,162,2,721,Correct,10,728
10,FWFVF,163,2,641,Correct,10,718
10,NSNKN,172,2,1014,Incorrect,10,652
10,VWVNV,16,2,812,Correct,10,670
10,XZXZX,151,1,714,Correct,10,718
10,VQVQV,8,3,882,Correct,10,924
10,GYGPG,14,2,645,Correct,10,897
10,OBOSO,183,2,739,Correct,10,913
10,YUYUY,15,1,703,Correct,10,825
10,NDNQN,92,2,627,Incorrect,10,659
10,FCFHF,14,2,850,Correct,10,796
10,EFEFE,151,1,941,Correct,10,676
10,NSNSN,194,1,701,Correct,10,873
10,YPYFY,16,2,846,Correct,10,654
10,ZKZKZ,151,1,612,Correct,10,850
10,QZQDR,231,2,737,Correct,10,891
10,AOAHA,222,2,690,Correct,10,654
10,BGBGB,151,1,826,Correct,10,904
10,HQHQH,10,3,508,Correct,10,932
10,UHUBU,14,2,678,Correct,10,718
10,KRKSK,185,2,793,Correct,10,662
10,TOTOT,15,1,700,Correct,10,941
10,APAPA,152,1,646,Correct,10,933
10,VDVYV,161,2,712,Correct,10,686
10,FOFTF,162,2,740,Correct,10,813
10,QVXVX,221,1,1024,Correct,10,758
10,GHGRG,222,2,734,Correct,10,884
10,LFLFL,151,1,663,Correct,10,840
10,HLHLH,152,1,583,Correct,10,795
10,KWQWK,223,1,596,Correct,10,936
10,YQYQY,11,3,889,Correct,10,698
10,ADADA,13,1,671,Correct,10,779
10,OGOAO,161,2,739,Correct,10,662
10,EOEFE,162,2,600,Correct,10,947
10,USUSU,196,1,590,Correct,10,669
10,VFVAQ,235,2,678,Correct,10,671
10,DZDXD,222,2,645,Correct,10,835
10,HVHDH,162,2,660,Correct,10,828
10,DWDWD,151,1,738,Correct,10,848
10,GBGBG,152,1,924,Correct,10,835
10,AOADA,161,2,723,Correct,10,740
10,GQGQG,12,3,843,Correct,10,926
11,T,5,3,1327,New Target,11,879
11,KEKEK,151,1,918,Correct,11,767
11,LBLBL,152,1,607,Correct,11,708
11,HEHVH,161,2,989,Correct,11,875
11,FRFOF,162,2,976,Correct,11,760
11,EBEBE,151,1,709,Correct,11,780
11,HTHTH,7,3,886,Correct,11,719
11,MAMDM,14,2,795,Correct,11,815
11,VOVOV,151,1,625,Correct,11,855
11,XQXQX,191,1,1141,Correct,11,716
11,PBPAP,16,2,659,Correct,11,829
11,MXMLM,162,2,706,Correct,11,755
11,TCNCN,221,1,717,Correct,11,852
11,OBONO,222,2,956,Correct,11,759
11,RCROR,162,2,671,Correct,11,799
11,PBPRT,235,2,639,Correct,11,743
11,WFWVW,222,2,592,Correct,11,787
11,LTLUL,81,3,795,Correct,11,900
11,ZDZPZ,14,2,625,Correct,11,931
11,NCNQN,182,2,582,Correct,11,681
11,XZXNX,16,2,582,Correct,11,848
11,GOGOG,151,1,610,Correct,11,911
11,DFDFD,152,1,678,Correct,11,735
11,VWTRV,233,2,567,Correct,11,738
11,CFCVC,222,2,589,Correct,11,696
11,PAPAP,151,1,625,Correct,11,705
11,EQEYE,173,2,702,Correct,11,835
11,DNDED,16,2,822,Correct,11,890
11,PTPTP,9,3,739,Correct,11,678
11,ZCZCZ,13,1,639,Correct,11,796
11,MZMZM,152,1,572,Correct,11,910
11,ULUVU,161,2,666,Correct,11,928
11,BRBGB,162,2,840,Correct,11,779
11,MLMLT,225,1,1509,Correct,11,688
11,GQGQG,194,1,625,Correct,11,874
11,HGHGH,15,1,591,Correct,11,872
11,RVRBR,161,2,548,Correct,11,695
11,ZOZDZ,162,2,661,Correct,11,864
11,VYVYV,151,1,852,Correct,11,863
11,RVRVR,152,1,1008,Correct,11,666
11,OTOTO,10,3,834,Correct,11,835
11,PXPXP,13,1,600,Correct,11,869
11,MCMCM,152,1,596,Correct,11,928
11,YUYUY,153,1,633,Correct,11,687
11,DYDYD,154,1,541,Correct,11,694
11,WDWDW,155,1,512,Correct,11,777
11,DYDQD,185,2,725,Correct,11,812
11,KDKNK,16,2,817,Correct,11,839
11,HOHOH,151,1,860,Correct,11,713
11,TWEZE,231,2,722,Correct,11,858
11,NANHN,222,2,623,Correct,11,801
11,VQVWV,176,2,816,Correct,11,826
11,ZRZRZ,15,1,825,Correct,11,799
11,VTVGV,111,3,892,Correct,11,931
11,HWHVH,14,2,641,Correct,11,810
11,EHEHE,151,1,1414,Correct,11,654
11,VRVLV,161,2,682,Correct,11,769
11,ACACA,151,1,604,Correct,11,686
11,WBTBW,223,1,813,Correct,11,858
11,UTUTU,12,3,810,Correct,11,730
12,O,5,3,1118,New Target,12,836
12,UXULU,161,2,713,Correct,12,747
12,MUMDM,162,2,602,Correct,12,701
12,VLVLV,151,1,601,Correct,12,887
12,BDBHB,161,2,538,Correct,12,805
12,KEKEK,151,1,581,Correct,12,656
12,WKWKW,152,1,549,Correct,12,834
12,AWAWA,153,1,507,Correct,12,722
12,EVEVE,154,1,531,Correct,12,797
12,PHPOP,72,3,832,Correct,12,901
12,WXWAW,14,2,692,Correct,12,899
12,PWPHP,162,2,724,Correct,12,718
12,ZTZTZ,191,1,582,Correct,12,724
12,HVHMH,16,2,1574,Correct,12,748
12,DKDKD,151,1,736,Correct,12,818
12,NPNPN,152,1,783,Correct,12,698
12,ZRZNZ,161,2,797,Correct,12,658
12,OGCGC,221,1,1171,Correct,12,888
12,LFLFL,113,1,571,Correct,12,914
12,WXWXW,152,1,697,Correct,12,897
12,KPKPK,153,1,586,Correct,12,724
12,FRFKF,161,1,839,Incorrect,12,932
12,EOEOE,8,1,642,Incorrect,12,754
12,GEGEG,13,1,704,Correct,12,860
12,LKLBO,235,2,1019,Correct,12,791
12,MLMZM,222,2,722,Correct,12,712
12,ASACA,162,2,656,Correct,12,722
12,LOLOL,9,3,816,Correct,12,810
12,XLXLX,13,1,740,Correct,12,920
12,WHWHW,152,1,699,Correct,12,941
12,ETETE,192,1,632,Correct,12,826
12,OXGZG,231,2,1224,Correct,12,715
12,CZCZC,113,1,609,Correct,12,820
12,LGLGL,152,1,609,Correct,12,819
12,VLVPV,161,2,688,Correct,12,869
12,UYUYO,225,1,765,Correct,12,789
12,SMSMS,113,1,596,Correct,12,915
12,RTRTR,193,1,694,Correct,12,821
12,KVKHK,16,2,722,Correct,12,854
12,ROROR,101,1,612,Incorrect,12,677
12,PRPRP,13,1,661,Correct,12,758
12,LALHL,161,2,697,Correct,12,712
12,PLPLP,151,1,475,Correct,12,664
12,CTCTC,194,1,582,Correct,12,669
12,XGXAX,16,2,733,Correct,12,707
12,NMNMN,151,1,585,Correct,12,813
12,HLHZH,161,2,793,Correct,12,811
12,YOYOY,11,3,694,Correct,12,772
12,PZOZP,223,2,1128,Incorrect,12,705
12,EAEAE,113,1,534,Correct,12,807
12,GXGVG,161,2,741,Correct,12,868
12,HMHGH,162,2,561,Correct,12,773
12,GTGTG,195,1,719,Correct,12,886
12,LMLGL,16,2,847,Correct,12,769
12,ECEDE,162,2,793,Correct,12,707
12,PSPKP,163,2,631,Correct,12,698
12,MCOBM,233,2,612,Correct,12,885
12,EMEME,113,1,698,Correct,12,663
12,CTCRC,176,2,737,Correct,12,946
12,NSNSN,15,1,685,Correct,12,782
12,MWMVM,161,2,763,Correct,12,840
12,CPCOC,122,3,564,Correct,12,801
13,H,5,3,1342,New Target,13,701
13,VUVUV,151,1,1144,Correct,13,794
13,YVYVY,152,1,569,Correct,13,740
13,XUXUX,153,1,479,Correct,13,679
13,NRNWN,161,2,612,Correct,13,813
13,MZMKM,162,2,781,Correct,13,662
13,HLVLV,221,1,756,Correct,13,835
13,DXDGD,222,2,497,Correct,13,716
13,LHLAL,71,2,523,Incorrect,13,704
13,YMYFY,14,2,657,Correct,13,717
13,AOARA,171,2,509,Correct,13,868
13,ZKZAZ,16,2,531,Correct,13,782
13,RZRZR,151,1,711,Correct,13,773
13,NFNAN,161,2,631,Correct,13,765
13,KUKEK,162,2,854,Correct,13,858
13,XAXYX,163,2,767,Correct,13,708
13,LKLUL,164,2,541,Correct,13,694
13,NLNLN,151,1,702,Correct,13,888
13,WDWOW,182,2,715,Correct,13,835
13,EWEWE,15,2,442,Incorrect,13,729
13,VHVHV,8,1,596,Incorrect,13,772
13,PVPVP,13,1,626,Correct,13,823
13,CRCSC,161,2,615,Correct,13,664
13,NWNWN,151,1,612,Correct,13,828
13,SQSQS,152,1,708,Correct,13,854
13,AEASA,161,2,677,Correct,13,746
13,GOGOG,193,1,579,Correct,13,824
13,QGQGQ,15,1,562,Correct,13,850
13,FMFMF,152,1,686,Correct,13,922
13,PFPFP,153,1,523,Correct,13,787
13,SYSHS,92,3,732,Correct,13,868
13,QGQKQ,14,2,858,Correct,13,721
13,ELELH,225,1,1332,Correct,13,760
13,MRMRM,113,1,713,Correct,13,781
13,GUGNG,161,2,701,Correct,13,661
13,ZOZOZ,194,1,489,Correct,13,855
13,EZEZE,15,1,557,Correct,13,819
13,FHFKF,101,3,898,Correct,13,709
13,GSHLG,233,2,743,Correct,13,853
13,FKFXF,222,2,689,Correct,13,843
13,DEDYD,162,2,863,Correct,13,843
13,UXUVU,163,2,548,Correct,13,842
13,MCMOM,185,2,627,Correct,13,836
13,BXBUH,235,2,712,Correct,13,731
13,DMDMD,113,2,452,Incorrect,13,792
13,BXBDB,161,2,650,Correct,13,858
13,AVAVA,151,1,699,Correct,13,683
13,QUHUQ,223,1,981,Correct,13,942
13,BRBRB,113,1,726,Correct,13,867
13,ZHZHZ,11,3,833,Correct,13,885
13,VZVZV,13,1,493,Correct,13,675
13,HBUQU,231,2,741,Correct,13,726
13,EUEUE,113,1,616,Correct,13,672
13,RQRDR,161,2,740,Correct,13,858
13,COCOC,196,1,674,Correct,13,747
13,VNVSV,16,2,711,Correct,13,655
13,WHWHW,12,3,951,Correct,13,692
14,G,5,3,1464,New Target,14,890
14,EBEBE,151,1,629,Correct,14,873
14,QPQUQ,161,2,632,Correct,14,706
14,XDXDX,151,1,515,Correct,14,884
14,YXYXY,152,1,458,Correct,14,741
14,MBMBM,153,1,514,Correct,14,764
14,QMQKQ,161,2,878,Correct,14,659
14,EYETE,162,2,664,Correct,14,699
14,UKUKU,151,1,576,Correct,14,947
14,MPGPM,223,1,838,Correct,14,666
14,ANANA,113,1,431,Correct,14,858
14,UAUAU,152,1,498,Correct,14,875
14,ADASA,161,2,538,Correct,14,713
14,LKLGL,72,2,578,Incorrect,14,704
14,UWUWU,13,1,599,Correct,14,794
14,MCMUM,161,2,673,Correct,14,916
14,YMYMY,151,1,690,Correct,14,699
14,RHRWR,171,2,610,Correct,14,722
14,DUDCD,16,2,645,Correct,14,749
14,ASAGA,82,3,905,Correct,14,688
14,DLDLD,13,1,710,Correct,14,651
14,ZXZDZ,161,2,607,Correct,14,849
14,ULUFU,162,2,658,Correct,14,736
14,DPDPG,225,1,732,Correct,14,949
14,KHKTK,172,2,536,Correct,14,787
14,ZKZUZ,16,2,556,Correct,14,756
14,AKALA,162,2,586,Correct,14,889
14,CNCNC,151,1,635,Correct,14,823
14,PGPGP,9,3,873,Correct,14,812
14,UPUPU,13,1,689,Correct,14,740
14,FSGWF,233,2,1058,Correct,14,735
14,CACVC,222,1,628,Incorrect,14,670
14,FTFTF,151,1,585,Correct,14,728
14,KFKCK,161,2,774,Correct,14,905
14,ZEZHZ,183,2,846,Correct,14,882
14,NSNSN,15,2,764,Incorrect,14,659
14,ENENE,152,1,545,Correct,14,906
14,LXLWG,235,2,725,Correct,14,823
14,SMSUS,222,,,Incorrect,14,698
14,ZHZHZ,194,1,742,Correct,14,663
14,PFPFP,15,1,675,Correct,14,784
14,BABAB,152,1,545,Correct,14,852
14,XPXUX,161,2,595,Correct,14,820
14,ACACA,151,1,647,Correct,14,698
14,RGRGR,10,3,644,Correct,14,839
14,URURU,13,1,594,Correct,14,854
14,PKPTP,161,2,666,Correct,14,682
14,SGSGS,11,3,660,Correct,14,923
14,GZYVY,231,2,1013,Correct,14,739
14,UDUTU,222,2,742,Correct,14,794
14,VHVHV,195,1,662,Correct,14,692
14,LWLNL,16,2,649,Correct,14,662
14,GKPKP,221,1,764,Correct,14,736
14,SQSPS,222,2,1096,Correct,14,847
14,WNWNW,151,1,577,Correct,14,930
14,MHMTM,176,2,712,Incorrect,14,691
14,RZRZR,15,1,659,Correct,14,888
14,CGCDC,121,3,1153,Correct,14,789
15,A,5,3,1175,New Target,15,797
15,WQWEW,161,2,954,Correct,15,799
15,RWRKR,162,2,617,Correct,15,913
15,YRYRY,151,1,728,Correct,15,796
15,XOXOX,152,1,579,Correct,15,879
15,QPQPQ,153,1,618,Correct,15,681
15,TDTDT,154,1,533,Correct,15,922
15,WXWBW,161,2,567,Correct,15,853
15,TATAT,7,1,547,Incorrect,15,944
15,MCMYM,14,2,629,Correct,15,860
15,SMSFS,162,2,770,Correct,15,875
15,ZLZMZ,163,2,591,Correct,15,726
15,VDVBV,164,2,639,Correct,15,866
15,XCXVX,165,2,571,Correct,15,840
15,LKLBA,235,2,569,Correct,15,876
15,NDNDN,113,1,724,Correct,15,935
15,YGYGY,191,1,560,Correct,15,791
15,VLVLV,15,2,465,Incorrect,15,865
15,WQWQW,152,1,473,Correct,15,688
15,MAMOM,81,3,1056,Correct,15,811
15,YZABY,233,2,1119,Correct,15,919
15,CFCFC,113,1,538,Correct,15,780
15,UTULU,161,2,891,Correct,15,818
15,KPKUK,162,2,932,Correct,15,743
15,TCTQT,163,2,649,Correct,15,758
15,FGFGF,192,1,937,Correct,15,773
15,RCRYR,16,2,702,Correct,15,739
15,KRKDK,162,2,749,Correct,15,776
15,CRCRC,151,1,792,Correct,15,841
15,WOAOW,223,1,1201,Correct,15,817
15,LPLWL,222,2,636,Correct,15,751
15,DGDUD,173,2,600,Correct,15,858
15,EMEZE,16,2,661,Correct,15,905
15,DADAD,9,3,808,Correct,15,711
15,WDWDW,13,2,1366,Incorrect,15,711
15,AWQWQ,221,1,631,Correct,15,868
15,TKTQT,222,2,713,Correct,15,777
15,MTMFM,162,2,753,Correct,15,939
15,KAKAK,10,3,843,Correct,15,866
15,BDBRB,14,2,660,Correct,15,812
15,QPQPQ,151,1,548,Correct,15,758
15,NDNDN,152,1,837,Correct,15,897
15,QYQGQ,184,2,710,Correct,15,911
15,VPVPV,15,1,640,Correct,15,833
15,RDRDA,225,1,811,Correct,15,904
15,KWKOK,222,2,568,Correct,15,676
15,TPTPT,151,1,619,Correct,15,814
15,DCDCD,152,1,747,Correct,15,781
15,OWOAO,112,3,981,Correct,15,819
15,ZCZNZ,14,2,981,Correct,15,901
15,MGMYM,182,2,824,Correct,15,770
15,ANLOL,231,2,593,Correct,15,820
15,DWDPD,222,2,453,Correct,15,740
15,YQYQY,151,1,757,Correct,15,924
15,LGLGL,196,1,1029,Correct,15,698
15,VYVLV,16,2,1114,Correct,15,691
15,MVMVM,151,1,667,Correct,15,711
15,QMQMQ,152,1,591,Correct,15,675
15,SXSXS,153,1,594,Correct,15,699
15,WAWAW,12,3,707,Correct,15,860
