Trial No,Stimulus,Trigger,Response,Response Time(ms),Correct,Block,Fixation Duration
Practice
OT Practice
1,SKSKS,15,1,947,Correct,0,776
1,DLDUD,16,2,805,Correct,0,795
1,PDPGP,16,2,1012,Correct,0,936
1,MWMWM,15,1,893,Correct,0,929
1,FTFTF,15,1,963,Correct,0,759
1,AXAMA,16,2,725,Correct,0,728
1,RYRGR,16,2,795,Correct,0,839
1,DODOD,15,1,720,Correct,0,790
1,QTQAQ,16,2,981,Correct,0,902
1,YEYEY,15,1,818,Correct,0,788
2,GYGDG,16,2,821,Correct,0,900
2,SWSWS,15,1,711,Correct,0,881
2,HLHUH,16,2,683,Correct,0,903
2,DEDED,15,1,812,Correct,0,654
2,ZPZOZ,16,2,384,Correct,0,892
2,ATATA,15,1,659,Correct,0,878
2,QOQOQ,15,2,771,False,0,678
2,FPFGF,16,2,727,Correct,0,865
2,TRTET,16,2,861,Correct,0,879
2,DQDQD,15,1,1389,Correct,0,920
4,PLPLP,15,1,963,Correct,0,747
4,ATAIA,16,2,961,Correct,0,823
4,SKSGS,16,2,751,Correct,0,857
4,ZYZYZ,15,1,937,Correct,0,709
4,QSQSQ,15,1,876,Correct,0,738
4,TZTDT,16,2,640,Correct,0,759
4,JYJGJ,16,2,846,Correct,0,779
4,DYDYD,15,1,882,Correct,0,859
4,LTLCL,16,2,928,Correct,0,944
4,FQFEF,16,2,943,Correct,0,873
DT Practice
1,TKTKT,15,1,1159,Correct,0,868
1,SLSUS,16,2,784,Correct,0,751
1,VZVGV,7,[2],[1596],False,0,658
1,XWXZX,7,,,False,0,714
1,ATATA,15,1,900,Correct,0,827
1,HXZMH,16,2,1020,Correct,0,675
1,TZTZT,7,[1][3],[1204][1572],Correct,0,858
1,UOUOU,15,1,1416,Correct,0,802
1,ZTWAW,16,2,1034,Correct,0,665
1,RZRER,7,[1][2],[1034][1370],False,0,940
2,JYJDJ,16,2,879,Correct,0,819
2,DWDWD,15,1,774,Correct,0,660
2,GNGNG,7,[1],[925],False,0,654
2,NEZEZ,16,1,1175,Correct,0,678
2,RNROR,7,[2],[787],False,0,921
2,QTQNQ,7,[2],[972],False,0,858
2,HOHON,15,1,757,Correct,0,876
2,KPKGK,16,2,805,Correct,0,650
2,DRDED,16,2,907,Correct,0,778
2,LNLNL,7,[1],[1155],False,0,667
4,GLGLG,15,1,1180,Correct,0,693
4,DTDID,16,2,844,Correct,0,870
4,SMSGS,16,2,921,Correct,0,816
4,ZFZYZ,7,[1][2],[765][1483],False,0,913
4,TSTFT,7,[2],[1129],False,0,730
4,OFOFO,7,[1],[1513],False,0,778
4,WYFGW,16,2,1144,Correct,0,714
4,WYWYW,15,1,1210,Correct,0,872
4,MFMCM,7,[2],[1397],False,0,931
4,HQHEH,16,2,1123,Correct,0,702
1,TKTKT,15,1,1088,Correct,0,655
1,SLSUS,16,2,1381,Correct,0,826
1,VZVGV,7,[2][3],[1120][1359],Correct,0,841
1,XWXZX,7,[2],[1542],False,0,772
1,ATATA,15,2,1413,False,0,680
1,HXZMH,16,,,False,0,691
1,TZTZT,7,[1][1],[1314][1587],False,0,737
1,UOUOU,15,1,1393,Correct,0,871
1,ZTWAW,16,2,941,Correct,0,715
1,RZRER,7,[2],[1363],False,0,896
2,JYJDJ,16,2,860,Correct,0,753
2,DWDWD,15,1,845,Correct,0,710
2,GNGNG,7,[1],[911],False,0,731
2,NEZEZ,16,1,1526,Correct,0,847
2,RNROR,7,[2][3],[1176][1574],Correct,0,689
2,QTQNQ,7,,,False,0,767
2,HOHON,15,1,917,Correct,0,946
2,KPKGK,16,2,943,Correct,0,855
2,DRDED,16,2,1095,Correct,0,903
2,LNLNL,7,[1][3],[1149][1455],Correct,0,827
Trials
1,D,5,3,568,New Target,1,716
1,ZNZYZ,161,,,Incorrect,1,664
1,FZFZF,151,1,877,Correct,1,696
1,RKRKR,152,1,1272,Correct,1,936
1,RXRNR,161,2,874,Correct,1,762
1,CNCFC,162,2,1449,Correct,1,812
1,PDPDP,7,,,Incorrect,1,751
1,CPCFC,14,2,1447,Correct,1,807
1,VLVNV,162,2,1398,Correct,1,763
1,KFKFK,151,1,1016,Correct,1,664
1,ZNZNZ,152,1,1110,Correct,1,729
1,KCKPD,235,2,1244,Correct,1,892
1,ZKZFZ,222,2,1074,Correct,1,780
1,NRNZN,162,,,Incorrect,1,725
1,KXKRK,163,2,915,Correct,1,807
1,YPYZY,164,2,704,Correct,1,912
1,FKDKF,223,2,660,Incorrect,1,903
1,RPRPR,113,1,913,Correct,1,707
1,VRVKV,161,2,849,Correct,1,821
1,RFRPR,162,2,886,Correct,1,721
1,KVKVK,151,1,1031,Correct,1,832
1,YKYVY,161,2,788,Correct,1,764
1,VDVDV,8,[2],[1328],Incorrect,1,693
1,DVZVZ,221,1,1333,Correct,1,949
1,YFYFY,113,1,938,Correct,1,679
1,ZYZYZ,152,1,1081,Correct,1,824
1,VLVXV,161,2,833,Correct,1,785
1,DPXZX,231,2,1186,Correct,1,868
1,RYRYR,113,1,990,Correct,1,674
1,PDPNP,91,[2][3],[1246][1582],Correct,1,944
1,KXKXK,13,1,1133,Correct,1,679
1,ZYZYZ,152,1,912,Correct,1,845
1,VKVKV,153,1,767,Correct,1,829
1,YZYZY,154,1,632,Correct,1,679
1,NLNZN,161,2,816,Correct,1,889
1,ZNDYZ,233,1,1005,Incorrect,1,928
1,PCPXP,222,2,1006,Correct,1,677
1,ZVZFZ,162,2,1008,Correct,1,700
1,RCRZR,163,2,743,Correct,1,925
1,LRLRL,151,1,915,Correct,1,721
1,ZDZDZ,10,[1],[1401],Incorrect,1,794
1,RNRZR,14,2,936,Correct,1,653
1,CXCYC,162,2,1053,Correct,1,687
1,RCRLR,163,2,821,Correct,1,800
1,FRFRF,151,1,1450,Correct,1,697
1,XFXFX,152,1,795,Correct,1,665
1,RPRLR,161,2,807,Correct,1,668
1,YXYRY,162,2,841,Correct,1,793
1,FYFYF,151,1,986,Correct,1,863
1,YZYVY,161,2,710,Correct,1,825
1,YKYKY,151,1,757,Correct,1,664
1,XRXRX,152,1,702,Correct,1,694
1,XVXZX,161,2,629,Correct,1,857
1,PDPDP,11,[1][1],[1173][1459],Incorrect,1,866
1,ZFZFZ,13,1,999,Correct,1,777
1,PXPXP,152,1,975,Correct,1,896
1,LYLYL,153,1,991,Correct,1,710
1,NKNKD,225,1,1039,Correct,1,758
1,ZNZNZ,113,1,807,Correct,1,815
1,PYPZP,161,2,1080,Correct,1,936
1,XPXPX,151,1,1238,Correct,1,704
1,VLVLV,152,1,773,Correct,1,885
1,PKPXP,161,2,998,Correct,1,925
1,FZFZF,151,1,961,Correct,1,847
1,LDLDL,12,[1][3],[1195][1515],Correct,1,712
2,U,5,3,2735,New Target,2,731
2,ZVZFZ,161,2,865,Correct,2,747
2,FZFZF,151,1,679,Correct,2,698
2,RFRFR,152,1,1360,Correct,2,783
2,NZNKN,161,2,1053,Correct,2,935
2,FZFNF,162,2,901,Correct,2,873
2,RXRXR,151,1,758,Correct,2,749
2,KRKYK,161,2,942,Correct,2,841
2,NZNPN,162,2,1036,Correct,2,775
2,XPXPX,151,1,908,Correct,2,673
2,CUCUC,7,[1][3],[1221][1495],Correct,2,757
2,RFRFR,13,1,939,Correct,2,677
2,VYVXV,161,2,879,Correct,2,668
2,VDVDV,191,1,721,Correct,2,767
2,ZKZRZ,15,2,775,Correct,2,837
2,XCXCX,151,1,890,Correct,2,851
2,CNCUC,82,[2][3],[1197][1548],Correct,2,814
2,RCRCR,13,1,904,Correct,2,881
2,ZPZXZ,161,2,794,Correct,2,697
2,FKFYF,162,1,819,Incorrect,2,680
2,ZFZYZ,163,2,873,Correct,2,686
2,PXPXP,151,1,780,Correct,2,787
2,URCKC,231,2,975,Correct,2,797
2,PCPCP,113,1,798,Correct,2,809
2,XNXNX,152,1,1443,Correct,2,809
2,RCRZR,161,2,941,Correct,2,800
2,XVXVX,151,1,1418,Correct,2,908
2,NRNRN,152,1,1559,Correct,2,839
2,FPFPF,225,1,914,Correct,2,659
2,XVXFX,222,2,738,Correct,2,813
2,PRPRP,151,,,Incorrect,2,729
2,FYFCF,161,2,1157,Correct,2,743
2,XUXFX,91,[2],[1343],Incorrect,2,762
2,CYCVC,14,2,1120,Correct,2,707
2,VDVKV,172,2,1507,Correct,2,931
2,YCYCY,15,1,700,Correct,2,885
2,NKNLN,161,,,Incorrect,2,697
2,XPUKX,233,2,973,Correct,2,811
2,ZPZPZ,113,1,911,Correct,2,687
2,KRKRK,152,2,751,Incorrect,2,860
2,XKXKX,153,2,975,Incorrect,2,915
2,YUYVY,101,[2][3],[1305][1562],Correct,2,943
2,XKXFU,235,2,1132,Correct,2,761
2,NFNFN,113,1,1169,Correct,2,906
2,KDKDK,193,1,801,Correct,2,873
2,XYXKX,16,2,1110,Correct,2,761
2,YZUZY,223,1,1092,Correct,2,707
2,KFKVK,222,2,831,Correct,2,753
2,LYLYL,151,1,1091,Correct,2,781
2,CXCDC,184,2,824,Incorrect,2,928
2,XZXNX,16,2,710,Correct,2,851
2,PXPXP,151,1,910,Correct,2,860
2,ZRZYZ,161,2,1264,Correct,2,675
2,PUPYP,111,[1],[1116],Incorrect,2,796
2,RNRNR,14,1,1152,Correct,2,882
2,KDKDK,195,1,1297,Correct,2,907
2,KNKNK,15,1,887,Correct,2,657
2,PRPKP,161,2,954,Correct,2,763
2,UNYNY,221,1,1043,Correct,2,854
2,NYNYN,113,1,844,Correct,2,950
2,YXYXY,152,1,864,Incorrect,2,705
2,RDRDR,196,1,758,Correct,2,786
2,FCFCF,15,1,906,Correct,2,889
2,ZKZKZ,152,1,734,Correct,2,693
2,ZUZUZ,12,[1],[1420],Incorrect,2,673
3,E,5,3,3901,New Target,3,660
3,YZYZY,151,1,936,Correct,3,854
3,VFVNV,161,2,685,Correct,3,668
3,KYKYK,151,1,979,Correct,3,874
3,NKNKN,152,1,754,Correct,3,731
3,XVXNX,161,2,777,Correct,3,752
3,RERFR,71,[2],[1569],Incorrect,3,846
3,XNXNX,13,1,826,Correct,3,912
3,NXNXN,152,1,1195,Correct,3,812
3,ZLZNZ,161,2,768,Correct,3,843
3,CUCNC,171,2,1260,Correct,3,688
3,FYFRF,16,2,723,Correct,3,785
3,ZLZLZ,151,1,807,Correct,3,846
3,YZYZY,152,1,830,Correct,3,673
3,CYCYC,153,1,1086,Correct,3,879
3,VUVUV,192,1,755,Correct,3,822
3,PXPRP,16,2,940,Correct,3,779
3,YPYPY,151,1,887,Correct,3,920
3,CECEC,8,[1],[848],Incorrect,3,946
3,VNENV,223,1,1195,Correct,3,913
3,KRKFK,222,2,697,Correct,3,681
3,XLXLE,225,1,914,Correct,3,668
3,RFRUR,183,2,775,Correct,3,747
3,XRXLX,16,2,1191,Correct,3,895
3,NZNPN,162,2,987,Correct,3,771
3,XZXZX,151,1,740,Correct,3,912
3,FZFZF,152,1,627,Correct,3,691
3,PFPFP,153,1,721,Correct,3,726
3,YZYXY,161,1,746,Incorrect,3,806
3,KEKEK,9,[3],[1154],Incorrect,3,849
3,CXCPC,14,2,1249,Correct,3,682
3,VXVXV,151,1,991,Correct,3,843
3,NUNZN,174,2,864,Correct,3,708
3,RKRVR,16,2,1080,Correct,3,683
3,XRXRX,151,1,1542,Correct,3,710
3,ERNFN,231,2,1162,Incorrect,3,905
3,YRYNY,222,2,931,Correct,3,692
3,PZPEP,102,[2],[1464],Incorrect,3,650
3,ZYZXZ,14,2,757,Correct,3,928
3,RZRVR,162,2,810,Correct,3,818
3,XRXRX,151,1,736,Correct,3,813
3,KUKFK,175,2,905,Correct,3,720
3,RKRKR,15,1,807,Correct,3,898
3,ZFZFZ,152,1,1003,Correct,3,816
3,YZYVY,161,2,626,Correct,3,919
3,XPXNX,162,2,780,Correct,3,821
3,YRYRY,151,1,787,Correct,3,882
3,EPVPV,221,2,567,Incorrect,3,717
3,CRCEC,112,[2],[1411],Incorrect,3,758
3,RFRCR,14,2,983,Correct,3,868
3,CPCVC,162,2,801,Correct,3,911
3,RXRCR,163,2,650,Correct,3,772
3,VNVLV,164,2,802,Correct,3,809
3,ZXZXZ,151,2,708,Incorrect,3,926
3,ZCZCZ,152,1,800,Correct,3,712
3,PYPUP,186,2,905,Correct,3,672
3,YKYPY,16,2,1003,Correct,3,782
3,YREXY,233,2,1331,Correct,3,838
3,ZKZKZ,113,1,802,Correct,3,814
3,XLXNX,161,2,679,Correct,3,792
3,KFKRE,235,2,1037,Correct,3,859
3,RXRLR,222,2,665,Correct,3,812
3,RERXR,121,[1][2],[1065][1481],Incorrect,3,921
4,J,5,3,3647,New Target,4,722
4,CYCVC,161,,,Incorrect,4,686
4,RXRCR,162,2,765,Correct,4,735
4,FPFVF,163,2,1283,Correct,4,752
4,LZLZL,151,1,1220,Correct,4,870
4,PLPLP,152,1,1404,Correct,4,744
4,NPNPN,153,1,1514,Correct,4,757
4,XZXZX,161,1,1239,Incorrect,4,740
4,CNCKC,162,2,1289,Correct,4,794
4,PCPYJ,235,2,1088,Correct,4,658
4,VYVYV,113,1,1086,Correct,4,737
4,RLRLR,152,1,1204,Correct,4,848
4,CJCJC,7,[1],[916],Incorrect,4,791
4,ZLZLZ,13,1,959,Correct,4,676
4,FZFZF,152,1,738,Correct,4,689
4,CFCFC,153,1,1244,Correct,4,698
4,PZPZP,154,2,892,Incorrect,4,896
4,XEXEX,191,,,Incorrect,4,751
4,NVNFN,16,2,692,Correct,4,780
4,KYKYK,151,1,1089,Correct,4,741
4,ZNZVZ,161,2,981,Correct,4,912
4,YVJXY,233,2,904,Correct,4,698
4,XFXFX,113,1,1069,Correct,4,716
4,XNXNX,152,1,1389,Correct,4,699
4,FJFKF,81,[2],[1256],Incorrect,4,852
4,CZCYC,14,2,1011,Correct,4,887
4,ZXZCZ,162,2,789,Correct,4,671
4,RYRYJ,225,2,750,Incorrect,4,706
4,FPFZF,222,,,Incorrect,4,902
4,XRXRX,151,1,1054,Correct,4,738
4,YPYEY,182,2,904,Correct,4,834
4,XRXRX,15,1,832,Correct,4,931
4,XZXPX,161,2,677,Correct,4,697
4,CJCJC,9,[1],[1078],Incorrect,4,787
4,ZXZVZ,14,2,928,Correct,4,801
4,VKVKV,151,1,887,Correct,4,705
4,VEVNV,173,2,792,Correct,4,763
4,ZKZVZ,16,2,718,Correct,4,828
4,XVXJX,102,[2],[803],Incorrect,4,936
4,RXRVR,14,2,689,Correct,4,846
4,LRLRL,151,1,716,Correct,4,678
4,YNJNY,223,2,723,Incorrect,4,848
4,NPNJN,222,2,1133,Correct,4,745
4,ZEZEZ,194,1,1002,Correct,4,661
4,ZNZNZ,15,1,757,Correct,4,814
4,YZYZY,152,1,857,Correct,4,900
4,XYXYX,153,1,1065,Correct,4,913
4,ZXZXZ,221,1,703,Correct,4,907
4,LYLZL,222,1,614,Incorrect,4,785
4,CYCNC,162,2,738,Correct,4,842
4,XEXEX,195,1,724,Correct,4,939
4,CVCXC,16,2,876,Correct,4,777
4,ZPZXZ,162,2,1133,Correct,4,848
4,FZFZF,151,1,1091,Correct,4,789
4,RXRJR,112,[2],[804],Incorrect,4,743
4,PRPFP,14,,,Incorrect,4,796
4,PKPEP,186,2,904,Correct,4,830
4,XZXPX,16,2,1240,Correct,4,855
4,JCZVZ,231,2,743,Correct,4,931
4,RXRLR,222,2,822,Correct,4,916
4,VZVZV,151,1,951,Correct,4,917
4,XJXJX,12,[1],[946],Incorrect,4,857
5,I,5,3,11293,New Target,5,651
5,PCPCP,151,1,850,Correct,5,885
5,XYXYX,152,1,1057,Correct,5,917
5,VXVXV,153,3,850,Incorrect,5,661
5,XVXVX,154,1,1169,Correct,5,903
5,ZRZXZ,161,2,809,Correct,5,706
5,FPFZF,162,2,866,Correct,5,723
5,ZYZYZ,151,1,1098,Correct,5,659
5,RVRZR,161,2,930,Correct,5,813
5,CICIC,7,[1],[1556],Incorrect,5,908
5,XLXLX,13,1,1566,Correct,5,757
5,YVYVY,152,1,789,Correct,5,843
5,CJCJC,191,1,747,Correct,5,680
5,FNFCF,16,2,902,Correct,5,772
5,PVPRP,162,2,897,Correct,5,919
5,FZFZF,151,1,953,Correct,5,663
5,NVIVN,223,1,1522,Correct,5,901
5,CVCIC,82,[2],[1320],Incorrect,5,922
5,ZXZXZ,13,1,1032,Correct,5,807
5,FCFZF,161,2,744,Correct,5,684
5,IXRXR,221,1,1011,Correct,5,661
5,ZPZNZ,222,2,702,Correct,5,801
5,VZVZV,151,1,1361,Correct,5,929
5,YRYNY,161,2,827,Correct,5,886
5,VNVPV,162,2,830,Correct,5,851
5,RVRJR,182,2,670,Correct,5,842
5,VRVRV,15,1,1067,Correct,5,759
5,VIVIV,9,[1][1],[1139][1441],Incorrect,5,725
5,CXCVC,14,2,908,Correct,5,921
5,PZPZP,151,1,976,Correct,5,692
5,IXVKV,231,2,438,Correct,5,683
5,YJYCY,173,2,966,Incorrect,5,872
5,VYVYV,15,1,1023,Correct,5,921
5,YVYVY,152,1,1237,Correct,5,931
5,NVNVN,153,1,1226,Correct,5,859
5,XYXVX,161,2,777,Correct,5,876
5,NJNCN,174,2,1037,Correct,5,878
5,NXNYN,16,2,847,Correct,5,701
5,VXVCV,162,2,565,Correct,5,719
5,ZKZKZ,151,1,1271,Correct,5,661
5,XRXYX,161,2,1276,Correct,5,755
5,ZCZXZ,162,2,618,Correct,5,903
5,KVKYI,235,2,1261,Correct,5,659
5,CNCNC,113,1,1014,Correct,5,666
5,RIRIR,10,[1][3],[1268][1539],Correct,5,747
5,VYVXV,14,2,872,Correct,5,745
5,FXIRF,233,2,1380,Correct,5,940
5,PFPFP,113,1,979,Correct,5,797
5,VPVPV,152,1,847,Correct,5,862
5,ZJZJZ,195,1,1191,Correct,5,767
5,ZVZNZ,16,2,670,Correct,5,697
5,YVYXY,162,2,1256,Correct,5,801
5,PRPRP,151,1,1436,Correct,5,773
5,YPYPY,152,1,987,Correct,5,656
5,ZIZPZ,111,[2],[982],Incorrect,5,697
5,NKNXN,14,2,1057,Correct,5,759
5,RZRXR,162,2,925,Correct,5,738
5,RXRXR,151,1,746,Correct,5,855
5,ZJZJZ,196,1,918,Correct,5,673
5,CVCVI,225,2,864,Correct,5,900
5,NKNKN,113,1,1012,Correct,5,854
5,NRNZN,161,2,890,Correct,5,918
5,CNCNC,151,1,1518,Correct,5,695
5,RFRIR,122,,,Incorrect,5,785
6,B,5,3,10061,New Target,6,673
6,YKYZY,161,2,1058,Correct,6,811
6,VCVRV,162,2,910,Correct,6,773
6,XVXVX,151,1,1221,Correct,6,654
6,KZKRK,161,2,842,Correct,6,793
6,ZVZXZ,162,2,763,Correct,6,858
6,RCRNR,163,2,704,Correct,6,814
6,CXCRC,164,2,891,Correct,6,669
6,VNBCV,233,2,1139,Correct,6,687
6,CXCVC,222,2,601,Correct,6,752
6,RFRFR,151,1,854,Correct,6,786
6,XPXRX,161,2,1074,Correct,6,930
6,RYRBR,72,,,Incorrect,6,675
6,ZKZKZ,13,1,947,Correct,6,711
6,FIFRF,171,2,958,Correct,6,919
6,VZVLV,16,2,962,Correct,6,667
6,RPRVR,162,2,1274,Correct,6,906
6,YBYBY,8,[1][3],[1195][1532],Correct,6,901
6,PYPVP,14,2,911,Correct,6,732
6,NININ,192,1,1411,Correct,6,712
6,RNRNR,15,1,1120,Correct,6,867
6,NXNVN,161,2,913,Correct,6,932
6,RNRNR,151,2,924,Incorrect,6,903
6,FRFVF,161,2,1100,Correct,6,821
6,YVYFB,235,2,664,Incorrect,6,740
6,ZRZXZ,222,2,628,Correct,6,728
6,VNVIV,193,2,1025,Incorrect,6,835
6,PXPNP,16,2,699,Correct,6,878
6,ZXZPZ,162,2,495,Correct,6,830
6,VBVBV,9,[1][3],[937][1259],Correct,6,726
6,CXCXC,13,1,1104,Correct,6,750
6,PCPFP,161,2,1263,Correct,6,753
6,KNKNK,151,1,1059,Correct,6,693
6,XIXIX,194,1,783,Correct,6,799
6,CYCYC,15,2,1013,Incorrect,6,792
6,FVFYF,161,2,1375,Correct,6,858
6,YNYRY,162,2,713,Correct,6,918
6,BVPXP,231,2,960,Correct,6,840
6,NXNXN,113,1,947,Correct,6,785
6,FRFRF,152,1,1163,Correct,6,942
6,YVYVY,153,1,722,Correct,6,785
6,ZKZCZ,161,2,939,Correct,6,770
6,VIVXV,175,2,652,Correct,6,772
6,PRBRP,223,1,1333,Correct,6,874
6,YZYBY,102,[2][3],[863][1263],Correct,6,811
6,CXCVC,14,2,811,Correct,6,948
6,FYFYF,151,2,1442,Incorrect,6,785
6,VKVXV,161,2,1174,Correct,6,921
6,ZBZBZ,11,[1][3],[1221][1509],Correct,6,797
6,FPFNF,14,2,1135,Correct,6,829
6,CXCXC,151,1,758,Correct,6,793
6,YCYCY,152,1,739,Correct,6,676
6,FPFPF,153,1,761,Correct,6,763
6,CVCVB,225,1,837,Correct,6,652
6,ZCZCZ,113,1,548,Correct,6,853
6,CZCNC,161,2,787,Correct,6,892
6,KIKFK,176,2,1128,Correct,6,779
6,PXPXP,15,1,736,Correct,6,758
6,RYRYR,152,1,900,Correct,6,932
6,ZRZCZ,161,2,736,Correct,6,842
6,RVRVR,151,1,967,Correct,6,814
6,XYXNX,161,2,1001,Correct,6,685
6,BVKVK,221,2,863,Incorrect,6,941
6,CBCBC,12,[1][3],[1350][1591],Correct,6,864
7,W,5,3,8421,New Target,7,731
7,RKRKR,151,1,1033,Correct,7,865
7,CVCRC,161,2,794,Correct,7,693
7,PKPKP,151,1,693,Correct,7,658
7,FPFPF,152,1,877,Correct,7,820
7,VRVPV,161,2,783,Correct,7,724
7,ZKZYZ,162,1,1063,Incorrect,7,678
7,PVPCP,233,2,807,Correct,7,709
7,KVKVK,113,2,776,Incorrect,7,875
7,YXYVY,161,2,1144,Correct,7,946
7,FNFNF,151,1,1089,Correct,7,742
7,YWYWY,7,[1][3],[1064][1320],Correct,7,919
7,ZYZYZ,13,1,961,Correct,7,744
7,PYPYP,152,1,652,Correct,7,861
7,XRXRX,153,1,1059,Correct,7,947
7,PXPXP,154,1,891,Correct,7,877
7,FCFBF,181,2,447,Correct,7,723
7,FVFVF,15,1,996,Correct,7,708
7,CYCZC,161,2,801,Correct,7,822
7,XZXVX,162,1,754,Incorrect,7,854
7,PFPFP,151,1,996,Correct,7,917
7,RVRLR,161,2,801,Correct,7,753
7,ZBZBZ,192,,,Incorrect,7,798
7,VCVNV,16,2,891,Correct,7,871
7,NWNWN,8,,,Incorrect,7,876
7,XNXVX,14,2,884,Correct,7,861
7,CXCNC,162,2,837,Correct,7,797
7,YVYVW,225,,,Incorrect,7,809
7,VFVFV,113,1,1027,Correct,7,661
7,VFWFV,223,1,834,Correct,7,800
7,CVCFC,222,2,1153,Correct,7,866
7,YBYBY,193,1,1208,Correct,7,804
7,PYPYP,15,1,857,Correct,7,897
7,NKNWN,91,[2],[789],Incorrect,7,744
7,VNVNV,13,1,1325,Correct,7,782
7,RVRVR,152,1,836,Correct,7,738
7,FVFBF,184,1,1289,Correct,7,685
7,VZVKV,16,2,912,Correct,7,687
7,VPVCV,162,2,662,Correct,7,667
7,WYZCZ,231,2,602,Correct,7,872
7,PFPFP,113,1,866,Correct,7,906
7,PRPRP,152,2,1054,Incorrect,7,912
7,NWNWN,10,[1][3],[1310][1565],Correct,7,774
7,VKVCV,14,2,892,Correct,7,770
7,WPYPY,221,1,631,Correct,7,923
7,VBVBV,195,1,1344,Correct,7,843
7,ZKZYZ,16,2,853,Correct,7,663
7,XYXYX,151,1,1098,Correct,7,700
7,FZFXF,161,2,718,Correct,7,870
7,XKXKX,151,1,908,Correct,7,655
7,XPXPX,152,1,759,Correct,7,949
7,FWFWF,11,[2][1],[1059][1362],Incorrect,7,803
7,FNFBF,186,2,913,Correct,7,844
7,ZVZYZ,16,2,1028,Correct,7,731
7,FZFZF,151,1,704,Correct,7,817
7,NPNFW,235,2,1349,Correct,7,911
7,PCPCP,113,1,899,Correct,7,742
7,NKNWN,122,[2][3],[1117][1422],Correct,7,680
8,M,5,3,13071,New Target,8,909
8,VYVNV,161,2,878,Correct,8,755
8,KLKNK,162,2,686,Correct,8,817
8,NRNRN,151,1,825,Correct,8,803
8,VNVFV,161,2,1242,Correct,8,848
8,XNXNM,225,2,955,Incorrect,8,842
8,CXCVC,222,2,1076,Correct,8,889
8,KRKZK,162,2,1058,Correct,8,752
8,NMNFN,71,[1],[1196],Incorrect,8,725
8,ZFZFZ,13,1,1281,Correct,8,838
8,YPYCY,161,2,755,Correct,8,867
8,KCKCK,151,1,856,Correct,8,773
8,VNVNV,152,1,977,Correct,8,674
8,LXLXL,153,1,1517,Correct,8,839
8,CLCLC,154,1,713,Correct,8,692
8,NYNYN,155,1,1101,Correct,8,880
8,LCMYL,233,2,779,Correct,8,726
8,NCNCN,113,1,1154,Correct,8,755
8,ZVZRZ,161,2,871,Correct,8,856
8,ZVZVZ,151,1,770,Correct,8,927
8,PZPVP,161,2,815,Correct,8,665
8,PWPNP,171,2,1362,Correct,8,732
8,KLKCM,235,2,796,Correct,8,907
8,XMXMX,8,[1][3],[961][1024],Correct,8,922
8,PRPXP,14,2,1013,Correct,8,767
8,CVCYC,162,2,1374,Correct,8,851
8,PXPMP,92,,,Incorrect,8,688
8,ZCZLZ,14,2,1169,Correct,8,810
8,XWXWX,192,1,998,Correct,8,795
8,ZCZLZ,16,2,741,Correct,8,770
8,MNCYC,231,2,804,Correct,8,664
8,ZXZXZ,113,1,1186,Correct,8,828
8,YRYNY,161,2,637,Correct,8,735
8,ZLZPZ,162,2,1224,Correct,8,805
8,VZVZV,151,1,795,Correct,8,737
8,MXPXP,221,1,1124,Correct,8,722
8,VWVWV,193,2,1213,Incorrect,8,734
8,PYPYP,16,1,1076,Incorrect,8,760
8,XPXVX,162,2,796,Correct,8,804
8,XLXLX,151,1,1024,Correct,8,879
8,YMYMY,10,[2][3],[929][1378],Incorrect,8,735
8,VYVYV,13,1,980,Correct,8,942
8,PWPZP,174,2,1023,Correct,8,839
8,PYPKP,16,2,811,Correct,8,739
8,NPNXN,162,2,879,Correct,8,839
8,KVKVK,223,2,728,Incorrect,8,946
8,NVNFN,222,2,1121,Correct,8,826
8,XNXNX,151,1,804,Correct,8,869
8,YZYMY,112,[2],[947],Incorrect,8,653
8,PFPFP,13,1,927,Correct,8,808
8,ZWZWZ,195,2,1322,Incorrect,8,884
8,PCPZP,16,2,900,Correct,8,932
8,LRLPL,162,2,777,Incorrect,8,678
8,CZCZC,151,1,1051,Correct,8,835
8,NZNZN,152,1,1108,Correct,8,870
8,CVCXC,161,2,700,Correct,8,888
8,XCXCX,151,1,897,Correct,8,945
8,YWYWY,196,1,691,Correct,8,720
8,NLNLN,15,1,1159,Correct,8,917
8,VNVNV,152,1,780,Correct,8,782
8,ZMZMZ,12,[2][3],[979][1330],Incorrect,8,721
9,S,5,3,16065,New Target,9,917
9,NZNZN,151,1,1105,Correct,9,911
9,KVKZK,161,2,794,Correct,9,748
9,LZLZL,151,1,861,Correct,9,857
9,XLXLX,152,1,852,Correct,9,671
9,ZXZXZ,153,1,1241,Correct,9,831
9,KNKZK,161,2,815,Correct,9,701
9,NRNYN,162,2,841,Correct,9,658
9,CLCVC,163,,,Incorrect,9,716
9,ZCZFZ,164,2,660,Correct,9,774
9,NSNSN,7,[1][3],[1145][1451],Correct,9,841
9,VZVZV,13,1,1208,Correct,9,683
9,NVNCN,161,2,815,Correct,9,696
9,VMVMV,191,1,996,Correct,9,820
9,CVCXC,16,2,854,Correct,9,717
9,ZYZRZ,162,2,744,Correct,9,815
9,XNXZX,163,2,813,Correct,9,762
9,PXPXP,151,1,715,Correct,9,933
9,VCVSV,82,[2][3],[1156][1427],Correct,9,764
9,PRPCP,14,2,850,Correct,9,739
9,ZMZMZ,192,2,1344,Correct,9,893
9,ZFZFZ,15,1,830,Correct,9,848
9,FCFCF,152,1,623,Correct,9,812
9,YLYZY,161,2,709,Correct,9,869
9,KNKVK,162,2,732,Correct,9,802
9,SFPCP,231,2,997,Correct,9,759
9,RPRPR,113,1,1358,Correct,9,870
9,XMXMX,193,1,929,Correct,9,725
9,KFKFK,15,1,908,Correct,9,868
9,VSVSV,9,[1][3],[1299][1572],Correct,9,749
9,YVSVY,223,1,1314,Correct,9,653
9,VPVPV,113,1,784,Correct,9,853
9,XZXZX,152,1,715,Correct,9,722
9,KZKXK,161,2,723,Correct,9,698
9,RFRPR,162,2,710,Correct,9,928
9,NVNVS,225,2,832,Incorrect,9,730
9,ZXZXZ,113,1,848,Correct,9,851
9,SRVRV,221,2,738,Incorrect,9,875
9,YCYCY,113,1,790,Correct,9,827
9,KMKZK,174,2,677,Correct,9,939
9,FZSVF,233,2,990,Correct,9,815
9,VYVYV,113,1,744,Correct,9,837
9,LVLVL,152,1,1119,Correct,9,768
9,YFYFY,153,1,635,Correct,9,756
9,NXNSN,102,[2][3],[1017][1274],Correct,9,805
9,FNFCF,14,2,727,Correct,9,708
9,KVKVK,151,,,Incorrect,9,899
9,VZVCV,161,2,850,Correct,9,868
9,ZYZMZ,185,2,704,Correct,9,925
9,VXVZV,16,2,536,Correct,9,693
9,VPVPV,151,1,707,Correct,9,878
9,RVRNS,235,2,623,Correct,9,727
9,YZYZY,113,1,781,Correct,9,770
9,ZSZSZ,11,[1][3],[1227][1499],Correct,9,818
9,FRFRF,13,1,945,Correct,9,902
9,ZMZMZ,196,1,652,Correct,9,857
9,NZNXN,16,2,853,Correct,9,732
9,LSLFL,121,,,Incorrect,9,886
10,Q,5,3,8005,New Target,10,804
10,ZVZPZ,161,2,943,Correct,10,903
10,RZRZR,151,1,752,Correct,10,814
10,ZFZFZ,152,1,1158,Correct,10,741
10,RZRZR,153,1,631,Correct,10,898
10,PZPXP,161,2,821,Correct,10,765
10,VFQPV,233,2,588,Correct,10,823
10,ZPZRZ,222,2,666,Correct,10,673
10,CYCVC,162,2,1080,Correct,10,723
10,CPCPC,151,1,1010,Correct,10,852
10,YZYQY,72,[2][3],[1164][1388],Correct,10,901
10,FVFXF,14,2,913,Correct,10,880
10,YNYNQ,225,1,1149,Correct,10,891
10,ZYZYZ,113,1,1063,Correct,10,713
10,FRFSF,181,2,934,Incorrect,10,700
10,XNXPX,16,2,628,Correct,10,789
10,NXNXN,151,1,774,Correct,10,934
10,PVPZP,161,2,792,Correct,10,851
10,XVXPX,162,2,585,Correct,10,844
10,FXFVF,163,2,548,Correct,10,903
10,NSNKN,172,2,525,Incorrect,10,858
10,VXVNV,16,2,520,Correct,10,901
10,XZXZX,151,1,712,Correct,10,761
10,VQVQV,8,[1][3],[1257][1528],Correct,10,751
10,ZYZPZ,14,2,941,Correct,10,946
10,PZPSP,183,2,723,Correct,10,693
10,YVYVY,15,1,702,Correct,10,703
10,NCNQN,92,[2][3],[1310][1565],Correct,10,694
10,FCFVF,14,2,1032,Correct,10,786
10,ZFZFZ,151,1,836,Correct,10,920
10,NSNSN,194,1,1011,Correct,10,836
10,YPYFY,16,2,622,Correct,10,784
10,ZKZKZ,151,1,769,Correct,10,672
10,QZRCR,231,2,1095,Correct,10,775
10,YPYVY,222,2,690,Correct,10,761
10,ZNZNZ,151,1,664,Correct,10,906
10,VQVQV,10,[1][3],[1276][1531],Correct,10,654
10,RVRZR,14,2,653,Correct,10,723
10,KRKSK,185,2,567,Correct,10,717
10,NPNPN,15,1,739,Correct,10,858
10,YPYPY,152,1,694,Correct,10,904
10,VCVYV,161,2,642,Correct,10,715
10,FPFNF,162,2,863,Correct,10,654
10,QVXVX,221,2,1187,Incorrect,10,798
10,ZVZRZ,222,2,475,Correct,10,720
10,LFLFL,151,1,628,Correct,10,937
10,VLVLV,152,1,924,Correct,10,867
10,KXQXK,223,1,976,Correct,10,737
10,YQYQY,11,[1][3],[1168][1423],Correct,10,864
10,YCYCY,13,1,958,Correct,10,786
10,PZPYP,161,2,770,Correct,10,668
10,LPLFL,162,2,851,Correct,10,859
10,VSVSV,196,1,786,Correct,10,935
10,VFVYQ,235,2,390,Correct,10,857
10,CZCXC,222,2,858,Correct,10,784
10,PVPCP,162,2,587,Correct,10,728
10,CXCXC,151,2,454,Incorrect,10,886
10,NZNZN,152,1,788,Correct,10,849
10,YPYCY,161,2,555,Correct,10,700
10,ZQZQZ,12,[1][3],[1226][1512],Correct,10,808
11,T,5,3,3409,New Target,11,782
11,KFKFK,151,1,,Correct,11,831
11,LZLZL,152,1,667,Correct,11,835
11,PFPVP,161,1,704,Incorrect,11,898
11,FRFPF,162,2,789,Correct,11,876
11,FZFZF,151,1,721,Correct,11,949
11,VTVTV,7,[2][3],[324][885],Incorrect,11,777
11,KYKCK,14,2,842,Correct,11,706
11,VPVPV,151,1,683,Correct,11,783
11,XQXQX,191,,,Incorrect,11,651
11,PZPYP,16,2,989,Correct,11,935
11,KXKLK,162,2,1100,Correct,11,689
11,TCNCN,221,1,756,Correct,11,823
11,PZPNP,222,2,788,Correct,11,921
11,RCRPR,162,2,760,Correct,11,906
11,PZPRT,235,2,907,Correct,11,927
11,XFXVX,222,2,599,Correct,11,940
11,LTLVL,81,[1][3],[1000][1478],Incorrect,11,733
11,ZCZPZ,14,2,749,Correct,11,716
11,NCNQN,182,2,883,Correct,11,771
11,XZXNX,16,2,900,Correct,11,808
11,ZPZPZ,151,1,935,Correct,11,714
11,CFCFC,152,1,1109,Correct,11,845
11,VXTRV,233,2,833,Correct,11,672
11,CFCVC,222,2,886,Correct,11,803
11,PYPYP,151,1,736,Correct,11,947
11,FQFYF,173,2,612,Correct,11,871
11,CNCFC,16,2,668,Correct,11,872
11,PTPTP,9,[1][3],[778][1161],Correct,11,746
11,ZCZCZ,13,1,875,Correct,11,738
11,KZKZK,152,2,817,Incorrect,11,711
11,RLRVR,161,2,676,Correct,11,876
11,ZRZKZ,162,2,640,Correct,11,842
11,KLKLT,225,1,761,Correct,11,747
11,ZQZQZ,194,1,1473,Correct,11,767
11,VZVZV,15,1,873,Correct,11,929
11,RVRZR,161,2,809,Correct,11,854
11,ZPZCZ,162,2,682,Correct,11,865
11,VYVYV,151,1,1239,Correct,11,691
11,RVRVR,152,1,681,Correct,11,824
11,PTPTP,10,[1][3],[1118][1373],Correct,11,837
11,PXPXP,13,1,1016,Correct,11,917
11,KCKCK,152,1,769,Correct,11,817
11,YVYVY,153,1,1196,Correct,11,676
11,CYCYC,154,1,888,Correct,11,663
11,XCXCX,155,1,774,Correct,11,884
11,CYCQC,185,2,754,Correct,11,677
11,KCKNK,16,1,696,Incorrect,11,836
11,VPVPV,151,1,1475,Correct,11,773
11,TXFZF,231,2,761,Correct,11,827
11,NYNVN,222,2,668,Correct,11,868
11,VQVXV,176,2,629,Correct,11,787
11,ZRZRZ,15,2,612,Incorrect,11,786
11,VTVZV,111,[2],[984],Incorrect,11,787
11,PXPVP,14,2,799,Correct,11,867
11,FVFVF,151,1,832,Correct,11,922
11,VRVLV,161,2,787,Correct,11,803
11,YCYCY,151,1,732,Correct,11,700
11,XZTZX,223,2,711,Incorrect,11,723
11,VTVTV,12,[1][3],[999][1240],Correct,11,679
12,O,5,3,11579,New Target,12,854
12,VXVLV,161,2,954,Correct,12,731
12,KVKCK,162,2,874,Correct,12,781
12,VLVLV,151,1,986,Correct,12,813
12,ZCZVZ,161,2,728,Correct,12,812
12,KFKFK,151,1,787,Correct,12,680
12,XKXKX,152,1,835,Correct,12,899
12,YXYXY,153,1,694,Correct,12,738
12,FVFVF,154,2,945,Incorrect,12,836
12,PVPOP,72,[2][3],[935][1208],Correct,12,823
12,ZXZYZ,14,2,862,Correct,12,858
12,PXPVP,162,2,685,Correct,12,874
12,ZTZTZ,191,1,1210,Correct,12,689
12,CVCKC,16,2,707,Correct,12,662
12,CKCKC,151,1,972,Correct,12,762
12,NPNPN,152,1,792,Correct,12,950
12,ZRZNZ,161,2,815,Correct,12,737
12,OZCZC,221,1,866,Correct,12,835
12,LFLFL,113,1,883,Correct,12,849
12,CXCXC,152,2,453,Incorrect,12,772
12,KPKPK,153,1,756,Correct,12,890
12,FRFKF,161,2,743,Correct,12,898
12,FOFOF,8,[1][3],[979][1234],Correct,12,824
12,ZFZFZ,13,1,843,Correct,12,779
12,LKLZO,235,2,581,Correct,12,677
12,KLKZK,222,2,660,Correct,12,788
12,YXYCY,162,2,688,Correct,12,752
12,LOLOL,9,[1][3],[927][1200],Correct,12,728
12,XLXLX,13,2,1091,Incorrect,12,935
12,XVXVX,152,1,1161,Correct,12,886
12,FTFTF,192,1,925,Correct,12,848
12,OXNZN,231,2,827,Correct,12,842
12,CZCZC,113,1,1058,Correct,12,712
12,LZLZL,152,1,731,Correct,12,869
12,VLVPV,161,2,605,Correct,12,947
12,VYVYO,225,2,918,Incorrect,12,885
12,XKXKX,113,2,735,Incorrect,12,930
12,RTRTR,193,1,946,Correct,12,855
12,KVKCK,16,2,897,Correct,12,905
12,ROROR,101,[1][3],[1122][1393],Correct,12,892
12,PRPRP,13,1,995,Correct,12,741
12,LYLVL,161,2,674,Correct,12,714
12,PLPLP,151,1,807,Correct,12,939
12,CTCTC,194,1,749,Correct,12,705
12,XZXYX,16,2,630,Correct,12,670
12,NKNKN,151,1,1138,Correct,12,767
12,VLVZV,161,2,394,Correct,12,679
12,YOYOY,11,[1][3],[1060][1349],Correct,12,761
12,PZOZP,223,1,1563,Correct,12,787
12,FYFYF,113,1,1054,Correct,12,881
12,ZXZVZ,161,2,747,Correct,12,762
12,VKVZV,162,2,677,Correct,12,732
12,ZTZTZ,195,1,818,Correct,12,698
12,LKLZL,16,2,507,Correct,12,734
12,KCKVK,162,1,972,Incorrect,12,758
12,PXPKP,163,2,668,Correct,12,700
12,KCOZK,233,2,736,Correct,12,925
12,FKFKF,113,1,714,Correct,12,732
12,CTCRC,176,2,548,Correct,12,746
12,NXNXN,15,2,868,Incorrect,12,737
12,KXKVK,161,2,916,Correct,12,841
12,CPCOC,122,[2][3],[1030][1382],Correct,12,920
13,H,5,3,27700,New Target,13,945
13,VFVNV,151,1,1420,Incorrect,13,734
13,YVYVY,152,1,1031,Correct,13,846
13,XVXVX,153,1,832,Correct,13,841
13,NRNXN,161,2,641,Correct,13,867
13,PZPKP,162,2,743,Correct,13,920
13,HLVLV,221,1,1021,Correct,13,874
13,CXCZC,222,2,442,Correct,13,826
13,LHLYL,71,[1][3],[923][1450],Incorrect,13,840
13,YKYFY,14,2,1106,Correct,13,752
13,YOYRY,171,2,747,Correct,13,719
13,ZKZYZ,16,2,757,Correct,13,702
13,RZRZR,151,1,764,Correct,13,797
13,NFNYN,161,2,841,Correct,13,669
13,KVKFK,162,2,587,Correct,13,782
13,XFXYX,163,2,501,Correct,13,758
13,LKLVL,164,2,474,Correct,13,741
13,NLNLN,151,1,955,Correct,13,738
13,XCXOX,182,2,868,Correct,13,928
13,FXFXF,15,2,695,Incorrect,13,841
13,VHVHV,8,[1][3],[1111][1399],Correct,13,731
13,PVPVP,13,1,894,Correct,13,691
13,CRCXC,161,2,664,Correct,13,901
13,NXNXN,151,1,1044,Correct,13,809
13,XRXRX,152,1,862,Correct,13,782
13,YFYXY,161,2,1375,Correct,13,781
13,ZOZOZ,193,1,1164,Correct,13,878
13,RZRZR,15,1,870,Correct,13,741
13,FKFKF,152,2,1035,Incorrect,13,678
13,PFPFP,153,1,882,Correct,13,912
13,XYXHX,92,[2][3],[1036][1325],Correct,13,721
13,RZRKR,14,2,880,Correct,13,785
13,FLFLH,225,1,1135,Correct,13,845
13,KRKRK,113,1,838,Correct,13,846
13,ZVZNZ,161,1,630,Incorrect,13,862
13,ZOZOZ,194,1,789,Correct,13,737
13,FZFZF,15,1,758,Correct,13,861
13,FHFKF,101,[2][3],[1325][1597],Correct,13,784
13,ZXHLZ,233,2,1111,Correct,13,915
13,FKFXF,222,2,939,Correct,13,931
13,CFCYC,162,2,1228,Correct,13,852
13,ZXZVZ,163,2,575,Correct,13,777
13,KCKOK,185,2,650,Correct,13,850
13,ZXZVH,235,2,774,Correct,13,788
13,CKCKC,113,2,576,Incorrect,13,665
13,ZXZCZ,161,2,977,Correct,13,663
13,YVYVY,151,1,574,Correct,13,869
13,RVHVR,223,2,638,Incorrect,13,697
13,ZRZRZ,113,1,843,Correct,13,779
13,ZHZHZ,11,[1][3],[1150][1422],Correct,13,731
13,VZVZV,13,1,890,Correct,13,721
13,HZVRV,231,1,844,Incorrect,13,801
13,FVFVF,113,1,898,Correct,13,744
13,RNRCR,161,1,785,Incorrect,13,732
13,COCOC,196,1,1131,Correct,13,741
13,VNVXV,16,2,828,Correct,13,914
13,XHXHX,12,[1][3],[1043][1329],Correct,13,785
14,G,5,3,25515,New Target,14,886
14,FZFZF,151,1,1251,Correct,14,684
14,RPRVR,161,2,753,Correct,14,894
14,XCXCX,151,1,692,Correct,14,893
14,YXYXY,152,2,286,Incorrect,14,777
14,KZKZK,153,1,853,Correct,14,802
14,RYRKR,161,2,852,Correct,14,903
14,FYFNF,162,2,877,Correct,14,934
14,VKVKV,151,2,606,Incorrect,14,886
14,KPGPK,223,,,Incorrect,14,748
14,YNYNY,113,1,990,Correct,14,889
14,VYVYV,152,1,816,Correct,14,670
14,YCYXY,161,2,688,Correct,14,946
14,LKLGL,72,[1],[1115],Incorrect,14,883
14,VXVXV,13,,,Incorrect,14,731
14,KCKVK,161,2,849,Correct,14,743
14,YKYKY,151,1,889,Correct,14,707
14,RHRXR,171,2,759,Correct,14,896
14,FVFCF,16,2,1121,Correct,14,654
14,YXYGY,82,[2][3],[1193][1464],Correct,14,747
14,CLCLC,13,1,1028,Correct,14,736
14,ZXZCZ,161,2,1255,Correct,14,944
14,VLVFV,162,2,683,Correct,14,816
14,CPCPG,225,1,781,Correct,14,920
14,KHKNK,172,2,805,Correct,14,713
14,ZKZVZ,16,2,778,Correct,14,819
14,YKYLY,162,2,611,Correct,14,696
14,CNCNC,151,1,893,Correct,14,799
14,PGPGP,9,[1][3],[1214][1453],Correct,14,716
14,VPVPV,13,1,883,Correct,14,905
14,FXGRF,233,2,865,Correct,14,881
14,CYCVC,222,2,916,Correct,14,814
14,FNFNF,151,1,1010,Correct,14,894
14,KFKCK,161,2,944,Correct,14,678
14,ZFZHZ,183,2,949,Correct,14,672
14,NXNXN,15,1,856,Correct,14,757
14,FNFNF,152,1,941,Correct,14,680
14,LXLNG,235,2,483,Correct,14,699
14,XKXVX,222,2,1201,Correct,14,900
14,ZHZHZ,194,1,810,Correct,14,712
14,PFPFP,15,1,772,Correct,14,669
14,ZYZYZ,152,2,918,Incorrect,14,878
14,XPXVX,161,2,1238,Correct,14,713
14,YCYCY,151,1,942,Correct,14,758
14,RGRGR,10,[1][3],[920][1226],Correct,14,712
14,VRVRV,13,1,863,Correct,14,807
14,PKPNP,161,2,765,Correct,14,867
14,XGXGX,11,[1][3],[1013][1331],Correct,14,934
14,GZYVY,231,2,794,Correct,14,785
14,VCVNV,222,2,737,Correct,14,776
14,VHVHV,195,1,854,Correct,14,848
14,LXLNL,16,2,683,Correct,14,753
14,GKPKP,221,1,767,Correct,14,900
14,XRXPX,222,2,741,Correct,14,686
14,XNXNX,151,1,848,Correct,14,718
14,KHKNK,176,2,1304,Incorrect,14,685
14,RZRZR,15,1,750,Correct,14,690
14,CGCFC,121,[2],[1548],Incorrect,14,945
15,A,5,3,13335,New Target,15,695
15,XRXFX,161,2,822,Correct,15,765
15,RXRKR,162,2,601,Correct,15,829
15,YRYRY,151,1,1366,Correct,15,850
15,XPXPX,152,2,773,Incorrect,15,745
15,RPRPR,153,1,925,Correct,15,727
15,NCNCN,154,1,719,Correct,15,721
15,RXRZR,161,2,727,Correct,15,824
15,NANAN,7,[1][3],[1152][1373],Correct,15,909
15,KCKYK,14,2,816,Correct,15,859
15,XKXFX,162,2,807,Correct,15,826
15,ZLZKZ,163,2,631,Correct,15,895
15,VCVZV,164,2,784,Correct,15,736
15,XCXVX,165,2,442,Correct,15,670
15,LKLZA,235,2,579,Correct,15,669
15,NCNCN,113,1,727,Correct,15,650
15,YGYGY,191,1,1185,Correct,15,664
15,VLVLV,15,1,692,Correct,15,893
15,XRXRX,152,1,588,Correct,15,780
15,KAKPK,81,[2][3],[1335][1592],Correct,15,862
15,YZAZY,233,1,1511,Incorrect,15,822
15,CFCFC,113,1,735,Correct,15,852
15,VNVLV,161,2,713,Correct,15,677
15,KPKVK,162,2,726,Correct,15,654
15,NCNRN,163,2,640,Correct,15,788
15,FGFGF,192,1,1103,Correct,15,753
15,RCRYR,16,2,824,Correct,15,742
15,KRKCK,162,2,560,Correct,15,663
15,CRCRC,151,1,978,Correct,15,663
15,XPAPX,223,2,1135,Incorrect,15,905
15,LPLXL,222,1,1416,Incorrect,15,746
15,CGCVC,173,2,1139,Correct,15,917
15,FKFZF,16,2,762,Correct,15,786
15,CACAC,9,[1][3],[953][1274],Correct,15,879
15,XCXCX,13,1,1522,Correct,15,903
15,AXRXR,221,2,1494,Incorrect,15,946
15,NKNRN,222,1,1583,Incorrect,15,771
15,KNKFK,162,2,729,Correct,15,660
15,KAKAK,10,[1][3],[1095][1351],Correct,15,779
15,ZCZRZ,14,2,650,Correct,15,904
15,RPRPR,151,1,796,Correct,15,916
15,NCNCN,152,,,Incorrect,15,915
15,RYRGR,184,2,695,Correct,15,820
15,VPVPV,15,1,718,Correct,15,934
15,RCRCA,225,1,730,Correct,15,680
15,KXKPK,222,2,677,Correct,15,686
15,NPNPN,151,1,835,Correct,15,677
15,YCYCY,152,1,863,Correct,15,950
15,PXPAP,112,[2][3],[1036][1323],Correct,15,727
15,ZCZNZ,14,1,1019,Incorrect,15,781
15,KYKGK,185,2,694,Correct,15,839
15,ANLPL,231,2,939,Correct,15,934
15,CXCPC,222,2,687,Correct,15,687
15,YRYRY,151,1,837,Correct,15,871
15,LGLGL,196,1,676,Correct,15,869
15,VYVLV,16,2,864,Correct,15,654
15,KVKVK,151,2,644,Incorrect,15,784
15,RKRKR,152,1,735,Correct,15,863
15,VXVXV,153,1,747,Correct,15,703
15,XAXAX,12,[2][3],[943][1232],Incorrect,15,668
