Trial No,Stimulus,Trigger,Response,Response Time(ms),Correct,Block,Fixation Duration
Practice
OT Practice
1,SKSKS,15,,,False,0,853
1,DLDUD,16,2,1163,Correct,0,895
1,PDPGP,16,1,802,False,0,875
1,MWMWM,15,1,1229,Correct,0,666
1,FTFTF,15,1,919,Correct,0,657
1,AXAMA,16,2,812,Correct,0,754
1,RYRGR,16,2,737,Correct,0,848
1,DODOD,15,1,694,Correct,0,868
1,QTQAQ,16,2,1050,Correct,0,911
1,YEYEY,15,1,667,Correct,0,690
2,GYGDG,16,2,746,Correct,0,853
2,SWSWS,15,1,549,Correct,0,733
2,HLHUH,16,2,789,Correct,0,815
2,DEDED,15,1,610,Correct,0,660
2,ZPZOZ,16,2,676,Correct,0,668
2,ATATA,15,1,589,Correct,0,881
2,QOQOQ,15,1,602,Correct,0,794
2,FPFGF,16,2,693,Correct,0,892
2,TRTET,16,2,653,Correct,0,885
2,DQDQD,15,1,651,Correct,0,747
4,PLPLP,15,1,646,Correct,0,950
4,ATAIA,16,2,646,Correct,0,708
4,SKSGS,16,2,799,Correct,0,850
4,ZYZYZ,15,1,755,Correct,0,881
4,QSQSQ,15,1,725,Correct,0,938
4,TZTDT,16,2,644,Correct,0,659
4,JYJGJ,16,2,834,Correct,0,719
4,DYDYD,15,1,864,Correct,0,924
4,LTLCL,16,2,671,Correct,0,944
4,FQFEF,16,2,801,Correct,0,658
1,SKSKS,15,1,633,Correct,0,714
1,DLDUD,16,2,722,Correct,0,921
1,PDPGP,16,2,870,Correct,0,922
1,MWMWM,15,1,797,Correct,0,688
1,FTFTF,15,1,629,Correct,0,759
1,AXAMA,16,2,703,Correct,0,903
1,RYRGR,16,2,792,Correct,0,792
1,DODOD,15,1,680,Correct,0,916
1,QTQAQ,16,2,595,Correct,0,802
1,YEYEY,15,2,560,False,0,868
2,GYGDG,16,2,850,Correct,0,737
2,SWSWS,15,1,544,Correct,0,905
2,HLHUH,16,2,803,Correct,0,679
2,DEDED,15,1,701,Correct,0,688
2,ZPZOZ,16,2,628,Correct,0,870
2,ATATA,15,1,703,Correct,0,906
2,QOQOQ,15,1,598,Correct,0,875
2,FPFGF,16,2,758,Correct,0,697
2,TRTET,16,2,714,Correct,0,862
2,DQDQD,15,1,806,Correct,0,685
4,PLPLP,15,1,662,Correct,0,927
4,ATAIA,16,2,600,Correct,0,663
4,SKSGS,16,2,610,Correct,0,894
4,ZYZYZ,15,1,514,Correct,0,686
4,QSQSQ,15,1,568,Correct,0,651
4,TZTDT,16,2,660,Correct,0,839
4,JYJGJ,16,2,691,Correct,0,752
4,DYDYD,15,1,634,Correct,0,875
4,LTLCL,16,2,656,Correct,0,910
4,FQFEF,16,2,651,Correct,0,858
DT Practice
1,TKTKT,15,1,850,Correct,0,677
1,SLSUS,16,2,970,Correct,0,716
1,VZVGV,7,[2][3],[1289][1465],Correct,0,822
1,XWXZX,7,[2][3],[828][1084],Correct,0,664
1,ATATA,15,1,1274,Correct,0,766
1,HXZMH,16,,,False,0,696
1,TZTZT,7,[1][3],[1111][1303],Correct,0,864
1,UOUOU,15,1,792,Correct,0,681
1,ZTWAW,16,2,954,Correct,0,910
1,RZRER,7,[2][3],[1127][1335],Correct,0,708
2,JYJDJ,16,2,897,Correct,0,870
2,DWDWD,15,1,915,Correct,0,793
2,GNGNG,7,[1][3],[867][995],Correct,0,730
2,NEZEZ,16,1,1202,Correct,0,685
2,RNROR,7,[2][3],[940][1132],Correct,0,816
2,QTQNQ,7,[2],[1012],False,0,868
2,HOHON,15,1,1258,Correct,0,701
2,KPKGK,16,2,1035,Correct,0,948
2,DRDED,16,2,849,Correct,0,907
2,LNLNL,7,[1][3],[929][1169],Correct,0,769
4,GLGLG,15,2,1226,False,0,840
4,DTDID,16,2,1068,Correct,0,909
4,SMSGS,16,2,935,Correct,0,790
4,ZFZYZ,7,[2][3],[1029][1221],Correct,0,795
4,TSTFT,7,[2][3],[817][1057],Correct,0,895
4,OFOFO,7,[1][3],[681][841],Correct,0,736
4,WYFGW,16,2,1325,Correct,0,677
4,WYWYW,15,1,948,Correct,0,708
4,MFMCM,7,[2][3],[983][1176],Correct,0,769
4,HQHEH,16,2,1007,Correct,0,935
Trials
1,D,5,3,6835,New Target,1,816
1,ZNZYZ,161,2,956,Correct,1,661
1,FZFZF,151,1,1396,Correct,1,662
1,RKRKR,152,1,827,Correct,1,687
1,RXRNR,161,2,757,Correct,1,747
1,CNCFC,162,2,1011,Correct,1,700
1,PDPDP,7,[1][3],[737][849],Correct,1,715
1,CPCFC,14,2,920,Correct,1,826
1,VLVNV,162,2,751,Correct,1,717
1,KFKFK,151,1,714,Correct,1,779
1,ZNZNZ,152,1,743,Correct,1,722
1,KCKPD,235,2,909,Correct,1,902
1,ZKZFZ,222,2,753,Correct,1,893
1,NRNZN,162,2,822,Correct,1,921
1,KXKRK,163,2,906,Correct,1,932
1,YPYZY,164,2,860,Correct,1,844
1,FKDKF,223,2,752,Incorrect,1,905
1,RPRPR,113,1,696,Correct,1,861
1,VRVKV,161,2,872,Correct,1,733
1,RFRPR,162,2,912,Correct,1,794
1,KVKVK,151,1,855,Correct,1,787
1,YKYVY,161,2,964,Correct,1,688
1,VDVDV,8,[1][3],[695][855],Correct,1,798
1,DVZVZ,221,1,853,Correct,1,887
1,YFYFY,113,1,665,Correct,1,866
1,ZYZYZ,152,1,553,Correct,1,784
1,VLVXV,161,2,550,Correct,1,906
1,DPXZX,231,2,652,Correct,1,710
1,RYRYR,113,1,828,Correct,1,785
1,PDPNP,91,[2][3],[960][1088],Correct,1,939
1,KXKXK,13,1,780,Correct,1,762
1,ZYZYZ,152,1,867,Correct,1,924
1,VKVKV,153,1,666,Correct,1,810
1,YZYZY,154,1,643,Correct,1,899
1,NLNZN,161,2,725,Correct,1,753
1,ZNDYZ,233,2,866,Correct,1,751
1,PCPXP,222,2,748,Correct,1,710
1,ZVZFZ,162,2,660,Correct,1,940
1,RCRZR,163,2,655,Correct,1,879
1,LRLRL,151,1,637,Correct,1,875
1,ZDZDZ,10,[1][3],[737][849],Correct,1,776
1,RNRZR,14,2,668,Correct,1,804
1,CXCYC,162,2,758,Correct,1,866
1,RCRLR,163,2,654,Correct,1,938
1,FRFRF,151,1,602,Correct,1,913
1,XFXFX,152,1,813,Correct,1,754
1,RPRLR,161,2,740,Correct,1,884
1,YXYRY,162,2,1085,Correct,1,921
1,FYFYF,151,1,604,Correct,1,818
1,YZYVY,161,2,699,Correct,1,836
1,YKYKY,151,1,715,Correct,1,701
1,XRXRX,152,1,676,Correct,1,940
1,XVXZX,161,2,728,Correct,1,695
1,PDPDP,11,[1][3],[996][1092],Correct,1,833
1,ZFZFZ,13,1,826,Correct,1,787
1,PXPXP,152,1,1289,Correct,1,658
1,LYLYL,153,1,599,Correct,1,671
1,NKNKD,225,1,540,Correct,1,687
1,ZNZNZ,113,1,571,Correct,1,949
1,PYPZP,161,2,702,Correct,1,787
1,XPXPX,151,1,775,Correct,1,927
1,VLVLV,152,1,577,Correct,1,850
1,PKPXP,161,2,770,Correct,1,852
1,FZFZF,151,1,703,Correct,1,687
1,LDLDL,12,[1][3],[679][791],Correct,1,938
2,U,5,3,2100,New Target,2,808
2,ZVZFZ,161,2,719,Correct,2,925
2,FZFZF,151,1,648,Correct,2,861
2,RFRFR,152,1,633,Correct,2,781
2,NZNKN,161,2,696,Correct,2,763
2,FZFNF,162,2,857,Correct,2,704
2,RXRXR,151,1,562,Correct,2,740
2,KRKYK,161,2,632,Correct,2,702
2,NZNPN,162,2,680,Correct,2,761
2,XPXPX,151,1,596,Correct,2,851
2,CUCUC,7,[1][3],[770][881],Correct,2,948
2,RFRFR,13,1,700,Correct,2,845
2,VYVXV,161,2,710,Correct,2,854
2,VDVDV,191,1,973,Correct,2,914
2,ZKZRZ,15,2,910,Correct,2,881
2,XCXCX,151,1,689,Correct,2,860
2,CNCUC,82,[2],[949],Incorrect,2,777
2,RCRCR,13,1,787,Correct,2,808
2,ZPZXZ,161,2,673,Correct,2,742
2,FKFYF,162,2,799,Correct,2,842
2,ZFZYZ,163,2,755,Correct,2,943
2,PXPXP,151,1,751,Correct,2,812
2,URCKC,231,2,871,Correct,2,807
2,PCPCP,113,1,660,Correct,2,650
2,XNXNX,152,1,1112,Correct,2,693
2,RCRZR,161,2,787,Correct,2,906
2,XVXVX,151,1,702,Correct,2,790
2,NRNRN,152,1,786,Correct,2,697
2,FPFPF,225,1,687,Correct,2,681
2,XVXFX,222,2,662,Correct,2,949
2,PRPRP,151,1,679,Correct,2,780
2,FYFCF,161,2,696,Correct,2,753
2,XUXFX,91,[2][3],[796][908],Correct,2,711
2,CYCVC,14,2,1095,Correct,2,852
2,VDVKV,172,2,1089,Correct,2,857
2,YCYCY,15,1,627,Correct,2,713
2,NKNLN,161,2,630,Correct,2,682
2,XPUKX,233,2,616,Correct,2,758
2,ZPZPZ,113,1,629,Correct,2,834
2,KRKRK,152,1,837,Correct,2,828
2,XKXKX,153,1,701,Correct,2,840
2,YUYVY,101,[2][3],[1005][1117],Correct,2,666
2,XKXFU,235,2,1262,Correct,2,899
2,NFNFN,113,1,679,Correct,2,756
2,KDKDK,193,1,660,Correct,2,801
2,XYXKX,16,2,1074,Correct,2,827
2,YZUZY,223,1,1350,Correct,2,661
2,KFKVK,222,2,921,Correct,2,864
2,LYLYL,151,1,813,Correct,2,772
2,CXCDC,184,2,645,Incorrect,2,804
2,XZXNX,16,2,792,Correct,2,726
2,PXPXP,151,1,1055,Correct,2,855
2,ZRZYZ,161,2,713,Correct,2,905
2,PUPYP,111,[2][3],[1389][1517],Correct,2,666
2,RNRNR,14,1,672,Correct,2,888
2,KDKDK,195,1,757,Correct,2,657
2,KNKNK,15,1,1111,Correct,2,650
2,PRPKP,161,2,745,Correct,2,723
2,UNYNY,221,1,979,Correct,2,891
2,NYNYN,113,1,821,Correct,2,793
2,YXYXY,152,1,681,Incorrect,2,886
2,RDRDR,196,1,695,Correct,2,825
2,FCFCF,15,1,640,Correct,2,903
2,ZKZKZ,152,1,588,Correct,2,884
2,ZUZUZ,12,[1][3],[765][861],Correct,2,808
3,E,5,3,2329,New Target,3,921
3,YZYZY,151,1,719,Correct,3,660
3,VFVNV,161,2,716,Correct,3,850
3,KYKYK,151,1,708,Correct,3,880
3,NKNKN,152,1,620,Correct,3,926
3,XVXNX,161,2,733,Correct,3,821
3,RERFR,71,[2][3],[858][1066],Correct,3,936
3,XNXNX,13,1,599,Correct,3,832
3,NXNXN,152,1,878,Correct,3,658
3,ZLZNZ,161,2,660,Correct,3,811
3,CUCNC,171,2,823,Correct,3,665
3,FYFRF,16,2,1264,Correct,3,825
3,ZLZLZ,151,1,757,Correct,3,825
3,YZYZY,152,1,679,Correct,3,661
3,CYCYC,153,1,720,Correct,3,947
3,VUVUV,192,1,779,Correct,3,852
3,PXPRP,16,2,711,Correct,3,801
3,YPYPY,151,1,688,Correct,3,880
3,CECEC,8,[1][3],[776][888],Correct,3,947
3,VNENV,223,2,1402,Incorrect,3,749
3,KRKFK,222,2,867,Correct,3,669
3,XLXLE,225,1,831,Correct,3,659
3,RFRUR,183,2,836,Correct,3,898
3,XRXLX,16,2,764,Correct,3,809
3,NZNPN,162,2,742,Correct,3,763
3,XZXZX,151,1,696,Correct,3,690
3,FZFZF,152,1,771,Correct,3,892
3,PFPFP,153,1,924,Correct,3,868
3,YZYXY,161,2,773,Correct,3,697
3,KEKEK,9,[1][3],[710][822],Correct,3,827
3,CXCPC,14,2,715,Correct,3,931
3,VXVXV,151,1,633,Correct,3,802
3,NUNZN,174,2,729,Correct,3,799
3,RKRVR,16,2,820,Correct,3,816
3,XRXRX,151,1,681,Correct,3,900
3,ERNFN,231,2,683,Incorrect,3,697
3,YRYNY,222,2,904,Correct,3,800
3,PZPEP,102,[2][3],[1315][1443],Correct,3,879
3,ZYZXZ,14,2,776,Correct,3,711
3,RZRVR,162,2,660,Correct,3,759
3,XRXRX,151,1,646,Correct,3,720
3,KUKFK,175,2,1010,Correct,3,909
3,RKRKR,15,1,862,Correct,3,898
3,ZFZFZ,152,1,915,Correct,3,824
3,YZYVY,161,2,715,Correct,3,738
3,XPXNX,162,2,646,Correct,3,814
3,YRYRY,151,1,600,Correct,3,700
3,EPVPV,221,1,789,Correct,3,943
3,CRCEC,112,[2][3],[905][1033],Correct,3,882
3,RFRCR,14,2,928,Correct,3,939
3,CPCVC,162,2,969,Correct,3,736
3,RXRCR,163,2,699,Correct,3,858
3,VNVLV,164,2,699,Correct,3,675
3,ZXZXZ,151,1,757,Correct,3,894
3,ZCZCZ,152,1,934,Correct,3,666
3,PYPUP,186,2,922,Correct,3,859
3,YKYPY,16,2,794,Correct,3,948
3,YREXY,233,2,1172,Correct,3,777
3,ZKZKZ,113,1,612,Correct,3,665
3,XLXNX,161,2,706,Correct,3,823
3,KFKRE,235,2,836,Correct,3,665
3,RXRLR,222,2,796,Correct,3,798
3,RERXR,121,[2],[1490],Incorrect,3,906
4,J,5,3,1663,New Target,4,835
4,CYCVC,161,2,991,Correct,4,684
4,RXRCR,162,2,605,Correct,4,907
4,FPFVF,163,2,809,Correct,4,916
4,LZLZL,151,1,1155,Correct,4,755
4,PLPLP,152,1,1236,Correct,4,687
4,NPNPN,153,1,718,Correct,4,780
4,XZXZX,161,1,730,Incorrect,4,793
4,CNCKC,162,2,1156,Correct,4,827
4,PCPYJ,235,2,942,Correct,4,893
4,VYVYV,113,1,1278,Correct,4,864
4,RLRLR,152,1,817,Correct,4,924
4,CJCJC,7,[1][3],[904][1032],Correct,4,673
4,ZLZLZ,13,2,1266,Incorrect,4,934
4,FZFZF,152,1,748,Correct,4,708
4,CFCFC,153,1,652,Correct,4,688
4,PZPZP,154,1,543,Correct,4,691
4,XEXEX,191,1,808,Correct,4,701
4,NVNFN,16,2,829,Correct,4,940
4,KYKYK,151,1,948,Correct,4,849
4,ZNZVZ,161,2,1050,Correct,4,713
4,YVJXY,233,2,873,Correct,4,765
4,XFXFX,113,1,761,Correct,4,927
4,XNXNX,152,1,724,Correct,4,853
4,FJFKF,81,[2][3],[994][1122],Correct,4,913
4,CZCYC,14,2,820,Correct,4,818
4,ZXZCZ,162,2,736,Correct,4,707
4,RYRYJ,225,2,641,Incorrect,4,664
4,FPFZF,222,2,1396,Correct,4,668
4,XRXRX,151,1,678,Correct,4,804
4,YPYEY,182,2,952,Correct,4,754
4,XRXRX,15,1,632,Correct,4,882
4,XZXPX,161,2,787,Correct,4,897
4,CJCJC,9,[1][3],[718][862],Correct,4,824
4,ZXZVZ,14,2,895,Correct,4,680
4,VKVKV,151,1,738,Correct,4,860
4,VEVNV,173,2,772,Correct,4,661
4,ZKZVZ,16,2,812,Correct,4,842
4,XVXJX,102,[2][3],[1168][1280],Correct,4,812
4,RXRVR,14,2,1287,Correct,4,776
4,LRLRL,151,1,687,Correct,4,808
4,YNJNY,223,1,665,Correct,4,833
4,NPNJN,222,2,1036,Correct,4,710
4,ZEZEZ,194,1,620,Correct,4,824
4,ZNZNZ,15,1,634,Correct,4,855
4,YZYZY,152,1,653,Correct,4,744
4,XYXYX,153,1,592,Correct,4,718
4,ZXZXZ,221,1,725,Correct,4,712
4,LYLZL,222,2,1137,Correct,4,858
4,CYCNC,162,2,814,Correct,4,747
4,XEXEX,195,1,573,Correct,4,675
4,CVCXC,16,2,863,Correct,4,832
4,ZPZXZ,162,2,668,Correct,4,662
4,FZFZF,151,1,888,Correct,4,885
4,RXRJR,112,[2][3],[1036][1164],Correct,4,688
4,PRPFP,14,2,1180,Correct,4,699
4,PKPEP,186,2,1130,Correct,4,710
4,XZXPX,16,2,870,Correct,4,827
4,JCZVZ,231,2,862,Correct,4,801
4,RXRLR,222,,,Incorrect,4,913
4,VZVZV,151,1,795,Correct,4,739
4,XJXJX,12,[1][3],[1049][1145],Correct,4,791
5,I,5,3,2146,New Target,5,888
5,PCPCP,151,1,1035,Correct,5,864
5,XYXYX,152,1,572,Correct,5,759
5,VXVXV,153,1,555,Correct,5,910
5,XVXVX,154,1,591,Correct,5,743
5,ZRZXZ,161,2,708,Correct,5,675
5,FPFZF,162,2,679,Correct,5,656
5,ZYZYZ,151,1,548,Correct,5,846
5,RVRZR,161,2,692,Correct,5,850
5,CICIC,7,[1][3],[869][997],Correct,5,661
5,XLXLX,13,1,998,Correct,5,727
5,YVYVY,152,1,1110,Correct,5,811
5,CJCJC,191,1,800,Correct,5,906
5,FNFCF,16,2,806,Correct,5,901
5,PVPRP,162,2,1086,Correct,5,833
5,FZFZF,151,1,679,Correct,5,939
5,NVIVN,223,1,679,Correct,5,722
5,CVCIC,82,[2][3],[916][1044],Correct,5,875
5,ZXZXZ,13,1,604,Correct,5,761
5,FCFZF,161,2,743,Correct,5,942
5,IXRXR,221,1,629,Correct,5,786
5,ZPZNZ,222,2,728,Correct,5,769
5,VZVZV,151,1,615,Correct,5,766
5,YRYNY,161,2,761,Correct,5,721
5,VNVPV,162,2,612,Correct,5,802
5,RVRJR,182,2,886,Correct,5,810
5,VRVRV,15,1,651,Correct,5,794
5,VIVIV,9,[1][3],[803][931],Correct,5,651
5,CXCVC,14,2,1296,Correct,5,716
5,PZPZP,151,1,647,Correct,5,748
5,IXVKV,231,1,692,Incorrect,5,850
5,YJYCY,173,2,1176,Incorrect,5,677
5,VYVYV,15,1,766,Correct,5,945
5,YVYVY,152,1,839,Correct,5,858
5,NVNVN,153,1,767,Correct,5,816
5,XYXVX,161,2,986,Correct,5,804
5,NJNCN,174,2,876,Correct,5,774
5,NXNYN,16,2,752,Correct,5,939
5,VXVCV,162,2,792,Correct,5,823
5,ZKZKZ,151,1,765,Correct,5,914
5,XRXYX,161,2,761,Correct,5,797
5,ZCZXZ,162,2,624,Correct,5,925
5,KVKYI,235,2,778,Correct,5,946
5,CNCNC,113,1,790,Correct,5,790
5,RIRIR,10,[1][3],[1041][1153],Correct,5,915
5,VYVXV,14,2,1158,Correct,5,680
5,FXIRF,233,2,1350,Correct,5,654
5,PFPFP,113,1,787,Correct,5,916
5,VPVPV,152,1,699,Correct,5,803
5,ZJZJZ,195,1,1092,Correct,5,926
5,ZVZNZ,16,2,737,Correct,5,876
5,YVYXY,162,2,937,Correct,5,833
5,PRPRP,151,1,712,Correct,5,894
5,YPYPY,152,1,826,Correct,5,703
5,ZIZPZ,111,[2],[1504],Incorrect,5,659
5,NKNXN,14,2,941,Correct,5,790
5,RZRXR,162,2,765,Correct,5,891
5,RXRXR,151,1,824,Correct,5,803
5,ZJZJZ,196,1,1061,Correct,5,704
5,CVCVI,225,1,1047,Incorrect,5,688
5,NKNKN,113,1,756,Correct,5,894
5,NRNZN,161,2,866,Correct,5,753
5,CNCNC,151,1,663,Correct,5,879
5,RFRIR,122,[2][3],[1065][1193],Correct,5,681
6,B,5,3,8047,New Target,6,820
6,YKYZY,161,2,1093,Correct,6,842
6,VCVRV,162,2,805,Correct,6,745
6,XVXVX,151,1,639,Correct,6,743
6,KZKRK,161,2,655,Correct,6,728
6,ZVZXZ,162,2,691,Correct,6,695
6,RCRNR,163,2,634,Correct,6,945
6,CXCRC,164,2,668,Correct,6,736
6,VNBCV,233,2,1134,Correct,6,664
6,CXCVC,222,2,872,Correct,6,929
6,RFRFR,151,1,701,Correct,6,860
6,XPXRX,161,2,1071,Correct,6,678
6,RYRBR,72,[2][3],[997][1109],Correct,6,911
6,ZKZKZ,13,1,707,Correct,6,717
6,FIFRF,171,2,1099,Correct,6,863
6,VZVLV,16,2,799,Correct,6,704
6,RPRVR,162,2,668,Correct,6,683
6,YBYBY,8,[1][3],[853][965],Correct,6,681
6,PYPVP,14,2,767,Correct,6,743
6,NININ,192,1,1350,Correct,6,868
6,RNRNR,15,1,742,Correct,6,920
6,NXNVN,161,2,717,Correct,6,865
6,RNRNR,151,1,670,Correct,6,697
6,FRFVF,161,2,708,Correct,6,665
6,YVYFB,235,2,1166,Incorrect,6,896
6,ZRZXZ,222,2,712,Correct,6,878
6,VNVIV,193,2,1016,Incorrect,6,753
6,PXPNP,16,2,664,Correct,6,833
6,ZXZPZ,162,2,688,Correct,6,933
6,VBVBV,9,[1][3],[833][945],Correct,6,785
6,CXCXC,13,1,759,Correct,6,847
6,PCPFP,161,2,678,Correct,6,685
6,KNKNK,151,1,776,Correct,6,745
6,XIXIX,194,1,734,Correct,6,921
6,CYCYC,15,1,630,Correct,6,915
6,FVFYF,161,2,885,Correct,6,766
6,YNYRY,162,2,737,Correct,6,684
6,BVPXP,231,2,1278,Correct,6,761
6,NXNXN,113,1,805,Correct,6,889
6,FRFRF,152,1,1123,Correct,6,663
6,YVYVY,153,1,727,Correct,6,672
6,ZKZCZ,161,2,779,Correct,6,653
6,VIVXV,175,2,768,Correct,6,930
6,PRBRP,223,2,1278,Incorrect,6,679
6,YZYBY,102,[2][3],[841][953],Correct,6,787
6,CXCVC,14,2,825,Correct,6,746
6,FYFYF,151,1,643,Correct,6,722
6,VKVXV,161,2,735,Correct,6,885
6,ZBZBZ,11,[1][3],[905][1049],Correct,6,789
6,FPFNF,14,2,824,Correct,6,700
6,CXCXC,151,1,762,Correct,6,943
6,YCYCY,152,1,678,Correct,6,805
6,FPFPF,153,1,664,Correct,6,758
6,CVCVB,225,1,682,Correct,6,698
6,ZCZCZ,113,1,889,Correct,6,787
6,CZCNC,161,2,782,Correct,6,841
6,KIKFK,176,2,1060,Correct,6,878
6,PXPXP,15,1,801,Correct,6,903
6,RYRYR,152,1,906,Correct,6,773
6,ZRZCZ,161,2,801,Correct,6,726
6,RVRVR,151,1,1129,Correct,6,829
6,XYXNX,161,2,898,Correct,6,932
6,BVKVK,221,1,827,Correct,6,738
6,CBCBC,12,[1][3],[951][1110],Correct,6,667
7,W,5,3,3506,New Target,7,889
7,RKRKR,151,1,649,Correct,7,905
7,CVCRC,161,2,668,Correct,7,690
7,PKPKP,151,1,639,Correct,7,673
7,FPFPF,152,1,675,Correct,7,693
7,VRVPV,161,2,756,Correct,7,715
7,ZKZYZ,162,2,754,Correct,7,681
7,PVPCP,233,2,688,Correct,7,721
7,KVKVK,113,1,818,Correct,7,694
7,YXYVY,161,2,1034,Correct,7,841
7,FNFNF,151,1,701,Correct,7,716
7,YWYWY,7,[1][3],[930][1026],Correct,7,863
7,ZYZYZ,13,1,895,Correct,7,940
7,PYPYP,152,1,816,Correct,7,922
7,XRXRX,153,1,619,Correct,7,740
7,PXPXP,154,1,809,Correct,7,833
7,FCFBF,181,2,1587,Correct,7,687
7,FVFVF,15,1,618,Correct,7,757
7,CYCZC,161,2,828,Correct,7,657
7,XZXVX,162,2,1105,Correct,7,653
7,PFPFP,151,1,1326,Correct,7,800
7,RVRLR,161,2,845,Correct,7,824
7,ZBZBZ,192,1,1168,Correct,7,755
7,VCVNV,16,2,740,Correct,7,835
7,NWNWN,8,[1][3],[720][848],Correct,7,697
7,XNXVX,14,2,991,Correct,7,707
7,CXCNC,162,2,780,Correct,7,739
7,YVYVW,225,1,656,Correct,7,896
7,VFVFV,113,1,836,Correct,7,893
7,VFWFV,223,1,1272,Correct,7,710
7,CVCFC,222,2,1129,Correct,7,876
7,YBYBY,193,1,816,Correct,7,845
7,PYPYP,15,1,727,Correct,7,698
7,NKNWN,91,[2][3],[1010][1138],Correct,7,766
7,VNVNV,13,1,1053,Correct,7,749
7,RVRVR,152,1,903,Correct,7,841
7,FVFBF,184,2,1131,Incorrect,7,672
7,VZVKV,16,2,1412,Correct,7,791
7,VPVCV,162,2,670,Correct,7,842
7,WYZCZ,231,2,1070,Correct,7,698
7,PFPFP,113,1,981,Correct,7,802
7,PRPRP,152,1,794,Correct,7,651
7,NWNWN,10,[1][3],[868][964],Correct,7,763
7,VKVCV,14,2,668,Correct,7,664
7,WPYPY,221,1,896,Correct,7,889
7,VBVBV,195,1,965,Correct,7,695
7,ZKZYZ,16,2,945,Correct,7,924
7,XYXYX,151,1,805,Correct,7,708
7,FZFXF,161,2,1286,Correct,7,819
7,XKXKX,151,1,709,Correct,7,835
7,XPXPX,152,1,653,Correct,7,788
7,FWFWF,11,[1][3],[711][823],Correct,7,846
7,FNFBF,186,2,851,Correct,7,827
7,ZVZYZ,16,2,631,Correct,7,750
7,FZFZF,151,1,690,Correct,7,742
7,NPNFW,235,2,938,Correct,7,847
7,PCPCP,113,1,700,Correct,7,708
7,NKNWN,122,[2][3],[1021][1149],Correct,7,891
8,M,5,3,2038,New Target,8,911
8,VYVNV,161,2,648,Correct,8,728
8,KLKNK,162,2,1139,Correct,8,846
8,NRNRN,151,1,705,Correct,8,665
8,VNVFV,161,2,758,Correct,8,862
8,XNXNM,225,1,865,Correct,8,688
8,CXCVC,222,2,723,Correct,8,825
8,KRKZK,162,2,848,Correct,8,653
8,NMNFN,71,[2][3],[1094][1190],Correct,8,753
8,ZFZFZ,13,1,710,Correct,8,759
8,YPYCY,161,2,748,Correct,8,888
8,KCKCK,151,1,801,Correct,8,798
8,VNVNV,152,1,1010,Correct,8,853
8,LXLXL,153,1,714,Correct,8,917
8,CLCLC,154,1,760,Correct,8,654
8,NYNYN,155,1,737,Correct,8,722
8,LCMYL,233,,,Incorrect,8,759
8,NCNCN,113,1,670,Correct,8,824
8,ZVZRZ,161,2,744,Correct,8,818
8,ZVZVZ,151,1,619,Correct,8,920
8,PZPVP,161,2,695,Correct,8,759
8,PWPNP,171,2,997,Correct,8,686
8,KLKCM,235,2,1187,Correct,8,774
8,XMXMX,8,[1][3],[1010][1109],Correct,8,730
8,PRPXP,14,2,728,Correct,8,884
8,CVCYC,162,2,786,Correct,8,669
8,PXPMP,92,[2],[822],Incorrect,8,830
8,ZCZLZ,14,2,678,Correct,8,830
8,XWXWX,192,1,1486,Correct,8,794
8,ZCZLZ,16,2,791,Correct,8,849
8,MNCYC,231,2,1068,Correct,8,743
8,ZXZXZ,113,1,938,Correct,8,697
8,YRYNY,161,2,705,Correct,8,921
8,ZLZPZ,162,2,794,Correct,8,859
8,VZVZV,151,1,874,Correct,8,826
8,MXPXP,221,1,1118,Correct,8,745
8,VWVWV,193,1,1115,Correct,8,702
8,PYPYP,16,1,817,Incorrect,8,813
8,XPXVX,162,2,742,Correct,8,865
8,XLXLX,151,1,705,Correct,8,720
8,YMYMY,10,[1][3],[773][917],Correct,8,746
8,VYVYV,13,1,752,Correct,8,878
8,PWPZP,174,2,1577,Correct,8,720
8,PYPKP,16,2,713,Correct,8,915
8,NPNXN,162,2,672,Correct,8,802
8,KVKVK,223,1,899,Correct,8,912
8,NVNFN,222,2,822,Correct,8,771
8,XNXNX,151,1,734,Correct,8,681
8,YZYMY,112,[2][3],[731][858],Correct,8,688
8,PFPFP,13,1,632,Correct,8,665
8,ZWZWZ,195,1,945,Correct,8,872
8,PCPZP,16,2,736,Correct,8,871
8,LRLPL,162,2,905,Correct,8,667
8,CZCZC,151,1,767,Correct,8,693
8,NZNZN,152,1,814,Correct,8,883
8,CVCXC,161,2,677,Correct,8,725
8,XCXCX,151,1,654,Correct,8,800
8,YWYWY,196,1,1213,Correct,8,688
8,NLNLN,15,1,931,Correct,8,778
8,VNVNV,152,1,920,Correct,8,651
8,ZMZMZ,12,[1][3],[1015][1140],Correct,8,863
9,S,5,3,1627,New Target,9,658
9,NZNZN,151,1,840,Correct,9,721
9,KVKZK,161,2,696,Correct,9,815
9,LZLZL,151,1,695,Correct,9,709
9,XLXLX,152,1,648,Correct,9,940
9,ZXZXZ,153,1,761,Correct,9,666
9,KNKZK,161,2,748,Correct,9,799
9,NRNYN,162,2,769,Correct,9,813
9,CLCVC,163,2,756,Correct,9,901
9,ZCZFZ,164,2,587,Correct,9,691
9,NSNSN,7,[1][3],[756][915],Correct,9,760
9,VZVZV,13,1,720,Correct,9,866
9,NVNCN,161,2,820,Correct,9,859
9,VMVMV,191,1,669,Correct,9,748
9,CVCXC,16,2,982,Correct,9,798
9,ZYZRZ,162,2,659,Correct,9,843
9,XNXZX,163,2,685,Correct,9,748
9,PXPXP,151,1,834,Correct,9,903
9,VCVSV,82,[2][3],[976][1104],Correct,9,766
9,PRPCP,14,2,783,Correct,9,713
9,ZMZMZ,192,1,933,Incorrect,9,743
9,ZFZFZ,15,1,654,Correct,9,897
9,FCFCF,152,1,631,Correct,9,809
9,YLYZY,161,2,787,Correct,9,902
9,KNKVK,162,2,774,Correct,9,883
9,SFPCP,231,2,1002,Correct,9,801
9,RPRPR,113,1,1111,Correct,9,776
9,XMXMX,193,1,864,Correct,9,783
9,KFKFK,15,1,657,Correct,9,878
9,VSVSV,9,[1][3],[621][765],Correct,9,705
9,YVSVY,223,1,1155,Correct,9,708
9,VPVPV,113,1,658,Correct,9,912
9,XZXZX,152,1,652,Correct,9,842
9,KZKXK,161,2,764,Correct,9,696
9,RFRPR,162,2,1027,Correct,9,678
9,NVNVS,225,1,1057,Correct,9,708
9,ZXZXZ,113,1,728,Correct,9,916
9,SRVRV,221,1,752,Correct,9,749
9,YCYCY,113,1,664,Correct,9,762
9,KMKZK,174,2,1328,Correct,9,852
9,FZSVF,233,2,1127,Correct,9,673
9,VYVYV,113,1,602,Correct,9,875
9,LVLVL,152,1,648,Correct,9,831
9,YFYFY,153,1,652,Correct,9,946
9,NXNSN,102,[2][3],[793][951],Correct,9,810
9,FNFCF,14,1,683,Incorrect,9,895
9,KVKVK,151,1,726,Correct,9,671
9,VZVCV,161,2,720,Correct,9,827
9,ZYZMZ,185,2,949,Correct,9,900
9,VXVZV,16,2,865,Correct,9,922
9,VPVPV,151,1,578,Correct,9,835
9,RVRNS,235,2,1308,Correct,9,889
9,YZYZY,113,1,764,Correct,9,853
9,ZSZSZ,11,[1][3],[891][1067],Correct,9,937
9,FRFRF,13,1,783,Correct,9,746
9,ZMZMZ,196,1,792,Correct,9,754
9,NZNXN,16,2,728,Correct,9,897
9,LSLFL,121,[2][3],[1085][1181],Correct,9,950
10,Q,5,3,3472,New Target,10,802
10,ZVZPZ,161,2,1002,Correct,10,748
10,RZRZR,151,1,660,Correct,10,867
10,ZFZFZ,152,1,725,Correct,10,949
10,RZRZR,153,1,637,Correct,10,741
10,PZPXP,161,2,726,Correct,10,782
10,VFQPV,233,2,1165,Correct,10,897
10,ZPZRZ,222,2,821,Correct,10,764
10,CYCVC,162,2,883,Correct,10,811
10,CPCPC,151,1,695,Correct,10,787
10,YZYQY,72,[2][3],[987][1114],Correct,10,814
10,FVFXF,14,2,758,Correct,10,697
10,YNYNQ,225,1,941,Correct,10,765
10,ZYZYZ,113,1,768,Correct,10,762
10,FRFSF,181,2,1139,Incorrect,10,744
10,XNXPX,16,2,1145,Correct,10,925
10,NXNXN,151,1,1127,Correct,10,676
10,PVPZP,161,2,816,Correct,10,820
10,XVXPX,162,2,864,Correct,10,884
10,FXFVF,163,,,Incorrect,10,722
10,NSNKN,172,2,1039,Incorrect,10,706
10,VXVNV,16,2,750,Correct,10,755
10,XZXZX,151,1,738,Correct,10,852
10,VQVQV,8,[1][3],[789][884],Correct,10,942
10,ZYZPZ,14,2,1203,Correct,10,781
10,PZPSP,183,2,1364,Correct,10,859
10,YVYVY,15,1,853,Correct,10,784
10,NCNQN,92,[2][3],[894][990],Correct,10,944
10,FCFVF,14,2,714,Correct,10,678
10,ZFZFZ,151,1,806,Correct,10,774
10,NSNSN,194,1,1146,Correct,10,838
10,YPYFY,16,2,865,Correct,10,736
10,ZKZKZ,151,1,842,Correct,10,660
10,QZRCR,231,2,832,Correct,10,696
10,YPYVY,222,2,797,Correct,10,905
10,ZNZNZ,151,1,657,Correct,10,905
10,VQVQV,10,[1][3],[1276][1355],Correct,10,709
10,RVRZR,14,2,772,Correct,10,880
10,KRKSK,185,2,713,Correct,10,805
10,NPNPN,15,1,656,Correct,10,773
10,YPYPY,152,1,745,Correct,10,822
10,VCVYV,161,2,720,Correct,10,781
10,FPFNF,162,2,1271,Correct,10,785
10,QVXVX,221,1,1516,Correct,10,832
10,ZVZRZ,222,2,902,Correct,10,763
10,LFLFL,151,1,655,Correct,10,942
10,VLVLV,152,1,621,Correct,10,709
10,KXQXK,223,1,811,Correct,10,692
10,YQYQY,11,[1][3],[782][878],Correct,10,903
10,YCYCY,13,1,698,Correct,10,686
10,PZPYP,161,2,692,Correct,10,770
10,LPLFL,162,2,748,Correct,10,802
10,VSVSV,196,1,624,Correct,10,834
10,VFVYQ,235,2,591,Correct,10,652
10,CZCXC,222,2,685,Correct,10,852
10,PVPCP,162,2,789,Correct,10,708
10,CXCXC,151,1,636,Correct,10,818
10,NZNZN,152,1,716,Correct,10,660
10,YPYCY,161,2,879,Correct,10,839
10,ZQZQZ,12,[1][3],[860][956],Correct,10,809
11,T,5,3,1576,New Target,11,934
11,KFKFK,151,1,1135,Correct,11,671
11,LZLZL,152,1,763,Correct,11,668
11,PFPVP,161,2,705,Correct,11,877
11,FRFPF,162,2,1168,Correct,11,936
11,FZFZF,151,1,719,Correct,11,673
11,VTVTV,7,[1][3],[752][847],Correct,11,811
11,KYKCK,14,2,668,Correct,11,945
11,VPVPV,151,1,699,Correct,11,675
11,XQXQX,191,1,848,Correct,11,844
11,PZPYP,16,2,738,Correct,11,779
11,KXKLK,162,2,963,Correct,11,946
11,TCNCN,221,1,765,Correct,11,843
11,PZPNP,222,2,818,Correct,11,858
11,RCRPR,162,2,729,Correct,11,687
11,PZPRT,235,2,770,Correct,11,740
11,XFXVX,222,2,855,Correct,11,887
11,LTLVL,81,[2][3],[1018][1112],Correct,11,651
11,ZCZPZ,14,2,1201,Correct,11,798
11,NCNQN,182,2,794,Correct,11,767
11,XZXNX,16,2,705,Correct,11,725
11,ZPZPZ,151,1,724,Correct,11,910
11,CFCFC,152,1,691,Correct,11,943
11,VXTRV,233,2,753,Correct,11,668
11,CFCVC,222,2,743,Correct,11,765
11,PYPYP,151,1,811,Correct,11,930
11,FQFYF,173,2,928,Correct,11,659
11,CNCFC,16,2,934,Correct,11,739
11,PTPTP,9,[1][3],[792][936],Correct,11,651
11,ZCZCZ,13,1,808,Correct,11,706
11,KZKZK,152,1,1345,Correct,11,652
11,RLRVR,161,2,954,Correct,11,934
11,ZRZKZ,162,2,1203,Correct,11,932
11,KLKLT,225,1,938,Correct,11,769
11,ZQZQZ,194,1,1129,Correct,11,748
11,VZVZV,15,1,671,Correct,11,789
11,RVRZR,161,2,693,Correct,11,946
11,ZPZCZ,162,2,766,Correct,11,831
11,VYVYV,151,1,733,Correct,11,944
11,RVRVR,152,2,665,Incorrect,11,752
11,PTPTP,10,[2][3],[1261][1372],Incorrect,11,714
11,PXPXP,13,1,1576,Correct,11,915
11,KCKCK,152,,,Incorrect,11,916
11,YVYVY,153,1,705,Correct,11,827
11,CYCYC,154,1,936,Correct,11,889
11,XCXCX,155,1,569,Correct,11,738
11,CYCQC,185,2,983,Correct,11,749
11,KCKNK,16,2,1207,Correct,11,755
11,VPVPV,151,1,592,Correct,11,736
11,TXFZF,231,2,1119,Correct,11,734
11,NYNVN,222,2,1241,Correct,11,758
11,VQVXV,176,2,816,Correct,11,715
11,ZRZRZ,15,1,1155,Correct,11,765
11,VTVZV,111,[2][3],[1042][1153],Correct,11,656
11,PXPVP,14,2,911,Correct,11,892
11,FVFVF,151,1,846,Correct,11,859
11,VRVLV,161,2,1002,Correct,11,934
11,YCYCY,151,1,1114,Correct,11,777
11,XZTZX,223,1,667,Correct,11,926
11,VTVTV,12,[1][3],[1181][1310],Correct,11,674
12,O,5,3,2921,New Target,12,782
12,VXVLV,161,2,677,Correct,12,705
12,KVKCK,162,2,762,Correct,12,901
12,VLVLV,151,1,720,Correct,12,806
12,ZCZVZ,161,2,1220,Correct,12,931
12,KFKFK,151,1,693,Correct,12,917
12,XKXKX,152,1,1028,Correct,12,932
12,YXYXY,153,1,981,Correct,12,694
12,FVFVF,154,1,549,Correct,12,725
12,PVPOP,72,[2][3],[793][904],Correct,12,717
12,ZXZYZ,14,2,733,Correct,12,881
12,PXPVP,162,2,698,Correct,12,668
12,ZTZTZ,191,1,626,Correct,12,741
12,CVCKC,16,2,753,Correct,12,676
12,CKCKC,151,1,996,Correct,12,878
12,NPNPN,152,1,692,Correct,12,787
12,ZRZNZ,161,2,1452,Correct,12,813
12,OZCZC,221,1,1043,Correct,12,909
12,LFLFL,113,1,894,Correct,12,760
12,CXCXC,152,1,878,Correct,12,865
12,KPKPK,153,1,623,Correct,12,797
12,FRFKF,161,2,715,Correct,12,852
12,FOFOF,8,[1][3],[669][780],Correct,12,788
12,ZFZFZ,13,1,641,Correct,12,816
12,LKLZO,235,2,652,Correct,12,823
12,KLKZK,222,2,1003,Correct,12,655
12,YXYCY,162,2,1491,Correct,12,841
12,LOLOL,9,[1][3],[847][927],Correct,12,847
12,XLXLX,13,1,715,Correct,12,658
12,XVXVX,152,1,759,Correct,12,706
12,FTFTF,192,1,714,Correct,12,929
12,OXNZN,231,2,708,Correct,12,793
12,CZCZC,113,1,681,Correct,12,828
12,LZLZL,152,1,650,Correct,12,927
12,VLVPV,161,2,739,Correct,12,794
12,VYVYO,225,1,684,Correct,12,728
12,XKXKX,113,1,772,Correct,12,758
12,RTRTR,193,1,796,Correct,12,724
12,KVKCK,16,2,700,Correct,12,920
12,ROROR,101,[1][3],[763][890],Correct,12,755
12,PRPRP,13,1,1049,Correct,12,947
12,LYLVL,161,2,968,Correct,12,705
12,PLPLP,151,1,791,Correct,12,745
12,CTCTC,194,1,913,Correct,12,663
12,XZXYX,16,2,758,Correct,12,708
12,NKNKN,151,1,1099,Correct,12,843
12,VLVZV,161,2,724,Correct,12,677
12,YOYOY,11,[1][3],[739][850],Correct,12,895
12,PZOZP,223,1,1096,Correct,12,733
12,FYFYF,113,1,638,Correct,12,852
12,ZXZVZ,161,2,665,Correct,12,791
12,VKVZV,162,2,808,Correct,12,674
12,ZTZTZ,195,1,730,Correct,12,820
12,LKLZL,16,2,739,Correct,12,783
12,KCKVK,162,2,762,Correct,12,877
12,PXPKP,163,2,1005,Correct,12,815
12,KCOZK,233,2,1402,Correct,12,766
12,FKFKF,113,1,644,Correct,12,779
12,CTCRC,176,2,741,Correct,12,739
12,NXNXN,15,1,879,Correct,12,666
12,KXKVK,161,2,731,Correct,12,900
12,CPCOC,122,[2][3],[801][929],Correct,12,821
13,H,5,3,2116,New Target,13,748
13,VFVNV,151,2,699,Incorrect,13,772
13,YVYVY,152,1,817,Correct,13,896
13,XVXVX,153,1,756,Correct,13,789
13,NRNXN,161,2,748,Correct,13,834
13,PZPKP,162,2,677,Correct,13,673
13,HLVLV,221,1,1049,Correct,13,899
13,CXCZC,222,2,645,Correct,13,733
13,LHLYL,71,[2][3],[893][1020],Correct,13,724
13,YKYFY,14,2,983,Correct,13,825
13,YOYRY,171,2,1065,Correct,13,657
13,ZKZYZ,16,2,783,Correct,13,885
13,RZRZR,151,1,641,Correct,13,822
13,NFNYN,161,2,1338,Correct,13,882
13,KVKFK,162,2,708,Correct,13,947
13,XFXYX,163,2,749,Correct,13,832
13,LKLVL,164,2,711,Correct,13,652
13,NLNLN,151,1,813,Correct,13,867
13,XCXOX,182,2,835,Correct,13,667
13,FXFXF,15,1,823,Correct,13,814
13,VHVHV,8,[1][3],[797][911],Correct,13,667
13,PVPVP,13,1,746,Correct,13,737
13,CRCXC,161,2,941,Correct,13,905
13,NXNXN,151,1,970,Correct,13,832
13,XRXRX,152,1,1098,Correct,13,773
13,YFYXY,161,2,738,Correct,13,874
13,ZOZOZ,193,1,1050,Correct,13,782
13,RZRZR,15,1,752,Correct,13,827
13,FKFKF,152,1,820,Correct,13,888
13,PFPFP,153,1,900,Correct,13,859
13,XYXHX,92,[2][3],[1195][1324],Correct,13,927
13,RZRKR,14,2,1117,Correct,13,666
13,FLFLH,225,1,789,Correct,13,772
13,KRKRK,113,1,616,Correct,13,917
13,ZVZNZ,161,2,887,Correct,13,674
13,ZOZOZ,194,1,881,Correct,13,890
13,FZFZF,15,1,834,Correct,13,893
13,FHFKF,101,[2][3],[925][1037],Correct,13,732
13,ZXHLZ,233,2,1232,Correct,13,679
13,FKFXF,222,2,1109,Correct,13,778
13,CFCYC,162,2,809,Correct,13,949
13,ZXZVZ,163,2,704,Correct,13,703
13,KCKOK,185,2,765,Correct,13,684
13,ZXZVH,235,2,1206,Correct,13,710
13,CKCKC,113,1,876,Correct,13,822
13,ZXZCZ,161,2,719,Correct,13,685
13,YVYVY,151,1,844,Correct,13,690
13,RVHVR,223,1,789,Correct,13,663
13,ZRZRZ,113,1,810,Correct,13,756
13,ZHZHZ,11,[1][3],[843][938],Correct,13,650
13,VZVZV,13,1,715,Correct,13,878
13,HZVRV,231,2,862,Correct,13,927
13,FVFVF,113,1,726,Correct,13,654
13,RNRCR,161,2,764,Correct,13,905
13,COCOC,196,1,925,Correct,13,849
13,VNVXV,16,2,939,Correct,13,945
13,XHXHX,12,[1][3],[914][1025],Correct,13,736
14,G,5,3,1586,New Target,14,650
14,FZFZF,151,1,915,Correct,14,765
14,RPRVR,161,2,672,Correct,14,894
14,XCXCX,151,1,699,Correct,14,739
14,YXYXY,152,1,564,Correct,14,735
14,KZKZK,153,1,580,Correct,14,683
14,RYRKR,161,2,742,Correct,14,709
14,FYFNF,162,2,1312,Correct,14,829
14,VKVKV,151,1,638,Correct,14,789
14,KPGPK,223,1,871,Correct,14,844
14,YNYNY,113,1,615,Correct,14,806
14,VYVYV,152,1,773,Correct,14,663
14,YCYXY,161,2,925,Correct,14,759
14,LKLGL,72,[2][3],[877][971],Correct,14,669
14,VXVXV,13,1,579,Correct,14,860
14,KCKVK,161,2,1037,Correct,14,884
14,YKYKY,151,1,588,Correct,14,765
14,RHRXR,171,2,1020,Correct,14,659
14,FVFCF,16,2,1289,Correct,14,771
14,YXYGY,82,[2][3],[1101][1213],Correct,14,654
14,CLCLC,13,1,912,Correct,14,799
14,ZXZCZ,161,2,938,Correct,14,912
14,VLVFV,162,2,1005,Correct,14,699
14,CPCPG,225,1,776,Correct,14,876
14,KHKNK,172,2,1359,Correct,14,717
14,ZKZVZ,16,2,689,Correct,14,749
14,YKYLY,162,2,778,Correct,14,732
14,CNCNC,151,1,1061,Correct,14,708
14,PGPGP,9,[1][3],[859][971],Correct,14,752
14,VPVPV,13,1,678,Correct,14,889
14,FXGRF,233,2,1449,Correct,14,913
14,CYCVC,222,1,947,Incorrect,14,882
14,FNFNF,151,1,733,Correct,14,872
14,KFKCK,161,2,1229,Correct,14,670
14,ZFZHZ,183,2,913,Correct,14,821
14,NXNXN,15,1,1001,Correct,14,671
14,FNFNF,152,1,703,Correct,14,919
14,LXLNG,235,2,772,Correct,14,932
14,XKXVX,222,2,758,Correct,14,881
14,ZHZHZ,194,1,653,Correct,14,803
14,PFPFP,15,,,Incorrect,14,860
14,ZYZYZ,152,1,717,Correct,14,733
14,XPXVX,161,2,1049,Correct,14,669
14,YCYCY,151,1,617,Correct,14,665
14,RGRGR,10,[1][3],[924][1066],Correct,14,728
14,VRVRV,13,1,701,Correct,14,683
14,PKPNP,161,2,748,Correct,14,677
14,XGXGX,11,[1][3],[701][797],Correct,14,711
14,GZYVY,231,2,741,Correct,14,789
14,VCVNV,222,2,725,Correct,14,943
14,VHVHV,195,1,669,Correct,14,776
14,LXLNL,16,2,1176,Correct,14,689
14,GKPKP,221,1,939,Correct,14,894
14,XRXPX,222,2,1308,Correct,14,705
14,XNXNX,151,1,707,Correct,14,658
14,KHKNK,176,2,847,Incorrect,14,670
14,RZRZR,15,1,757,Correct,14,763
14,CGCFC,121,[2][3],[1260][1372],Correct,14,707
15,A,5,3,1391,New Target,15,711
15,XRXFX,161,2,716,Correct,15,928
15,RXRKR,162,2,1244,Correct,15,914
15,YRYRY,151,1,796,Correct,15,932
15,XPXPX,152,1,690,Correct,15,759
15,RPRPR,153,1,1267,Correct,15,918
15,NCNCN,154,1,937,Correct,15,743
15,RXRZR,161,2,1134,Correct,15,930
15,NANAN,7,[1][3],[932][1043],Correct,15,829
15,KCKYK,14,2,683,Correct,15,782
15,XKXFX,162,2,1007,Correct,15,887
15,ZLZKZ,163,2,1095,Correct,15,946
15,VCVZV,164,2,768,Correct,15,863
15,XCXVX,165,2,658,Correct,15,923
15,LKLZA,235,2,794,Correct,15,851
15,NCNCN,113,1,835,Correct,15,718
15,YGYGY,191,1,862,Correct,15,661
15,VLVLV,15,1,737,Correct,15,728
15,XRXRX,152,1,665,Correct,15,851
15,KAKPK,81,[2][3],[952][1066],Correct,15,819
15,YZAZY,233,1,1011,Incorrect,15,812
15,CFCFC,113,1,670,Correct,15,771
15,VNVLV,161,2,746,Correct,15,839
15,KPKVK,162,2,1352,Correct,15,680
15,NCNRN,163,2,1161,Correct,15,680
15,FGFGF,192,1,615,Correct,15,666
15,RCRYR,16,2,740,Correct,15,753
15,KRKCK,162,2,781,Correct,15,744
15,CRCRC,151,1,834,Correct,15,878
15,XPAPX,223,1,706,Correct,15,871
15,LPLXL,222,2,1006,Correct,15,696
15,CGCVC,173,2,989,Correct,15,729
15,FKFZF,16,2,778,Correct,15,791
15,CACAC,9,[1][3],[839][967],Correct,15,688
15,XCXCX,13,1,724,Correct,15,673
15,AXRXR,221,1,1085,Correct,15,873
15,NKNRN,222,2,1141,Correct,15,800
15,KNKFK,162,2,921,Correct,15,839
15,KAKAK,10,[1][3],[786][883],Correct,15,814
15,ZCZRZ,14,2,785,Correct,15,850
15,RPRPR,151,1,1221,Correct,15,807
15,NCNCN,152,1,775,Correct,15,807
15,RYRGR,184,2,888,Correct,15,868
15,VPVPV,15,1,795,Correct,15,814
15,RCRCA,225,1,846,Correct,15,772
15,KXKPK,222,2,702,Correct,15,863
15,NPNPN,151,1,617,Correct,15,764
15,YCYCY,152,1,724,Correct,15,725
15,PXPAP,112,[2][3],[1082][1178],Correct,15,894
15,ZCZNZ,14,2,956,Correct,15,742
15,KYKGK,185,2,873,Correct,15,761
15,ANLPL,231,2,1291,Correct,15,810
15,CXCPC,222,2,749,Correct,15,811
15,YRYRY,151,1,1087,Correct,15,903
15,LGLGL,196,1,663,Correct,15,831
15,VYVLV,16,2,1292,Correct,15,940
15,KVKVK,151,1,814,Correct,15,808
15,RKRKR,152,1,686,Correct,15,891
15,VXVXV,153,1,612,Correct,15,870
15,XAXAX,12,[1][3],[761][825],Correct,15,819
