Trial No,Stimulus,Trigger,Response,Response Time(ms),Correct,Block,Fixation Duration
Practice
OT Practice
1,SKSKS,15,1,589,Correct,0,742
1,DLDUD,16,2,621,Correct,0,682
1,PDPGP,16,2,701,Correct,0,707
1,MWMWM,15,1,792,Correct,0,742
1,FTFTF,15,1,666,Correct,0,885
1,AXAMA,16,2,585,Correct,0,765
1,RYRGR,16,2,855,Correct,0,793
1,DODOD,15,1,511,Correct,0,658
1,QTQAQ,16,2,781,Correct,0,906
1,YEYEY,15,2,534,False,0,653
2,GYGDG,16,2,752,Correct,0,782
2,SWSWS,15,1,662,Correct,0,840
2,HLHUH,16,2,722,Correct,0,775
2,DEDED,15,1,671,Correct,0,696
2,ZPZOZ,16,2,598,Correct,0,818
2,ATATA,15,1,734,Correct,0,926
2,QOQOQ,15,1,966,Correct,0,823
2,FPFGF,16,2,598,Correct,0,751
2,TRTET,16,2,695,Correct,0,718
2,DQDQD,15,1,926,Correct,0,900
AT Practice
1,TKTKT,15,1,880,Correct,0,663
1,SLSUS,16,2,789,Correct,0,688
1,VZVGV,7,3,784,Correct,0,700
1,XWXZX,7,3,1100,Correct,0,672
1,ATATA,15,1,806,Correct,0,811
1,HXZMH,16,2,1001,Correct,0,865
1,TZTZT,7,3,545,Correct,0,875
1,UOUOU,15,1,532,Correct,0,725
1,ZTWAW,16,2,728,Correct,0,724
1,RZRER,7,3,531,Correct,0,769
2,JYJDJ,16,2,928,Correct,0,848
2,DWDWD,15,1,748,Correct,0,884
2,GNGNG,7,3,538,Correct,0,678
2,NEZEZ,16,1,636,Correct,0,721
2,RNROR,7,3,649,Correct,0,731
2,QTQNQ,7,2,746,False,0,691
2,HOHON,15,1,727,Correct,0,693
2,KPKGK,16,2,1126,Correct,0,652
2,DRDED,16,2,893,Correct,0,891
2,LNLNL,7,3,620,Correct,0,867
4,GLGLG,15,1,802,Correct,0,767
4,DTDID,16,2,654,Correct,0,657
4,SMSGS,16,2,893,Correct,0,721
4,ZFZYZ,7,3,517,Correct,0,700
4,TSTFT,7,3,866,Correct,0,870
4,OFOFO,7,3,746,Correct,0,675
4,WYFGW,16,2,819,Correct,0,760
4,WYWYW,15,1,1032,Correct,0,792
4,MFMCM,7,2,771,False,0,871
4,HQHEH,16,2,1032,Correct,0,832
Trials
1,D,5,3,18519,New Target,1,940
1,ZNZYZ,161,2,798,Correct,1,941
1,FZFZF,151,1,700,Correct,1,689
1,RKRKR,152,1,851,Correct,1,906
1,RXRNR,161,2,800,Correct,1,706
1,CNCFC,162,2,810,Correct,1,719
1,PDPDP,7,3,556,Correct,1,938
1,CPCFC,14,2,658,Correct,1,729
1,VLVNV,162,2,738,Correct,1,810
1,KFKFK,151,1,861,Correct,1,761
1,ZNZNZ,152,1,915,Correct,1,882
1,KCKPD,235,2,776,Correct,1,781
1,ZKZFZ,222,2,739,Correct,1,827
1,NRNZN,162,1,1085,Incorrect,1,932
1,KXKRK,163,,,Incorrect,1,914
1,YPYZY,164,2,596,Correct,1,685
1,FKDKF,223,2,801,Incorrect,1,899
1,RPRPR,113,1,1306,Correct,1,860
1,VRVKV,161,2,769,Correct,1,802
1,RFRPR,162,,,Incorrect,1,786
1,KVKVK,151,1,1142,Correct,1,860
1,YKYVY,161,2,740,Correct,1,709
1,VDVDV,8,3,734,Correct,1,868
1,DVZVZ,221,1,972,Correct,1,802
1,YFYFY,113,1,781,Correct,1,804
1,ZYZYZ,152,1,1013,Correct,1,854
1,VLVXV,161,2,755,Correct,1,908
1,DPXZX,231,2,1245,Correct,1,865
1,RYRYR,113,1,1056,Correct,1,920
1,PDPNP,91,3,728,Correct,1,919
1,KXKXK,13,1,824,Correct,1,709
1,ZYZYZ,152,1,686,Correct,1,894
1,VKVKV,153,1,717,Correct,1,755
1,YZYZY,154,2,1227,Incorrect,1,734
1,NLNZN,161,2,1092,Correct,1,797
1,ZNDYZ,233,2,1045,Correct,1,749
1,PCPXP,222,2,699,Correct,1,669
1,ZVZFZ,162,2,588,Correct,1,747
1,RCRZR,163,2,575,Correct,1,711
1,LRLRL,151,2,599,Incorrect,1,683
1,ZDZDZ,10,3,728,Correct,1,755
1,RNRZR,14,2,755,Correct,1,874
1,CXCYC,162,2,922,Correct,1,921
1,RCRLR,163,2,879,Correct,1,825
1,FRFRF,151,1,721,Correct,1,932
1,XFXFX,152,1,730,Correct,1,892
1,RPRLR,161,2,723,Correct,1,873
1,YXYRY,162,2,830,Correct,1,806
1,FYFYF,151,1,874,Correct,1,686
1,YZYVY,161,2,813,Correct,1,916
1,YKYKY,151,1,827,Correct,1,657
1,XRXRX,152,2,1076,Incorrect,1,792
1,XVXZX,161,2,896,Correct,1,843
1,PDPDP,11,3,699,Correct,1,673
1,ZFZFZ,13,1,707,Correct,1,942
1,PXPXP,152,1,656,Correct,1,803
1,LYLYL,153,1,732,Correct,1,883
1,NKNKD,225,1,973,Correct,1,708
1,ZNZNZ,113,1,659,Correct,1,681
1,PYPZP,161,2,747,Correct,1,948
1,XPXPX,151,1,632,Correct,1,750
1,VLVLV,152,1,803,Correct,1,874
1,PKPXP,161,2,786,Correct,1,697
1,FZFZF,151,1,783,Correct,1,688
1,LDLDL,12,1,520,Incorrect,1,843
2,U,5,3,9203,New Target,2,819
2,ZVZFZ,161,2,712,Correct,2,683
2,FZFZF,151,1,807,Correct,2,800
2,RFRFR,152,1,866,Correct,2,724
2,NZNKN,161,2,746,Correct,2,748
2,FZFNF,162,2,675,Correct,2,833
2,RXRXR,151,1,749,Correct,2,878
2,KRKYK,161,2,634,Correct,2,760
2,NZNPN,162,2,842,Correct,2,789
2,XPXPX,151,1,687,Correct,2,835
2,CUCUC,7,3,637,Correct,2,771
2,RFRFR,13,1,835,Correct,2,657
2,VYVXV,161,2,713,Correct,2,823
2,VDVDV,191,2,987,Incorrect,2,717
2,ZKZRZ,15,2,716,Correct,2,829
2,XCXCX,151,1,634,Correct,2,735
2,CNCUC,82,3,694,Correct,2,863
2,RCRCR,13,1,689,Correct,2,923
2,ZPZXZ,161,2,724,Correct,2,658
2,FKFYF,162,2,791,Correct,2,677
2,ZFZYZ,163,2,976,Correct,2,784
2,PXPXP,151,1,703,Correct,2,872
2,URCKC,231,2,1021,Correct,2,765
2,PCPCP,113,3,667,Incorrect,2,876
2,XNXNX,152,1,1134,Correct,2,670
2,RCRZR,161,2,798,Correct,2,690
2,XVXVX,151,2,888,Incorrect,2,767
2,NRNRN,152,1,846,Correct,2,831
2,FPFPF,225,1,726,Correct,2,759
2,XVXFX,222,2,1073,Correct,2,926
2,PRPRP,151,1,707,Correct,2,662
2,FYFCF,161,2,854,Correct,2,675
2,XUXFX,91,3,505,Correct,2,908
2,CYCVC,14,2,873,Correct,2,898
2,VDVKV,172,2,909,Correct,2,819
2,YCYCY,15,1,643,Correct,2,732
2,NKNLN,161,2,726,Correct,2,719
2,XPUKX,233,3,519,Incorrect,2,710
2,ZPZPZ,113,1,875,Correct,2,851
2,KRKRK,152,1,785,Correct,2,809
2,XKXKX,153,1,844,Correct,2,722
2,YUYVY,101,3,786,Correct,2,853
2,XKXFU,235,2,866,Correct,2,689
2,NFNFN,113,1,760,Correct,2,877
2,KDKDK,193,1,592,Correct,2,901
2,XYXKX,16,2,723,Correct,2,728
2,YZUZY,223,1,801,Correct,2,723
2,KFKVK,222,2,872,Correct,2,867
2,LYLYL,151,1,702,Correct,2,861
2,CXCDC,184,2,890,Incorrect,2,777
2,XZXNX,16,2,753,Correct,2,814
2,PXPXP,151,1,891,Correct,2,788
2,ZRZYZ,161,2,849,Correct,2,776
2,PUPYP,111,3,819,Correct,2,938
2,RNRNR,14,1,717,Correct,2,746
2,KDKDK,195,1,656,Correct,2,655
2,KNKNK,15,1,651,Correct,2,936
2,PRPKP,161,2,719,Correct,2,704
2,UNYNY,221,1,978,Correct,2,662
2,NYNYN,113,2,817,Incorrect,2,855
2,YXYXY,152,1,950,Incorrect,2,915
2,RDRDR,196,1,602,Correct,2,814
2,FCFCF,15,1,710,Correct,2,900
2,ZKZKZ,152,1,609,Correct,2,894
2,ZUZUZ,12,3,677,Correct,2,729
3,E,5,3,5059,New Target,3,845
3,YZYZY,151,1,813,Correct,3,932
3,VFVNV,161,2,740,Correct,3,883
3,KYKYK,151,1,795,Correct,3,892
3,NKNKN,152,1,618,Correct,3,691
3,XVXNX,161,2,781,Correct,3,750
3,RERFR,71,3,581,Correct,3,821
3,XNXNX,13,1,642,Correct,3,920
3,NXNXN,152,1,699,Correct,3,929
3,ZLZNZ,161,2,760,Correct,3,761
3,CUCNC,171,2,1158,Correct,3,714
3,FYFRF,16,2,799,Correct,3,917
3,ZLZLZ,151,1,599,Correct,3,846
3,YZYZY,152,3,598,Incorrect,3,869
3,CYCYC,153,1,844,Correct,3,705
3,VUVUV,192,1,1247,Correct,3,926
3,PXPRP,16,2,758,Correct,3,811
3,YPYPY,151,1,643,Correct,3,721
3,CECEC,8,3,638,Correct,3,887
3,VNENV,223,2,658,Incorrect,3,714
3,KRKFK,222,2,725,Correct,3,653
3,XLXLE,225,1,829,Correct,3,881
3,RFRUR,183,2,929,Correct,3,933
3,XRXLX,16,2,1140,Correct,3,833
3,NZNPN,162,2,643,Correct,3,786
3,XZXZX,151,1,749,Correct,3,930
3,FZFZF,152,1,620,Correct,3,703
3,PFPFP,153,1,881,Correct,3,663
3,YZYXY,161,2,623,Correct,3,662
3,KEKEK,9,3,467,Correct,3,679
3,CXCPC,14,2,679,Correct,3,820
3,VXVXV,151,1,688,Correct,3,910
3,NUNZN,174,2,624,Correct,3,688
3,RKRVR,16,2,684,Correct,3,909
3,XRXRX,151,1,783,Correct,3,673
3,ERNFN,231,2,709,Incorrect,3,867
3,YRYNY,222,2,637,Correct,3,897
3,PZPEP,102,3,818,Correct,3,670
3,ZYZXZ,14,2,726,Correct,3,875
3,RZRVR,162,2,628,Correct,3,748
3,XRXRX,151,1,744,Correct,3,684
3,KUKFK,175,2,671,Correct,3,934
3,RKRKR,15,1,770,Correct,3,708
3,ZFZFZ,152,2,767,Incorrect,3,688
3,YZYVY,161,2,637,Correct,3,660
3,XPXNX,162,2,633,Correct,3,926
3,YRYRY,151,1,683,Correct,3,772
3,EPVPV,221,1,728,Correct,3,783
3,CRCEC,112,3,722,Correct,3,868
3,RFRCR,14,2,745,Correct,3,916
3,CPCVC,162,2,707,Correct,3,878
3,RXRCR,163,1,1061,Incorrect,3,652
3,VNVLV,164,2,788,Correct,3,842
3,ZXZXZ,151,1,914,Correct,3,725
3,ZCZCZ,152,1,619,Correct,3,703
3,PYPUP,186,2,1032,Correct,3,858
3,YKYPY,16,2,638,Correct,3,704
3,YREXY,233,2,775,Correct,3,948
3,ZKZKZ,113,1,653,Correct,3,902
3,XLXNX,161,2,817,Correct,3,709
3,KFKRE,235,2,941,Correct,3,695
3,RXRLR,222,2,623,Correct,3,816
3,RERXR,121,3,851,Correct,3,687
4,J,5,3,8301,New Target,4,790
4,CYCVC,161,2,653,Correct,4,790
4,RXRCR,162,2,975,Correct,4,739
4,FPFVF,163,2,781,Correct,4,885
4,LZLZL,151,1,962,Correct,4,922
4,PLPLP,152,1,827,Correct,4,674
4,NPNPN,153,1,745,Correct,4,681
4,XZXZX,161,1,788,Incorrect,4,872
4,CNCKC,162,2,701,Correct,4,827
4,PCPYJ,235,2,1034,Correct,4,854
4,VYVYV,113,1,608,Correct,4,667
4,RLRLR,152,1,638,Correct,4,848
4,CJCJC,7,3,558,Correct,4,768
4,ZLZLZ,13,1,654,Correct,4,891
4,FZFZF,152,1,590,Correct,4,717
4,CFCFC,153,1,544,Correct,4,829
4,PZPZP,154,1,643,Correct,4,856
4,XEXEX,191,1,969,Correct,4,673
4,NVNFN,16,2,727,Correct,4,949
4,KYKYK,151,1,614,Correct,4,706
4,ZNZVZ,161,2,710,Correct,4,775
4,YVJXY,233,2,1205,Correct,4,802
4,XFXFX,113,1,602,Correct,4,940
4,XNXNX,152,1,590,Correct,4,717
4,FJFKF,81,3,831,Correct,4,802
4,CZCYC,14,2,612,Correct,4,862
4,ZXZCZ,162,2,568,Correct,4,683
4,RYRYJ,225,1,814,Correct,4,706
4,FPFZF,222,2,762,Correct,4,729
4,XRXRX,151,1,639,Correct,4,932
4,YPYEY,182,2,573,Correct,4,939
4,XRXRX,15,1,671,Correct,4,767
4,XZXPX,161,2,588,Correct,4,894
4,CJCJC,9,3,568,Correct,4,925
4,ZXZVZ,14,2,606,Correct,4,693
4,VKVKV,151,1,706,Correct,4,692
4,VEVNV,173,2,593,Correct,4,681
4,ZKZVZ,16,2,656,Correct,4,908
4,XVXJX,102,3,851,Correct,4,677
4,RXRVR,14,2,709,Correct,4,884
4,LRLRL,151,1,640,Correct,4,822
4,YNJNY,223,1,657,Correct,4,734
4,NPNJN,222,3,643,Incorrect,4,704
4,ZEZEZ,194,1,751,Correct,4,887
4,ZNZNZ,15,1,534,Correct,4,858
4,YZYZY,152,1,565,Correct,4,925
4,XYXYX,153,1,600,Correct,4,782
4,ZXZXZ,221,1,693,Correct,4,945
4,LYLZL,222,2,744,Correct,4,691
4,CYCNC,162,2,743,Correct,4,705
4,XEXEX,195,1,594,Correct,4,842
4,CVCXC,16,2,646,Correct,4,729
4,ZPZXZ,162,2,644,Correct,4,798
4,FZFZF,151,1,686,Correct,4,910
4,RXRJR,112,3,891,Correct,4,855
4,PRPFP,14,2,867,Correct,4,772
4,PKPEP,186,2,772,Correct,4,945
4,XZXPX,16,2,510,Correct,4,798
4,JCZVZ,231,2,579,Correct,4,768
4,RXRLR,222,2,616,Correct,4,743
4,VZVZV,151,1,642,Correct,4,926
4,XJXJX,12,1,542,Incorrect,4,947
5,I,5,3,2941,New Target,5,914
5,PCPCP,151,1,651,Correct,5,948
5,XYXYX,152,1,714,Correct,5,792
5,VXVXV,153,1,981,Correct,5,855
5,XVXVX,154,1,744,Correct,5,748
5,ZRZXZ,161,2,655,Correct,5,921
5,FPFZF,162,2,656,Correct,5,771
5,ZYZYZ,151,1,683,Correct,5,832
5,RVRZR,161,2,687,Correct,5,694
5,CICIC,7,3,564,Correct,5,660
5,XLXLX,13,1,902,Correct,5,760
5,YVYVY,152,1,626,Correct,5,661
5,CJCJC,191,1,1128,Correct,5,653
5,FNFCF,16,2,662,Correct,5,738
5,PVPRP,162,2,614,Correct,5,778
5,FZFZF,151,1,632,Correct,5,794
5,NVIVN,223,1,983,Correct,5,869
5,CVCIC,82,3,1019,Correct,5,789
5,ZXZXZ,13,2,665,Incorrect,5,878
5,FCFZF,161,2,706,Correct,5,899
5,IXRXR,221,1,868,Correct,5,721
5,ZPZNZ,222,2,631,Correct,5,874
5,VZVZV,151,1,587,Correct,5,719
5,YRYNY,161,2,867,Correct,5,666
5,VNVPV,162,2,743,Correct,5,825
5,RVRJR,182,2,1193,Correct,5,690
5,VRVRV,15,1,757,Correct,5,745
5,VIVIV,9,3,638,Correct,5,862
5,CXCVC,14,2,587,Correct,5,833
5,PZPZP,151,1,624,Correct,5,700
5,IXVKV,231,2,997,Correct,5,684
5,YJYCY,173,2,714,Incorrect,5,716
5,VYVYV,15,1,548,Correct,5,926
5,YVYVY,152,2,954,Incorrect,5,715
5,NVNVN,153,1,689,Correct,5,755
5,XYXVX,161,2,803,Correct,5,693
5,NJNCN,174,2,1145,Correct,5,834
5,NXNYN,16,2,691,Correct,5,821
5,VXVCV,162,2,646,Correct,5,670
5,ZKZKZ,151,1,681,Correct,5,699
5,XRXYX,161,2,626,Correct,5,912
5,ZCZXZ,162,2,597,Correct,5,765
5,KVKYI,235,2,771,Correct,5,803
5,CNCNC,113,1,618,Correct,5,921
5,RIRIR,10,3,438,Correct,5,892
5,VYVXV,14,2,459,Correct,5,908
5,FXIRF,233,2,490,Correct,5,946
5,PFPFP,113,1,751,Correct,5,834
5,VPVPV,152,1,599,Correct,5,877
5,ZJZJZ,195,2,956,Incorrect,5,665
5,ZVZNZ,16,2,684,Correct,5,897
5,YVYXY,162,2,668,Correct,5,702
5,PRPRP,151,1,725,Correct,5,901
5,YPYPY,152,1,709,Correct,5,739
5,ZIZPZ,111,3,691,Correct,5,802
5,NKNXN,14,2,883,Correct,5,725
5,RZRXR,162,2,659,Correct,5,933
5,RXRXR,151,1,751,Correct,5,851
5,ZJZJZ,196,1,796,Correct,5,740
5,CVCVI,225,2,580,Correct,5,848
5,NKNKN,113,1,740,Correct,5,837
5,NRNZN,161,2,727,Correct,5,670
5,CNCNC,151,1,576,Correct,5,830
5,RFRIR,122,3,848,Correct,5,828
6,B,5,3,1186,New Target,6,683
6,YKYZY,161,2,795,Correct,6,759
6,VCVRV,162,2,689,Correct,6,885
6,XVXVX,151,1,724,Correct,6,672
6,KZKRK,161,2,589,Correct,6,799
6,ZVZXZ,162,2,733,Correct,6,794
6,RCRNR,163,2,916,Correct,6,917
6,CXCRC,164,2,811,Correct,6,745
6,VNBCV,233,2,1016,Correct,6,755
6,CXCVC,222,2,574,Correct,6,708
6,RFRFR,151,1,556,Correct,6,930
6,XPXRX,161,2,672,Correct,6,770
6,RYRBR,72,3,817,Correct,6,666
6,ZKZKZ,13,1,598,Correct,6,877
6,FIFRF,171,2,770,Correct,6,893
6,VZVLV,16,2,684,Correct,6,807
6,RPRVR,162,2,701,Correct,6,728
6,YBYBY,8,3,573,Correct,6,677
6,PYPVP,14,2,623,Correct,6,853
6,NININ,192,2,884,Incorrect,6,698
6,RNRNR,15,1,793,Correct,6,864
6,NXNVN,161,2,599,Correct,6,719
6,RNRNR,151,1,692,Correct,6,937
6,FRFVF,161,2,627,Correct,6,727
6,YVYFB,235,2,724,Incorrect,6,810
6,ZRZXZ,222,2,808,Correct,6,707
6,VNVIV,193,1,641,Correct,6,724
6,PXPNP,16,2,637,Correct,6,905
6,ZXZPZ,162,2,583,Correct,6,929
6,VBVBV,9,3,490,Correct,6,792
6,CXCXC,13,1,707,Correct,6,728
6,PCPFP,161,2,563,Correct,6,740
6,KNKNK,151,1,552,Correct,6,728
6,XIXIX,194,1,860,Correct,6,775
6,CYCYC,15,1,593,Correct,6,847
6,FVFYF,161,2,804,Correct,6,786
6,YNYRY,162,2,637,Correct,6,846
6,BVPXP,231,2,611,Correct,6,665
6,NXNXN,113,1,608,Correct,6,883
6,FRFRF,152,1,707,Correct,6,753
6,YVYVY,153,1,575,Correct,6,788
6,ZKZCZ,161,2,515,Correct,6,728
6,VIVXV,175,2,593,Correct,6,918
6,PRBRP,223,1,1094,Correct,6,778
6,YZYBY,102,2,598,Incorrect,6,770
6,CXCVC,14,2,725,Correct,6,850
6,FYFYF,151,1,669,Correct,6,899
6,VKVXV,161,2,876,Correct,6,757
6,ZBZBZ,11,3,453,Correct,6,714
6,FPFNF,14,2,533,Correct,6,934
6,CXCXC,151,1,743,Correct,6,841
6,YCYCY,152,1,814,Correct,6,885
6,FPFPF,153,1,538,Correct,6,706
6,CVCVB,225,1,783,Correct,6,740
6,ZCZCZ,113,1,698,Correct,6,814
6,CZCNC,161,2,773,Correct,6,883
6,KIKFK,176,2,706,Correct,6,724
6,PXPXP,15,1,754,Correct,6,802
6,RYRYR,152,1,668,Correct,6,821
6,ZRZCZ,161,2,608,Correct,6,696
6,RVRVR,151,1,718,Correct,6,904
6,XYXNX,161,2,632,Correct,6,835
6,BVKVK,221,1,600,Correct,6,828
6,CBCBC,12,3,856,Correct,6,797
7,W,5,3,6394,New Target,7,940
7,RKRKR,151,1,673,Correct,7,682
7,CVCRC,161,2,622,Correct,7,858
7,PKPKP,151,1,588,Correct,7,864
7,FPFPF,152,1,733,Correct,7,796
7,VRVPV,161,2,838,Correct,7,831
7,ZKZYZ,162,2,739,Correct,7,699
7,PVPCP,233,2,714,Correct,7,881
7,KVKVK,113,1,1002,Correct,7,702
7,YXYVY,161,2,912,Correct,7,690
7,FNFNF,151,1,698,Correct,7,701
7,YWYWY,7,3,516,Correct,7,914
7,ZYZYZ,13,1,570,Correct,7,755
7,PYPYP,152,1,686,Correct,7,789
7,XRXRX,153,1,839,Correct,7,927
7,PXPXP,154,1,754,Correct,7,779
7,FCFBF,181,2,657,Correct,7,677
7,FVFVF,15,1,785,Correct,7,801
7,CYCZC,161,2,685,Correct,7,748
7,XZXVX,162,2,761,Correct,7,826
7,PFPFP,151,1,618,Correct,7,664
7,RVRLR,161,2,603,Correct,7,763
7,ZBZBZ,192,1,1263,Correct,7,753
7,VCVNV,16,2,662,Correct,7,845
7,NWNWN,8,3,759,Correct,7,769
7,XNXVX,14,2,659,Correct,7,829
7,CXCNC,162,2,645,Correct,7,691
7,YVYVW,225,1,978,Correct,7,857
7,VFVFV,113,1,693,Correct,7,844
7,VFWFV,223,1,839,Correct,7,719
7,CVCFC,222,2,812,Correct,7,864
7,YBYBY,193,1,947,Correct,7,894
7,PYPYP,15,1,601,Correct,7,771
7,NKNWN,91,3,1095,Correct,7,833
7,VNVNV,13,1,642,Correct,7,914
7,RVRVR,152,1,789,Correct,7,689
7,FVFBF,184,2,604,Incorrect,7,853
7,VZVKV,16,2,750,Correct,7,798
7,VPVCV,162,2,629,Correct,7,891
7,WYZCZ,231,2,824,Correct,7,703
7,PFPFP,113,1,581,Correct,7,736
7,PRPRP,152,1,582,Correct,7,770
7,NWNWN,10,3,539,Correct,7,711
7,VKVCV,14,2,519,Correct,7,933
7,WPYPY,221,1,631,Correct,7,882
7,VBVBV,195,1,619,Correct,7,663
7,ZKZYZ,16,2,590,Correct,7,787
7,XYXYX,151,1,769,Correct,7,777
7,FZFXF,161,2,624,Correct,7,673
7,XKXKX,151,1,657,Correct,7,828
7,XPXPX,152,1,709,Correct,7,654
7,FWFWF,11,3,693,Correct,7,731
7,FNFBF,186,2,544,Correct,7,854
7,ZVZYZ,16,2,667,Correct,7,650
7,FZFZF,151,1,632,Correct,7,865
7,NPNFW,235,2,707,Correct,7,884
7,PCPCP,113,1,589,Correct,7,876
7,NKNWN,122,3,587,Correct,7,902
8,M,5,3,2630,New Target,8,773
8,VYVNV,161,2,825,Correct,8,915
8,KLKNK,162,2,775,Correct,8,683
8,NRNRN,151,1,724,Correct,8,759
8,VNVFV,161,2,638,Correct,8,830
8,XNXNM,225,1,849,Correct,8,738
8,CXCVC,222,2,664,Correct,8,811
8,KRKZK,162,2,659,Correct,8,860
8,NMNFN,71,3,637,Correct,8,935
8,ZFZFZ,13,1,589,Correct,8,748
8,YPYCY,161,2,585,Correct,8,924
8,KCKCK,151,1,537,Correct,8,786
8,VNVNV,152,1,778,Correct,8,908
8,LXLXL,153,1,633,Correct,8,756
8,CLCLC,154,1,691,Correct,8,930
8,NYNYN,155,1,546,Correct,8,723
8,LCMYL,233,2,600,Correct,8,782
8,NCNCN,113,1,551,Correct,8,823
8,ZVZRZ,161,2,605,Correct,8,685
8,ZVZVZ,151,1,539,Correct,8,884
8,PZPVP,161,2,620,Correct,8,859
8,PWPNP,171,2,858,Correct,8,816
8,KLKCM,235,2,658,Correct,8,738
8,XMXMX,8,3,560,Correct,8,827
8,PRPXP,14,2,577,Correct,8,827
8,CVCYC,162,2,758,Correct,8,754
8,PXPMP,92,3,688,Correct,8,786
8,ZCZLZ,14,2,555,Correct,8,861
8,XWXWX,192,2,957,Incorrect,8,913
8,ZCZLZ,16,2,639,Correct,8,778
8,MNCYC,231,2,1154,Correct,8,813
8,ZXZXZ,113,1,589,Correct,8,776
8,YRYNY,161,2,796,Correct,8,861
8,ZLZPZ,162,2,539,Correct,8,670
8,VZVZV,151,1,597,Correct,8,677
8,MXPXP,221,1,821,Correct,8,844
8,VWVWV,193,1,747,Correct,8,890
8,PYPYP,16,1,618,Incorrect,8,743
8,XPXVX,162,2,569,Correct,8,873
8,XLXLX,151,1,528,Correct,8,687
8,YMYMY,10,3,436,Correct,8,800
8,VYVYV,13,1,672,Correct,8,650
8,PWPZP,174,2,435,Correct,8,680
8,PYPKP,16,2,683,Correct,8,805
8,NPNXN,162,2,598,Correct,8,898
8,KVKVK,223,1,546,Correct,8,914
8,NVNFN,222,2,647,Correct,8,802
8,XNXNX,151,1,682,Correct,8,674
8,YZYMY,112,2,580,Incorrect,8,852
8,PFPFP,13,1,1059,Correct,8,870
8,ZWZWZ,195,2,1039,Incorrect,8,939
8,PCPZP,16,2,683,Correct,8,929
8,LRLPL,162,1,517,Incorrect,8,915
8,CZCZC,151,1,761,Correct,8,738
8,NZNZN,152,1,703,Correct,8,920
8,CVCXC,161,2,649,Correct,8,820
8,XCXCX,151,1,643,Correct,8,924
8,YWYWY,196,1,867,Correct,8,741
8,NLNLN,15,1,629,Correct,8,870
8,VNVNV,152,1,629,Correct,8,839
8,ZMZMZ,12,3,501,Correct,8,813
9,S,5,3,2934,New Target,9,694
9,NZNZN,151,1,776,Correct,9,851
9,KVKZK,161,2,690,Correct,9,834
9,LZLZL,151,1,635,Correct,9,895
9,XLXLX,152,1,832,Correct,9,713
9,ZXZXZ,153,1,827,Correct,9,713
9,KNKZK,161,2,721,Correct,9,920
9,NRNYN,162,2,610,Correct,9,661
9,CLCVC,163,2,662,Correct,9,725
9,ZCZFZ,164,2,698,Correct,9,683
9,NSNSN,7,3,683,Correct,9,676
9,VZVZV,13,1,917,Correct,9,928
9,NVNCN,161,2,667,Correct,9,735
9,VMVMV,191,3,637,Incorrect,9,730
9,CVCXC,16,2,727,Correct,9,905
9,ZYZRZ,162,2,853,Correct,9,779
9,XNXZX,163,2,770,Correct,9,656
9,PXPXP,151,1,659,Correct,9,655
9,VCVSV,82,3,658,Correct,9,787
9,PRPCP,14,2,623,Correct,9,875
9,ZMZMZ,192,1,941,Incorrect,9,813
9,ZFZFZ,15,1,575,Correct,9,830
9,FCFCF,152,1,546,Correct,9,846
9,YLYZY,161,2,598,Correct,9,783
9,KNKVK,162,2,587,Correct,9,656
9,SFPCP,231,2,684,Correct,9,798
9,RPRPR,113,1,679,Correct,9,871
9,XMXMX,193,1,611,Correct,9,862
9,KFKFK,15,1,643,Correct,9,811
9,VSVSV,9,3,665,Correct,9,704
9,YVSVY,223,1,731,Correct,9,680
9,VPVPV,113,1,504,Correct,9,747
9,XZXZX,152,1,540,Correct,9,799
9,KZKXK,161,2,627,Correct,9,708
9,RFRPR,162,2,792,Correct,9,685
9,NVNVS,225,2,685,Incorrect,9,910
9,ZXZXZ,113,1,575,Correct,9,681
9,SRVRV,221,1,966,Correct,9,733
9,YCYCY,113,1,551,Correct,9,856
9,KMKZK,174,2,615,Correct,9,828
9,FZSVF,233,2,836,Correct,9,905
9,VYVYV,113,1,558,Correct,9,726
9,LVLVL,152,1,560,Correct,9,857
9,YFYFY,153,1,537,Correct,9,677
9,NXNSN,102,3,654,Correct,9,766
9,FNFCF,14,2,579,Correct,9,674
9,KVKVK,151,1,672,Correct,9,897
9,VZVCV,161,2,598,Correct,9,682
9,ZYZMZ,185,2,626,Correct,9,838
9,VXVZV,16,2,549,Correct,9,742
9,VPVPV,151,1,517,Correct,9,854
9,RVRNS,235,2,562,Correct,9,938
9,YZYZY,113,1,531,Correct,9,863
9,ZSZSZ,11,3,419,Correct,9,919
9,FRFRF,13,1,596,Correct,9,891
9,ZMZMZ,196,2,551,Incorrect,9,811
9,NZNXN,16,2,632,Correct,9,813
9,LSLFL,121,3,678,Correct,9,879
10,Q,5,3,2654,New Target,10,904
10,ZVZPZ,161,2,609,Correct,10,850
10,RZRZR,151,1,671,Correct,10,888
10,ZFZFZ,152,1,651,Correct,10,874
10,RZRZR,153,1,597,Correct,10,913
10,PZPXP,161,2,771,Correct,10,890
10,VFQPV,233,2,844,Correct,10,761
10,ZPZRZ,222,2,836,Correct,10,778
10,CYCVC,162,2,669,Correct,10,716
10,CPCPC,151,1,635,Correct,10,770
10,YZYQY,72,3,698,Correct,10,783
10,FVFXF,14,2,643,Correct,10,890
10,YNYNQ,225,1,638,Correct,10,933
10,ZYZYZ,113,1,683,Correct,10,898
10,FRFSF,181,2,795,Incorrect,10,741
10,XNXPX,16,2,675,Correct,10,889
10,NXNXN,151,1,606,Correct,10,927
10,PVPZP,161,2,670,Correct,10,773
10,XVXPX,162,2,636,Correct,10,791
10,FXFVF,163,2,718,Correct,10,761
10,NSNKN,172,2,717,Incorrect,10,818
10,VXVNV,16,2,615,Correct,10,800
10,XZXZX,151,1,577,Correct,10,934
10,VQVQV,8,3,653,Correct,10,923
10,ZYZPZ,14,2,560,Correct,10,692
10,PZPSP,183,2,580,Correct,10,723
10,YVYVY,15,1,569,Correct,10,748
10,NCNQN,92,3,683,Correct,10,842
10,FCFVF,14,2,790,Correct,10,893
10,ZFZFZ,151,1,530,Correct,10,807
10,NSNSN,194,1,548,Correct,10,834
10,YPYFY,16,2,626,Correct,10,871
10,ZKZKZ,151,1,628,Correct,10,723
10,QZRCR,231,2,801,Correct,10,911
10,YPYVY,222,2,506,Correct,10,758
10,ZNZNZ,151,1,624,Correct,10,816
10,VQVQV,10,3,556,Correct,10,876
10,RVRZR,14,2,527,Correct,10,830
10,KRKSK,185,2,517,Correct,10,700
10,NPNPN,15,1,452,Correct,10,906
10,YPYPY,152,1,545,Correct,10,682
10,VCVYV,161,2,501,Correct,10,813
10,FPFNF,162,2,659,Correct,10,929
10,QVXVX,221,1,745,Correct,10,676
10,ZVZRZ,222,2,460,Correct,10,661
10,LFLFL,151,1,534,Correct,10,684
10,VLVLV,152,1,542,Correct,10,698
10,KXQXK,223,1,562,Correct,10,745
10,YQYQY,11,3,551,Correct,10,717
10,YCYCY,13,1,573,Correct,10,688
10,PZPYP,161,2,582,Correct,10,663
10,LPLFL,162,2,620,Correct,10,662
10,VSVSV,196,1,530,Correct,10,665
10,VFVYQ,235,2,551,Correct,10,811
10,CZCXC,222,2,605,Correct,10,727
10,PVPCP,162,2,652,Correct,10,908
10,CXCXC,151,1,522,Correct,10,853
10,NZNZN,152,1,587,Correct,10,895
10,YPYCY,161,2,489,Correct,10,826
10,ZQZQZ,12,3,655,Correct,10,796
11,T,5,3,2344,New Target,11,791
11,KFKFK,151,1,633,Correct,11,734
11,LZLZL,152,1,539,Correct,11,689
11,PFPVP,161,2,590,Correct,11,774
11,FRFPF,162,2,656,Correct,11,839
11,FZFZF,151,1,552,Correct,11,864
11,VTVTV,7,3,745,Correct,11,813
11,KYKCK,14,2,614,Correct,11,820
11,VPVPV,151,1,597,Correct,11,807
11,XQXQX,191,1,981,Correct,11,833
11,PZPYP,16,2,603,Correct,11,755
11,KXKLK,162,2,572,Correct,11,796
11,TCNCN,221,1,508,Correct,11,841
11,PZPNP,222,2,668,Correct,11,908
11,RCRPR,162,2,475,Correct,11,760
11,PZPRT,235,2,533,Correct,11,695
11,XFXVX,222,2,665,Correct,11,746
11,LTLVL,81,2,534,Incorrect,11,833
11,ZCZPZ,14,2,525,Correct,11,719
11,NCNQN,182,2,591,Correct,11,850
11,XZXNX,16,2,529,Correct,11,778
11,ZPZPZ,151,2,453,Incorrect,11,817
11,CFCFC,152,1,559,Correct,11,684
11,VXTRV,233,2,544,Correct,11,850
11,CFCVC,222,2,547,Correct,11,812
11,PYPYP,151,1,646,Correct,11,783
11,FQFYF,173,2,759,Correct,11,745
11,CNCFC,16,2,653,Correct,11,898
11,PTPTP,9,3,844,Correct,11,850
11,ZCZCZ,13,1,566,Correct,11,751
11,KZKZK,152,1,571,Correct,11,716
11,RLRVR,161,2,550,Correct,11,932
11,ZRZKZ,162,2,605,Correct,11,680
11,KLKLT,225,1,526,Correct,11,784
11,ZQZQZ,194,1,739,Correct,11,752
11,VZVZV,15,1,532,Correct,11,684
11,RVRZR,161,2,601,Correct,11,774
11,ZPZCZ,162,2,663,Correct,11,918
11,VYVYV,151,1,743,Correct,11,758
11,RVRVR,152,1,744,Correct,11,671
11,PTPTP,10,3,704,Correct,11,837
11,PXPXP,13,1,656,Correct,11,727
11,KCKCK,152,1,554,Correct,11,917
11,YVYVY,153,1,690,Correct,11,698
11,CYCYC,154,1,555,Correct,11,868
11,XCXCX,155,1,522,Correct,11,921
11,CYCQC,185,2,622,Correct,11,823
11,KCKNK,16,2,613,Correct,11,693
11,VPVPV,151,1,602,Correct,11,679
11,TXFZF,231,2,598,Correct,11,945
11,NYNVN,222,2,646,Correct,11,797
11,VQVXV,176,2,724,Correct,11,786
11,ZRZRZ,15,1,869,Correct,11,714
11,VTVZV,111,2,602,Incorrect,11,810
11,PXPVP,14,2,570,Correct,11,845
11,FVFVF,151,2,736,Incorrect,11,757
11,VRVLV,161,2,730,Correct,11,831
11,YCYCY,151,1,546,Correct,11,874
11,XZTZX,223,1,1093,Correct,11,835
11,VTVTV,12,3,525,Correct,11,928
12,O,5,3,3085,New Target,12,851
12,VXVLV,161,2,717,Correct,12,846
12,KVKCK,162,2,661,Correct,12,935
12,VLVLV,151,1,675,Correct,12,826
12,ZCZVZ,161,2,579,Correct,12,751
12,KFKFK,151,1,633,Correct,12,702
12,XKXKX,152,1,520,Correct,12,764
12,YXYXY,153,1,555,Correct,12,856
12,FVFVF,154,1,675,Correct,12,672
12,PVPOP,72,3,625,Correct,12,804
12,ZXZYZ,14,2,638,Correct,12,869
12,PXPVP,162,2,635,Correct,12,871
12,ZTZTZ,191,1,584,Correct,12,879
12,CVCKC,16,2,644,Correct,12,914
12,CKCKC,151,2,546,Incorrect,12,820
12,NPNPN,152,1,596,Correct,12,844
12,ZRZNZ,161,2,656,Correct,12,916
12,OZCZC,221,1,948,Correct,12,703
12,LFLFL,113,1,531,Correct,12,923
12,CXCXC,152,1,535,Correct,12,779
12,KPKPK,153,1,556,Correct,12,758
12,FRFKF,161,2,614,Correct,12,662
12,FOFOF,8,3,482,Correct,12,950
12,ZFZFZ,13,1,485,Correct,12,814
12,LKLZO,235,2,537,Correct,12,844
12,KLKZK,222,2,604,Correct,12,818
12,YXYCY,162,2,591,Correct,12,820
12,LOLOL,9,1,546,Incorrect,12,752
12,XLXLX,13,1,537,Correct,12,755
12,XVXVX,152,1,540,Correct,12,823
12,FTFTF,192,1,523,Correct,12,919
12,OXNZN,231,2,876,Correct,12,882
12,CZCZC,113,1,613,Correct,12,760
12,LZLZL,152,1,539,Correct,12,704
12,VLVPV,161,2,561,Correct,12,683
12,VYVYO,225,2,501,Incorrect,12,800
12,XKXKX,113,1,503,Correct,12,887
12,RTRTR,193,1,717,Correct,12,733
12,KVKCK,16,2,623,Correct,12,653
12,ROROR,101,3,643,Correct,12,665
12,PRPRP,13,1,614,Correct,12,705
12,LYLVL,161,2,662,Correct,12,795
12,PLPLP,151,3,935,Incorrect,12,735
12,CTCTC,194,1,943,Correct,12,699
12,XZXYX,16,2,647,Correct,12,746
12,NKNKN,151,1,726,Correct,12,815
12,VLVZV,161,2,595,Correct,12,809
12,YOYOY,11,3,575,Correct,12,920
12,PZOZP,223,2,566,Incorrect,12,705
12,FYFYF,113,1,536,Correct,12,830
12,ZXZVZ,161,2,683,Correct,12,819
12,VKVZV,162,2,669,Correct,12,705
12,ZTZTZ,195,1,541,Correct,12,804
12,LKLZL,16,2,557,Correct,12,825
12,KCKVK,162,2,558,Correct,12,893
12,PXPKP,163,2,721,Correct,12,770
12,KCOZK,233,2,847,Correct,12,702
12,FKFKF,113,1,708,Correct,12,829
12,CTCRC,176,2,882,Correct,12,821
12,NXNXN,15,1,781,Correct,12,701
12,KXKVK,161,2,652,Correct,12,687
12,CPCOC,122,3,541,Correct,12,751
13,H,5,3,10431,New Target,13,679
13,VFVNV,151,2,724,Incorrect,13,760
13,YVYVY,152,1,719,Correct,13,778
13,XVXVX,153,1,591,Correct,13,729
13,NRNXN,161,2,692,Correct,13,743
13,PZPKP,162,2,646,Correct,13,675
13,HLVLV,221,3,617,Incorrect,13,718
13,CXCZC,222,2,611,Correct,13,933
13,LHLYL,71,3,736,Correct,13,936
13,YKYFY,14,2,618,Correct,13,842
13,YOYRY,171,2,624,Correct,13,670
13,ZKZYZ,16,2,609,Correct,13,794
13,RZRZR,151,1,644,Correct,13,773
13,NFNYN,161,2,661,Correct,13,725
13,KVKFK,162,2,654,Correct,13,910
13,XFXYX,163,2,638,Correct,13,811
13,LKLVL,164,2,608,Correct,13,754
13,NLNLN,151,1,583,Correct,13,673
13,XCXOX,182,2,557,Correct,13,669
13,FXFXF,15,1,622,Correct,13,859
13,VHVHV,8,1,540,Incorrect,13,837
13,PVPVP,13,1,713,Correct,13,947
13,CRCXC,161,2,657,Correct,13,885
13,NXNXN,151,1,591,Correct,13,830
13,XRXRX,152,1,732,Correct,13,884
13,YFYXY,161,2,649,Correct,13,781
13,ZOZOZ,193,1,821,Correct,13,934
13,RZRZR,15,1,571,Correct,13,832
13,FKFKF,152,1,641,Correct,13,676
13,PFPFP,153,1,622,Correct,13,895
13,XYXHX,92,3,752,Correct,13,713
13,RZRKR,14,2,701,Correct,13,791
13,FLFLH,225,1,619,Correct,13,813
13,KRKRK,113,1,613,Correct,13,919
13,ZVZNZ,161,2,690,Correct,13,915
13,ZOZOZ,194,1,1066,Correct,13,913
13,FZFZF,15,1,632,Correct,13,829
13,FHFKF,101,3,489,Correct,13,771
13,ZXHLZ,233,2,732,Correct,13,845
13,FKFXF,222,1,892,Incorrect,13,670
13,CFCYC,162,2,727,Correct,13,676
13,ZXZVZ,163,2,702,Correct,13,898
13,KCKOK,185,2,641,Correct,13,729
13,ZXZVH,235,2,810,Correct,13,932
13,CKCKC,113,1,611,Correct,13,814
13,ZXZCZ,161,2,615,Correct,13,683
13,YVYVY,151,1,773,Correct,13,893
13,RVHVR,223,1,960,Correct,13,804
13,ZRZRZ,113,1,585,Correct,13,724
13,ZHZHZ,11,3,774,Correct,13,891
13,VZVZV,13,1,1058,Correct,13,769
13,HZVRV,231,2,658,Correct,13,773
13,FVFVF,113,1,642,Correct,13,812
13,RNRCR,161,2,868,Correct,13,717
13,COCOC,196,3,832,Incorrect,13,698
13,VNVXV,16,2,701,Correct,13,663
13,XHXHX,12,3,556,Correct,13,794
14,G,5,3,4982,New Target,14,931
14,FZFZF,151,1,561,Correct,14,905
14,RPRVR,161,2,564,Correct,14,824
14,XCXCX,151,1,581,Correct,14,844
14,YXYXY,152,1,527,Correct,14,948
14,KZKZK,153,1,567,Correct,14,705
14,RYRKR,161,2,636,Correct,14,756
14,FYFNF,162,2,616,Correct,14,860
14,VKVKV,151,1,539,Correct,14,752
14,KPGPK,223,1,957,Correct,14,816
14,YNYNY,113,1,723,Correct,14,714
14,VYVYV,152,1,852,Correct,14,702
14,YCYXY,161,2,605,Correct,14,727
14,LKLGL,72,3,580,Correct,14,661
14,VXVXV,13,1,515,Correct,14,819
14,KCKVK,161,2,577,Correct,14,918
14,YKYKY,151,1,538,Correct,14,677
14,RHRXR,171,2,602,Correct,14,832
14,FVFCF,16,2,636,Correct,14,750
14,YXYGY,82,3,601,Correct,14,818
14,CLCLC,13,1,502,Correct,14,891
14,ZXZCZ,161,2,505,Correct,14,861
14,VLVFV,162,2,609,Correct,14,666
14,CPCPG,225,1,643,Correct,14,799
14,KHKNK,172,2,603,Correct,14,926
14,ZKZVZ,16,2,553,Correct,14,876
14,YKYLY,162,2,645,Correct,14,933
14,CNCNC,151,1,547,Correct,14,861
14,PGPGP,9,3,661,Correct,14,870
14,VPVPV,13,1,569,Correct,14,653
14,FXGRF,233,2,572,Correct,14,729
14,CYCVC,222,2,764,Correct,14,841
14,FNFNF,151,1,614,Correct,14,825
14,KFKCK,161,2,535,Correct,14,762
14,ZFZHZ,183,2,604,Correct,14,751
14,NXNXN,15,1,568,Correct,14,899
14,FNFNF,152,1,581,Correct,14,941
14,LXLNG,235,2,602,Correct,14,778
14,XKXVX,222,2,619,Correct,14,758
14,ZHZHZ,194,1,633,Correct,14,909
14,PFPFP,15,1,565,Correct,14,927
14,ZYZYZ,152,1,530,Correct,14,927
14,XPXVX,161,2,534,Correct,14,759
14,YCYCY,151,1,559,Correct,14,712
14,RGRGR,10,3,550,Correct,14,668
14,VRVRV,13,1,511,Correct,14,683
14,PKPNP,161,2,579,Correct,14,817
14,XGXGX,11,3,698,Correct,14,706
14,GZYVY,231,2,652,Correct,14,685
14,VCVNV,222,2,744,Correct,14,855
14,VHVHV,195,1,562,Correct,14,876
14,LXLNL,16,2,633,Correct,14,682
14,GKPKP,221,1,733,Correct,14,658
14,XRXPX,222,2,649,Correct,14,800
14,XNXNX,151,1,583,Correct,14,811
14,KHKNK,176,2,658,Incorrect,14,928
14,RZRZR,15,1,789,Correct,14,686
14,CGCFC,121,3,781,Correct,14,846
15,A,5,3,2322,New Target,15,807
15,XRXFX,161,2,571,Correct,15,720
15,RXRKR,162,2,537,Correct,15,852
15,YRYRY,151,1,658,Correct,15,724
15,XPXPX,152,1,763,Correct,15,892
15,RPRPR,153,1,538,Correct,15,754
15,NCNCN,154,1,607,Correct,15,747
15,RXRZR,161,2,573,Correct,15,901
15,NANAN,7,3,818,Correct,15,720
15,KCKYK,14,2,570,Correct,15,837
15,XKXFX,162,2,763,Correct,15,852
15,ZLZKZ,163,1,551,Incorrect,15,805
15,VCVZV,164,2,630,Correct,15,861
15,XCXVX,165,2,583,Correct,15,762
15,LKLZA,235,2,703,Correct,15,694
15,NCNCN,113,1,512,Correct,15,682
15,YGYGY,191,1,1540,Correct,15,801
15,VLVLV,15,1,501,Correct,15,714
15,XRXRX,152,1,491,Correct,15,733
15,KAKPK,81,3,531,Correct,15,717
15,YZAZY,233,1,1010,Incorrect,15,882
15,CFCFC,113,1,609,Correct,15,922
15,VNVLV,161,2,580,Correct,15,789
15,KPKVK,162,2,637,Correct,15,697
15,NCNRN,163,2,525,Correct,15,666
15,FGFGF,192,1,520,Correct,15,700
15,RCRYR,16,2,635,Correct,15,810
15,KRKCK,162,2,854,Correct,15,923
15,CRCRC,151,1,592,Correct,15,775
15,XPAPX,223,1,562,Correct,15,731
15,LPLXL,222,2,694,Correct,15,787
15,CGCVC,173,2,686,Correct,15,907
15,FKFZF,16,2,584,Correct,15,864
15,CACAC,9,3,534,Correct,15,922
15,XCXCX,13,1,619,Correct,15,706
15,AXRXR,221,1,580,Correct,15,950
15,NKNRN,222,2,620,Correct,15,663
15,KNKFK,162,2,633,Correct,15,905
15,KAKAK,10,3,644,Correct,15,927
15,ZCZRZ,14,2,560,Correct,15,907
15,RPRPR,151,1,502,Correct,15,701
15,NCNCN,152,1,525,Correct,15,734
15,RYRGR,184,2,554,Correct,15,928
15,VPVPV,15,1,527,Correct,15,788
15,RCRCA,225,1,514,Correct,15,859
15,KXKPK,222,2,476,Correct,15,685
15,NPNPN,151,1,576,Correct,15,817
15,YCYCY,152,1,662,Correct,15,670
15,PXPAP,112,3,519,Correct,15,775
15,ZCZNZ,14,2,537,Correct,15,870
15,KYKGK,185,2,495,Correct,15,769
15,ANLPL,231,2,885,Correct,15,817
15,CXCPC,222,2,529,Correct,15,663
15,YRYRY,151,1,696,Correct,15,665
15,LGLGL,196,1,520,Correct,15,749
15,VYVLV,16,2,598,Correct,15,925
15,KVKVK,151,1,745,Correct,15,707
15,RKRKR,152,1,683,Correct,15,688
15,VXVXV,153,1,1020,Correct,15,712
15,XAXAX,12,3,477,Correct,15,765
