Trial No,Stimulus,Trigger,Response,Response Time(ms),Correct,Block,Fixation Duration
Practice
OT Practice
1,SKSKS,15,1,708,Correct,0,765
1,DLDUD,16,,,False,0,825
1,PDPGP,16,2,791,Correct,0,726
1,MWMWM,15,1,703,Correct,0,807
1,FTFTF,15,1,788,Correct,0,921
1,AXAMA,16,2,846,Correct,0,711
1,RYRGR,16,2,739,Correct,0,755
1,DODOD,15,1,527,Correct,0,695
1,QTQAQ,16,1,739,False,0,702
1,YEYEY,15,1,618,Correct,0,837
2,GYGDG,16,2,730,Correct,0,665
2,SWSWS,15,1,494,Correct,0,885
2,HLHUH,16,2,658,Correct,0,713
2,DEDED,15,1,457,Correct,0,943
2,ZPZOZ,16,2,494,Correct,0,742
2,ATATA,15,1,530,Correct,0,755
2,QOQOQ,15,1,624,Correct,0,844
2,FPFGF,16,2,655,Correct,0,740
2,TRTET,16,1,541,False,0,713
2,DQDQD,15,1,1022,Correct,0,763
DT Practice
1,TKTKT,15,2,1125,False,0,714
1,SLSUS,16,2,1241,Correct,0,912
1,VZVGV,7,[2][2],[851][1587],False,0,749
1,XWXZX,7,[2][3],[893][1229],Correct,0,766
1,ATATA,15,1,1011,Correct,0,838
1,HXZMH,16,2,814,Correct,0,799
1,TZTZT,7,[1][3],[712][951],Correct,0,933
1,UOUOU,15,1,711,Correct,0,773
1,ZTWAW,16,2,586,Correct,0,927
1,RZRER,7,[2][3],[875][1099],Correct,0,750
2,JYJDJ,16,2,794,Correct,0,918
2,DWDWD,15,1,702,Correct,0,859
2,GNGNG,7,,,False,0,880
2,NEZEZ,16,1,961,Correct,0,861
2,RNROR,7,,,False,0,749
2,QTQNQ,7,,,False,0,904
2,HOHON,15,,,False,0,937
2,KPKGK,16,,,False,0,813
2,DRDED,16,,,False,0,784
2,LNLNL,7,,,False,0,816
4,GLGLG,15,2,951,False,0,870
4,DTDID,16,2,955,Correct,0,676
4,SMSGS,16,2,939,Correct,0,741
4,ZFZYZ,7,[2][3],[878][1118],Correct,0,759
4,TSTFT,7,[2][3],[1093][1317],Correct,0,800
4,OFOFO,7,[1][3],[1196][1420],Correct,0,793
4,WYFGW,16,2,835,Correct,0,672
4,WYWYW,15,2,854,False,0,798
4,MFMCM,7,[2][3],[1015][1223],Correct,0,942
4,HQHEH,16,2,822,Correct,0,676
1,TKTKT,15,1,1057,Correct,0,663
1,SLSUS,16,2,621,Correct,0,850
1,VZVGV,7,[2],[879],False,0,691
1,XWXZX,7,[1],[1449],False,0,770
1,ATATA,15,1,785,Correct,0,833
1,HXZMH,16,2,689,Correct,0,931
1,TZTZT,7,[1],[829],False,0,772
1,UOUOU,15,1,1432,Correct,0,885
1,ZTWAW,16,2,639,Correct,0,921
1,RZRER,7,[2],[800],False,0,886
2,JYJDJ,16,2,729,Correct,0,947
2,DWDWD,15,1,676,Correct,0,722
2,GNGNG,7,[1][3],[931][1155],Correct,0,863
2,NEZEZ,16,1,995,Correct,0,734
2,RNROR,7,[2][3],[906][1113],Correct,0,936
2,QTQNQ,7,[2][3],[650][921],Correct,0,848
2,HOHON,15,1,998,Correct,0,831
2,KPKGK,16,2,709,Correct,0,769
2,DRDED,16,2,961,Correct,0,709
2,LNLNL,7,[1][3],[737][993],Correct,0,805
Trials
1,D,5,3,1121,New Target,1,882
1,ZNZYZ,161,,,Incorrect,1,751
1,FZFZF,151,,,Incorrect,1,842
1,RKRKR,152,,,Incorrect,1,720
1,RXRNR,161,,,Incorrect,1,915
1,CNCFC,162,,,Incorrect,1,812
1,PDPDP,7,[16],[518],Incorrect,1,762
1,CPCFC,14,,,Incorrect,1,691
1,VLVNV,162,,,Incorrect,1,712
1,KFKFK,151,,,Incorrect,1,736
1,ZNZNZ,152,,,Incorrect,1,823
1,KCKPD,235,,,Incorrect,1,774
1,ZKZFZ,222,,,Incorrect,1,781
1,NRNZN,162,,,Incorrect,1,788
1,KXKRK,163,,,Incorrect,1,820
1,YPYZY,164,,,Incorrect,1,826
1,FKDKF,223,,,Incorrect,1,888
1,RPRPR,113,,,Incorrect,1,888
1,VRVKV,161,,,Incorrect,1,722
1,RFRPR,162,,,Incorrect,1,944
1,KVKVK,151,,,Incorrect,1,887
1,YKYVY,161,,,Incorrect,1,837
1,VDVDV,8,[16],[524],Incorrect,1,653
1,DVZVZ,221,,,Incorrect,1,878
1,YFYFY,113,,,Incorrect,1,766
1,ZYZYZ,152,,,Incorrect,1,847
1,VLVXV,161,,,Incorrect,1,854
1,DPXZX,231,,,Incorrect,1,930
1,RYRYR,113,,,Incorrect,1,855
1,PDPNP,91,[16],[519],Incorrect,1,712
1,KXKXK,13,,,Incorrect,1,910
1,ZYZYZ,152,,,Incorrect,1,863
1,VKVKV,153,,,Incorrect,1,657
1,YZYZY,154,,,Incorrect,1,677
1,NLNZN,161,,,Incorrect,1,665
1,ZNDYZ,233,16,450,Incorrect,1,852
1,PCPXP,222,,,Incorrect,1,677
1,ZVZFZ,162,,,Incorrect,1,752
1,RCRZR,163,,,Incorrect,1,689
1,LRLRL,151,,,Incorrect,1,655
1,ZDZDZ,10,[16],[506],Incorrect,1,737
1,RNRZR,14,,,Incorrect,1,695
1,CXCYC,162,,,Incorrect,1,800
1,RCRLR,163,,,Incorrect,1,844
1,FRFRF,151,,,Incorrect,1,826
1,XFXFX,152,,,Incorrect,1,896
1,RPRLR,161,,,Incorrect,1,747
1,YXYRY,162,,,Incorrect,1,902
1,FYFYF,151,,,Incorrect,1,670
1,YZYVY,161,,,Incorrect,1,758
1,YKYKY,151,,,Incorrect,1,806
1,XRXRX,152,,,Incorrect,1,761
1,XVXZX,161,,,Incorrect,1,880
1,PDPDP,11,[16],[603],Incorrect,1,844
1,ZFZFZ,13,,,Incorrect,1,657
1,PXPXP,152,,,Incorrect,1,938
1,LYLYL,153,,,Incorrect,1,761
1,NKNKD,225,,,Incorrect,1,805
1,ZNZNZ,113,,,Incorrect,1,881
1,PYPZP,161,,,Incorrect,1,854
1,XPXPX,151,,,Incorrect,1,926
1,VLVLV,152,,,Incorrect,1,736
1,PKPXP,161,,,Incorrect,1,860
1,FZFZF,151,,,Incorrect,1,827
1,LDLDL,12,[16],[553],Incorrect,1,899
2,U,5,3,567,New Target,2,940
2,ZVZFZ,161,2,1253,Correct,2,764
2,FZFZF,151,1,918,Correct,2,935
2,RFRFR,152,1,909,Correct,2,742
2,NZNKN,161,2,771,Correct,2,725
2,FZFNF,162,2,681,Correct,2,903
2,RXRXR,151,1,873,Correct,2,729
2,KRKYK,161,2,701,Correct,2,900
2,NZNPN,162,2,693,Correct,2,928
2,XPXPX,151,1,691,Correct,2,766
2,CUCUC,7,[1][3],[683][907],Correct,2,725
2,RFRFR,13,1,802,Correct,2,887
2,VYVXV,161,2,748,Correct,2,740
2,VDVDV,191,1,729,Correct,2,755
2,ZKZRZ,15,2,712,Correct,2,772
2,XCXCX,151,1,594,Correct,2,846
2,CNCUC,82,[2][3],[707][899],Correct,2,741
2,RCRCR,13,1,618,Correct,2,738
2,ZPZXZ,161,2,718,Correct,2,679
2,FKFYF,162,2,957,Correct,2,706
2,ZFZYZ,163,2,768,Correct,2,804
2,PXPXP,151,1,676,Correct,2,944
2,URCKC,231,2,574,Correct,2,876
2,PCPCP,113,1,723,Correct,2,715
2,XNXNX,152,1,757,Correct,2,654
2,RCRZR,161,2,761,Correct,2,898
2,XVXVX,151,1,759,Correct,2,699
2,NRNRN,152,2,542,Incorrect,2,875
2,FPFPF,225,1,687,Correct,2,894
2,XVXFX,222,2,699,Correct,2,792
2,PRPRP,151,1,843,Correct,2,750
2,FYFCF,161,2,726,Correct,2,767
2,XUXFX,91,[2][3],[876][1068],Correct,2,922
2,CYCVC,14,2,861,Correct,2,669
2,VDVKV,172,2,774,Correct,2,723
2,YCYCY,15,1,621,Correct,2,856
2,NKNLN,161,2,704,Correct,2,723
2,XPUKX,233,2,783,Correct,2,790
2,ZPZPZ,113,1,839,Correct,2,910
2,KRKRK,152,1,690,Correct,2,727
2,XKXKX,153,1,881,Correct,2,778
2,YUYVY,101,[2][3],[1009][1217],Correct,2,898
2,XKXFU,235,2,910,Correct,2,713
2,NFNFN,113,1,628,Correct,2,718
2,KDKDK,193,1,657,Correct,2,846
2,XYXKX,16,2,748,Correct,2,917
2,YZUZY,223,1,676,Correct,2,853
2,KFKVK,222,2,676,Correct,2,774
2,LYLYL,151,1,692,Correct,2,738
2,CXCDC,184,2,755,Incorrect,2,731
2,XZXNX,16,2,815,Correct,2,726
2,PXPXP,151,1,589,Correct,2,729
2,ZRZYZ,161,2,721,Correct,2,694
2,PUPYP,111,[2][3],[798][1006],Correct,2,674
2,RNRNR,14,1,666,Correct,2,872
2,KDKDK,195,1,550,Correct,2,827
2,KNKNK,15,1,538,Correct,2,779
2,PRPKP,161,2,712,Correct,2,925
2,UNYNY,221,1,633,Correct,2,753
2,NYNYN,113,1,733,Correct,2,651
2,YXYXY,152,1,852,Incorrect,2,929
2,RDRDR,196,1,527,Correct,2,689
2,FCFCF,15,1,550,Correct,2,673
2,ZKZKZ,152,1,505,Correct,2,782
2,ZUZUZ,12,[1][3],[760][936],Correct,2,910
3,E,5,3,1105,New Target,3,822
3,YZYZY,151,1,750,Correct,3,765
3,VFVNV,161,2,696,Correct,3,923
3,KYKYK,151,1,753,Correct,3,853
3,NKNKN,152,1,906,Correct,3,822
3,XVXNX,161,2,714,Correct,3,950
3,RERFR,71,[2],[761],Incorrect,3,666
3,XNXNX,13,1,633,Correct,3,933
3,NXNXN,152,1,1046,Correct,3,855
3,ZLZNZ,161,2,1019,Correct,3,711
3,CUCNC,171,2,849,Correct,3,664
3,FYFRF,16,2,878,Correct,3,693
3,ZLZLZ,151,1,656,Correct,3,922
3,YZYZY,152,1,642,Correct,3,685
3,CYCYC,153,1,625,Correct,3,874
3,VUVUV,192,1,605,Correct,3,888
3,PXPRP,16,2,720,Correct,3,712
3,YPYPY,151,1,578,Correct,3,687
3,CECEC,8,[1],[704],Incorrect,3,779
3,VNENV,223,1,614,Correct,3,872
3,KRKFK,222,2,953,Correct,3,698
3,XLXLE,225,1,604,Correct,3,862
3,RFRUR,183,2,762,Correct,3,924
3,XRXLX,16,2,836,Correct,3,862
3,NZNPN,162,2,925,Correct,3,761
3,XZXZX,151,1,578,Correct,3,789
3,FZFZF,152,1,744,Correct,3,718
3,PFPFP,153,1,737,Correct,3,925
3,YZYXY,161,2,717,Correct,3,765
3,KEKEK,9,[1],[656],Incorrect,3,908
3,CXCPC,14,2,733,Correct,3,688
3,VXVXV,151,1,796,Correct,3,743
3,NUNZN,174,2,1045,Correct,3,818
3,RKRVR,16,2,1048,Correct,3,659
3,XRXRX,151,1,602,Correct,3,781
3,ERNFN,231,2,762,Incorrect,3,833
3,YRYNY,222,2,598,Correct,3,722
3,PZPEP,102,[2],[699],Incorrect,3,686
3,ZYZXZ,14,2,742,Correct,3,690
3,RZRVR,162,2,782,Correct,3,871
3,XRXRX,151,1,651,Correct,3,749
3,KUKFK,175,2,595,Correct,3,942
3,RKRKR,15,1,791,Correct,3,720
3,ZFZFZ,152,1,872,Correct,3,666
3,YZYVY,161,2,624,Correct,3,711
3,XPXNX,162,2,657,Correct,3,773
3,YRYRY,151,1,594,Correct,3,718
3,EPVPV,221,1,736,Correct,3,926
3,CRCEC,112,[2],[640],Incorrect,3,705
3,RFRCR,14,2,752,Correct,3,802
3,CPCVC,162,2,824,Correct,3,919
3,RXRCR,163,2,703,Correct,3,839
3,VNVLV,164,2,734,Correct,3,745
3,ZXZXZ,151,1,663,Correct,3,853
3,ZCZCZ,152,1,628,Correct,3,877
3,PYPUP,186,2,650,Correct,3,652
3,YKYPY,16,2,836,Correct,3,885
3,YREXY,233,2,572,Correct,3,818
3,ZKZKZ,113,1,738,Correct,3,746
3,XLXNX,161,2,618,Correct,3,901
3,KFKRE,235,2,616,Correct,3,815
3,RXRLR,222,2,905,Correct,3,808
3,RERXR,121,[2],[720],Incorrect,3,809
4,J,5,3,975,New Target,4,939
4,CYCVC,161,2,621,Correct,4,916
4,RXRCR,162,2,699,Correct,4,851
4,FPFVF,163,2,641,Correct,4,944
4,LZLZL,151,1,687,Correct,4,879
4,PLPLP,152,1,799,Correct,4,731
4,NPNPN,153,1,695,Correct,4,866
4,XZXZX,161,1,647,Incorrect,4,725
4,CNCKC,162,2,755,Correct,4,917
4,PCPYJ,235,2,705,Correct,4,719
4,VYVYV,113,1,626,Correct,4,770
4,RLRLR,152,1,748,Correct,4,888
4,CJCJC,7,[1][3],[779][954],Correct,4,876
4,ZLZLZ,13,1,545,Correct,4,767
4,FZFZF,152,1,608,Correct,4,941
4,CFCFC,153,1,628,Correct,4,678
4,PZPZP,154,1,562,Correct,4,823
4,XEXEX,191,1,515,Correct,4,890
4,NVNFN,16,2,724,Correct,4,857
4,KYKYK,151,1,528,Correct,4,837
4,ZNZVZ,161,2,727,Correct,4,754
4,YVJXY,233,2,598,Correct,4,740
4,XFXFX,113,1,520,Correct,4,709
4,XNXNX,152,1,563,Correct,4,653
4,FJFKF,81,[2][3],[764][940],Correct,4,679
4,CZCYC,14,2,855,Correct,4,877
4,ZXZCZ,162,2,657,Correct,4,767
4,RYRYJ,225,1,736,Correct,4,809
4,FPFZF,222,2,832,Correct,4,664
4,XRXRX,151,1,551,Correct,4,833
4,YPYEY,182,2,520,Correct,4,822
4,XRXRX,15,1,590,Correct,4,762
4,XZXPX,161,2,641,Correct,4,739
4,CJCJC,9,[1][3],[675][867],Correct,4,928
4,ZXZVZ,14,2,495,Correct,4,817
4,VKVKV,151,1,685,Correct,4,939
4,VEVNV,173,2,637,Correct,4,705
4,ZKZVZ,16,2,638,Correct,4,732
4,XVXJX,102,[2][3],[766][974],Correct,4,689
4,RXRVR,14,2,550,Correct,4,939
4,LRLRL,151,1,616,Correct,4,838
4,YNJNY,223,1,758,Correct,4,878
4,NPNJN,222,2,656,Correct,4,816
4,ZEZEZ,194,1,660,Correct,4,692
4,ZNZNZ,15,1,601,Correct,4,662
4,YZYZY,152,1,772,Correct,4,933
4,XYXYX,153,1,796,Correct,4,886
4,ZXZXZ,221,1,519,Correct,4,736
4,LYLZL,222,2,615,Correct,4,903
4,CYCNC,162,2,616,Correct,4,819
4,XEXEX,195,1,587,Correct,4,747
4,CVCXC,16,2,745,Correct,4,857
4,ZPZXZ,162,2,595,Correct,4,863
4,FZFZF,151,1,657,Correct,4,913
4,RXRJR,112,[2][3],[712][903],Correct,4,728
4,PRPFP,14,2,789,Correct,4,699
4,PKPEP,186,2,572,Correct,4,891
4,XZXPX,16,2,555,Correct,4,869
4,JCZVZ,231,2,738,Correct,4,658
4,RXRLR,222,2,641,Correct,4,742
4,VZVZV,151,1,636,Correct,4,947
4,XJXJX,12,[1][3],[737][945],Correct,4,914
5,I,5,3,1097,New Target,5,686
5,PCPCP,151,1,688,Correct,5,804
5,XYXYX,152,1,642,Correct,5,764
5,VXVXV,153,1,593,Correct,5,737
5,XVXVX,154,1,620,Correct,5,938
5,ZRZXZ,161,2,657,Correct,5,719
5,FPFZF,162,2,660,Correct,5,708
5,ZYZYZ,151,1,591,Correct,5,881
5,RVRZR,161,2,622,Correct,5,868
5,CICIC,7,[1][3],[712][920],Correct,5,787
5,XLXLX,13,1,705,Correct,5,652
5,YVYVY,152,1,531,Correct,5,651
5,CJCJC,191,1,873,Correct,5,766
5,FNFCF,16,2,677,Correct,5,650
5,PVPRP,162,2,649,Correct,5,688
5,FZFZF,151,1,523,Correct,5,748
5,NVIVN,223,1,925,Correct,5,843
5,CVCIC,82,[2][3],[1279][1439],Correct,5,753
5,ZXZXZ,13,1,1057,Correct,5,718
5,FCFZF,161,2,651,Correct,5,946
5,IXRXR,221,1,680,Correct,5,806
5,ZPZNZ,222,2,602,Correct,5,731
5,VZVZV,151,1,670,Correct,5,742
5,YRYNY,161,2,807,Correct,5,941
5,VNVPV,162,2,559,Correct,5,822
5,RVRJR,182,2,850,Correct,5,757
5,VRVRV,15,1,535,Correct,5,869
5,VIVIV,9,[1][3],[651][826],Correct,5,707
5,CXCVC,14,2,737,Correct,5,846
5,PZPZP,151,1,651,Correct,5,846
5,IXVKV,231,2,907,Correct,5,778
5,YJYCY,173,2,692,Incorrect,5,716
5,VYVYV,15,1,543,Correct,5,921
5,YVYVY,152,1,527,Correct,5,841
5,NVNVN,153,1,953,Correct,5,665
5,XYXVX,161,2,714,Correct,5,898
5,NJNCN,174,2,791,Correct,5,833
5,NXNYN,16,2,695,Correct,5,666
5,VXVCV,162,2,534,Correct,5,779
5,ZKZKZ,151,1,599,Correct,5,849
5,XRXYX,161,2,748,Correct,5,655
5,ZCZXZ,162,2,628,Correct,5,858
5,KVKYI,235,2,936,Correct,5,728
5,CNCNC,113,1,704,Correct,5,713
5,RIRIR,10,[1][3],[727][903],Correct,5,681
5,VYVXV,14,2,674,Correct,5,791
5,FXIRF,233,2,563,Correct,5,726
5,PFPFP,113,1,649,Correct,5,743
5,VPVPV,152,1,596,Correct,5,910
5,ZJZJZ,195,2,675,Incorrect,5,817
5,ZVZNZ,16,2,564,Correct,5,725
5,YVYXY,162,2,677,Correct,5,832
5,PRPRP,151,1,679,Correct,5,709
5,YPYPY,152,1,612,Correct,5,796
5,ZIZPZ,111,[2][3],[597][789],Correct,5,937
5,NKNXN,14,2,1089,Correct,5,785
5,RZRXR,162,2,544,Correct,5,863
5,RXRXR,151,1,599,Correct,5,690
5,ZJZJZ,196,1,806,Correct,5,892
5,CVCVI,225,1,581,Incorrect,5,657
5,NKNKN,113,1,612,Correct,5,884
5,NRNZN,161,2,756,Correct,5,812
5,CNCNC,151,1,574,Correct,5,825
5,RFRIR,122,[2][3],[699][907],Correct,5,664
6,B,5,3,1131,New Target,6,893
6,YKYZY,161,2,739,Correct,6,725
6,VCVRV,162,2,528,Correct,6,717
6,XVXVX,151,1,674,Correct,6,823
6,KZKRK,161,2,796,Correct,6,859
6,ZVZXZ,162,2,662,Correct,6,843
6,RCRNR,163,2,691,Correct,6,882
6,CXCRC,164,2,503,Correct,6,656
6,VNBCV,233,2,648,Correct,6,896
6,CXCVC,222,2,570,Correct,6,702
6,RFRFR,151,2,480,Incorrect,6,723
6,XPXRX,161,1,754,Incorrect,6,909
6,RYRBR,72,[2][3],[737][1249],Correct,6,713
6,ZKZKZ,13,1,622,Correct,6,852
6,FIFRF,171,2,814,Correct,6,801
6,VZVLV,16,2,594,Correct,6,937
6,RPRVR,162,2,1072,Correct,6,921
6,YBYBY,8,[1][3],[685][877],Correct,6,938
6,PYPVP,14,2,728,Correct,6,836
6,NININ,192,1,1001,Correct,6,714
6,RNRNR,15,1,650,Correct,6,850
6,NXNVN,161,2,746,Correct,6,740
6,RNRNR,151,1,625,Correct,6,925
6,FRFVF,161,2,688,Correct,6,887
6,YVYFB,235,2,770,Incorrect,6,707
6,ZRZXZ,222,2,608,Correct,6,688
6,VNVIV,193,2,735,Incorrect,6,809
6,PXPNP,16,2,571,Correct,6,787
6,ZXZPZ,162,2,590,Correct,6,807
6,VBVBV,9,[1][3],[720][944],Correct,6,822
6,CXCXC,13,1,762,Correct,6,840
6,PCPFP,161,2,709,Correct,6,811
6,KNKNK,151,1,593,Correct,6,849
6,XIXIX,194,1,686,Correct,6,920
6,CYCYC,15,1,778,Correct,6,862
6,FVFYF,161,2,688,Correct,6,904
6,YNYRY,162,2,637,Correct,6,833
6,BVPXP,231,2,624,Correct,6,705
6,NXNXN,113,1,658,Correct,6,731
6,FRFRF,152,1,690,Correct,6,746
6,YVYVY,153,1,573,Correct,6,866
6,ZKZCZ,161,2,640,Correct,6,823
6,VIVXV,175,2,714,Correct,6,932
6,PRBRP,223,1,630,Correct,6,766
6,YZYBY,102,[2][3],[697][873],Correct,6,795
6,CXCVC,14,2,733,Correct,6,675
6,FYFYF,151,1,719,Correct,6,695
6,VKVXV,161,2,667,Correct,6,771
6,ZBZBZ,11,[1][3],[666][858],Correct,6,745
6,FPFNF,14,2,584,Correct,6,883
6,CXCXC,151,1,755,Correct,6,946
6,YCYCY,152,1,731,Correct,6,869
6,FPFPF,153,1,477,Correct,6,685
6,CVCVB,225,1,628,Correct,6,752
6,ZCZCZ,113,1,530,Correct,6,877
6,CZCNC,161,2,456,Correct,6,793
6,KIKFK,176,2,754,Correct,6,728
6,PXPXP,15,1,651,Correct,6,836
6,RYRYR,152,1,540,Correct,6,775
6,ZRZCZ,161,2,722,Correct,6,771
6,RVRVR,151,1,561,Correct,6,721
6,XYXNX,161,2,657,Correct,6,893
6,BVKVK,221,1,520,Correct,6,683
6,CBCBC,12,[1][3],[645][821],Correct,6,813
7,W,5,3,1085,New Target,7,658
7,RKRKR,151,1,674,Correct,7,733
7,CVCRC,161,2,616,Correct,7,690
7,PKPKP,151,1,680,Correct,7,740
7,FPFPF,152,1,586,Correct,7,744
7,VRVPV,161,1,702,Incorrect,7,758
7,ZKZYZ,162,2,695,Correct,7,843
7,PVPCP,233,2,692,Correct,7,807
7,KVKVK,113,1,1117,Correct,7,905
7,YXYVY,161,2,663,Correct,7,884
7,FNFNF,151,1,907,Correct,7,696
7,YWYWY,7,[1][3],[733][909],Correct,7,686
7,ZYZYZ,13,1,743,Correct,7,746
7,PYPYP,152,1,788,Correct,7,800
7,XRXRX,153,1,657,Correct,7,703
7,PXPXP,154,1,598,Correct,7,660
7,FCFBF,181,2,564,Correct,7,811
7,FVFVF,15,1,476,Correct,7,671
7,CYCZC,161,2,687,Correct,7,856
7,XZXVX,162,2,620,Correct,7,813
7,PFPFP,151,1,855,Correct,7,891
7,RVRLR,161,2,665,Correct,7,942
7,ZBZBZ,192,1,552,Correct,7,826
7,VCVNV,16,2,685,Correct,7,741
7,NWNWN,8,[1][3],[520][776],Correct,7,879
7,XNXVX,14,2,875,Correct,7,846
7,CXCNC,162,2,559,Correct,7,793
7,YVYVW,225,1,686,Correct,7,865
7,VFVFV,113,1,654,Correct,7,721
7,VFWFV,223,1,752,Correct,7,748
7,CVCFC,222,2,668,Correct,7,725
7,YBYBY,193,1,590,Correct,7,667
7,PYPYP,15,1,508,Correct,7,859
7,NKNWN,91,[2][3],[862][1054],Correct,7,846
7,VNVNV,13,1,541,Correct,7,724
7,RVRVR,152,1,806,Correct,7,668
7,FVFBF,184,2,540,Incorrect,7,845
7,VZVKV,16,2,689,Correct,7,723
7,VPVCV,162,2,513,Correct,7,697
7,WYZCZ,231,2,569,Correct,7,760
7,PFPFP,113,1,540,Correct,7,794
7,PRPRP,152,1,692,Correct,7,683
7,NWNWN,10,[1][3],[813][1005],Correct,7,796
7,VKVCV,14,2,627,Correct,7,684
7,WPYPY,221,1,500,Correct,7,761
7,VBVBV,195,1,574,Correct,7,709
7,ZKZYZ,16,2,783,Correct,7,878
7,XYXYX,151,1,534,Correct,7,848
7,FZFXF,161,2,537,Correct,7,862
7,XKXKX,151,1,507,Correct,7,854
7,XPXPX,152,1,501,Correct,7,712
7,FWFWF,11,[1][3],[684][908],Correct,7,944
7,FNFBF,186,2,580,Correct,7,745
7,ZVZYZ,16,2,638,Correct,7,651
7,FZFZF,151,1,586,Correct,7,905
7,NPNFW,235,2,768,Correct,7,698
7,PCPCP,113,1,524,Correct,7,800
7,NKNWN,122,[2][3],[629][821],Correct,7,737
8,M,5,3,1357,New Target,8,836
8,VYVNV,161,2,612,Correct,8,688
8,KLKNK,162,2,648,Correct,8,703
8,NRNRN,151,1,588,Correct,8,658
8,VNVFV,161,2,672,Correct,8,758
8,XNXNM,225,1,656,Correct,8,701
8,CXCVC,222,2,563,Correct,8,717
8,KRKZK,162,2,502,Correct,8,840
8,NMNFN,71,[1][2],[674][1106],Incorrect,8,920
8,ZFZFZ,13,1,670,Correct,8,753
8,YPYCY,161,2,653,Correct,8,791
8,KCKCK,151,1,745,Correct,8,892
8,VNVNV,152,1,614,Correct,8,774
8,LXLXL,153,1,679,Correct,8,776
8,CLCLC,154,1,552,Correct,8,769
8,NYNYN,155,1,846,Correct,8,729
8,LCMYL,233,2,660,Correct,8,928
8,NCNCN,113,1,561,Correct,8,783
8,ZVZRZ,161,2,594,Correct,8,839
8,ZVZVZ,151,1,599,Correct,8,722
8,PZPVP,161,2,765,Correct,8,652
8,PWPNP,171,2,1299,Correct,8,900
8,KLKCM,235,2,613,Correct,8,890
8,XMXMX,8,[1][3],[683][843],Correct,8,685
8,PRPXP,14,2,589,Correct,8,703
8,CVCYC,162,1,592,Incorrect,8,770
8,PXPMP,92,[2][3],[992][1168],Correct,8,815
8,ZCZLZ,14,2,647,Correct,8,787
8,XWXWX,192,2,881,Incorrect,8,894
8,ZCZLZ,16,2,587,Correct,8,651
8,MNCYC,231,2,864,Correct,8,734
8,ZXZXZ,113,1,659,Correct,8,875
8,YRYNY,161,2,733,Correct,8,919
8,ZLZPZ,162,2,638,Correct,8,677
8,VZVZV,151,1,633,Correct,8,920
8,MXPXP,221,1,748,Correct,8,739
8,VWVWV,193,2,665,Incorrect,8,732
8,PYPYP,16,1,761,Incorrect,8,794
8,XPXVX,162,2,835,Correct,8,812
8,XLXLX,151,1,575,Correct,8,708
8,YMYMY,10,[1][3],[903][1095],Correct,8,875
8,VYVYV,13,1,586,Correct,8,724
8,PWPZP,174,2,1101,Correct,8,748
8,PYPKP,16,2,735,Correct,8,679
8,NPNXN,162,2,811,Correct,8,809
8,KVKVK,223,1,633,Correct,8,679
8,NVNFN,222,2,635,Correct,8,750
8,XNXNX,151,1,702,Correct,8,730
8,YZYMY,112,[2][3],[825][1017],Correct,8,675
8,PFPFP,13,1,586,Correct,8,820
8,ZWZWZ,195,1,1001,Correct,8,901
8,PCPZP,16,2,1084,Correct,8,768
8,LRLPL,162,2,889,Correct,8,831
8,CZCZC,151,1,610,Correct,8,750
8,NZNZN,152,1,576,Correct,8,898
8,CVCXC,161,2,613,Correct,8,737
8,XCXCX,151,1,552,Correct,8,743
8,YWYWY,196,2,1101,Incorrect,8,702
8,NLNLN,15,1,1020,Correct,8,756
8,VNVNV,152,1,943,Correct,8,751
8,ZMZMZ,12,[1][3],[1120][1311],Correct,8,661
9,S,5,3,1575,New Target,9,905
9,NZNZN,151,1,738,Correct,9,825
9,KVKZK,161,2,650,Correct,9,887
9,LZLZL,151,1,647,Correct,9,811
9,XLXLX,152,1,589,Correct,9,668
9,ZXZXZ,153,1,909,Correct,9,814
9,KNKZK,161,2,695,Correct,9,687
9,NRNYN,162,2,613,Correct,9,769
9,CLCVC,163,2,648,Correct,9,728
9,ZCZFZ,164,2,528,Correct,9,940
9,NSNSN,7,[1][3],[645][805],Correct,9,835
9,VZVZV,13,1,597,Correct,9,848
9,NVNCN,161,2,583,Correct,9,772
9,VMVMV,191,1,1117,Correct,9,664
9,CVCXC,16,2,638,Correct,9,696
9,ZYZRZ,162,2,845,Correct,9,796
9,XNXZX,163,2,676,Correct,9,766
9,PXPXP,151,1,712,Correct,9,674
9,VCVSV,82,[2][3],[671][879],Correct,9,810
9,PRPCP,14,2,640,Correct,9,846
9,ZMZMZ,192,1,642,Incorrect,9,729
9,ZFZFZ,15,1,668,Correct,9,941
9,FCFCF,152,1,575,Correct,9,664
9,YLYZY,161,2,828,Correct,9,891
9,KNKVK,162,2,688,Correct,9,906
9,SFPCP,231,2,652,Correct,9,878
9,RPRPR,113,1,570,Correct,9,824
9,XMXMX,193,1,652,Correct,9,799
9,KFKFK,15,1,621,Correct,9,746
9,VSVSV,9,[1][3],[647][903],Correct,9,917
9,YVSVY,223,1,759,Correct,9,784
9,VPVPV,113,1,546,Correct,9,806
9,XZXZX,152,1,529,Correct,9,900
9,KZKXK,161,2,646,Correct,9,785
9,RFRPR,162,2,681,Correct,9,757
9,NVNVS,225,1,677,Correct,9,864
9,ZXZXZ,113,1,961,Correct,9,872
9,SRVRV,221,1,561,Correct,9,900
9,YCYCY,113,1,498,Correct,9,818
9,KMKZK,174,2,615,Correct,9,815
9,FZSVF,233,2,661,Correct,9,805
9,VYVYV,113,1,557,Correct,9,933
9,LVLVL,152,1,532,Correct,9,656
9,YFYFY,153,1,534,Correct,9,884
9,NXNSN,102,[2][3],[758][918],Correct,9,902
9,FNFCF,14,2,646,Correct,9,791
9,KVKVK,151,1,528,Correct,9,941
9,VZVCV,161,2,691,Correct,9,839
9,ZYZMZ,185,2,610,Correct,9,738
9,VXVZV,16,2,515,Correct,9,756
9,VPVPV,151,1,582,Correct,9,836
9,RVRNS,235,2,717,Correct,9,700
9,YZYZY,113,1,676,Correct,9,909
9,ZSZSZ,11,[1][3],[774][918],Correct,9,694
9,FRFRF,13,1,578,Correct,9,871
9,ZMZMZ,196,1,578,Correct,9,833
9,NZNXN,16,2,632,Correct,9,710
9,LSLFL,121,[1][3],[910][1358],Incorrect,9,826
10,Q,5,3,1909,New Target,10,800
10,ZVZPZ,161,2,667,Correct,10,943
10,RZRZR,151,1,603,Correct,10,804
10,ZFZFZ,152,1,618,Correct,10,872
10,RZRZR,153,1,591,Correct,10,669
10,PZPXP,161,2,692,Correct,10,711
10,VFQPV,233,2,866,Correct,10,749
10,ZPZRZ,222,2,717,Correct,10,653
10,CYCVC,162,2,685,Correct,10,692
10,CPCPC,151,1,609,Correct,10,659
10,YZYQY,72,[2][3],[722][802],Correct,10,742
10,FVFXF,14,2,637,Correct,10,703
10,YNYNQ,225,1,602,Correct,10,833
10,ZYZYZ,113,1,680,Correct,10,884
10,FRFSF,181,2,596,Incorrect,10,849
10,XNXPX,16,2,578,Correct,10,918
10,NXNXN,151,1,695,Correct,10,732
10,PVPZP,161,2,624,Correct,10,870
10,XVXPX,162,2,724,Correct,10,707
10,FXFVF,163,2,542,Correct,10,815
10,NSNKN,172,2,607,Incorrect,10,814
10,VXVNV,16,2,610,Correct,10,671
10,XZXZX,151,1,626,Correct,10,925
10,VQVQV,8,[1][3],[790][950],Correct,10,812
10,ZYZPZ,14,2,569,Correct,10,938
10,PZPSP,183,2,647,Correct,10,897
10,YVYVY,15,1,579,Correct,10,944
10,NCNQN,92,[2][3],[640][800],Correct,10,820
10,FCFVF,14,2,738,Correct,10,915
10,ZFZFZ,151,1,538,Correct,10,934
10,NSNSN,194,1,578,Correct,10,664
10,YPYFY,16,2,713,Correct,10,681
10,ZKZKZ,151,1,581,Correct,10,804
10,QZRCR,231,2,584,Correct,10,802
10,YPYVY,222,2,519,Correct,10,812
10,ZNZNZ,151,1,559,Correct,10,684
10,VQVQV,10,[1][3],[739][899],Correct,10,782
10,RVRZR,14,2,521,Correct,10,922
10,KRKSK,185,2,670,Correct,10,825
10,NPNPN,15,1,569,Correct,10,846
10,YPYPY,152,1,559,Correct,10,699
10,VCVYV,161,2,595,Correct,10,785
10,FPFNF,162,2,661,Correct,10,808
10,QVXVX,221,1,631,Correct,10,744
10,ZVZRZ,222,2,501,Correct,10,827
10,LFLFL,151,1,553,Correct,10,837
10,VLVLV,152,1,627,Correct,10,656
10,KXQXK,223,1,887,Correct,10,720
10,YQYQY,11,[1][3],[719][911],Correct,10,866
10,YCYCY,13,1,554,Correct,10,799
10,PZPYP,161,2,591,Correct,10,727
10,LPLFL,162,2,676,Correct,10,730
10,VSVSV,196,1,533,Correct,10,808
10,VFVYQ,235,2,856,Correct,10,813
10,CZCXC,222,2,542,Correct,10,868
10,PVPCP,162,2,593,Correct,10,840
10,CXCXC,151,1,615,Correct,10,684
10,NZNZN,152,1,691,Correct,10,857
10,YPYCY,161,2,540,Correct,10,950
10,ZQZQZ,12,[1][3],[574][749],Correct,10,781
11,T,5,3,1245,New Target,11,673
11,KFKFK,151,1,668,Correct,11,929
11,LZLZL,152,1,617,Correct,11,843
11,PFPVP,161,2,602,Correct,11,824
11,FRFPF,162,2,746,Correct,11,793
11,FZFZF,151,1,513,Correct,11,921
11,VTVTV,7,[1][3],[739][787],Correct,11,738
11,KYKCK,14,2,656,Correct,11,674
11,VPVPV,151,1,609,Correct,11,733
11,XQXQX,191,1,774,Correct,11,661
11,PZPYP,16,2,589,Correct,11,909
11,KXKLK,162,2,687,Correct,11,835
11,TCNCN,221,1,600,Correct,11,899
11,PZPNP,222,2,595,Correct,11,922
11,RCRPR,162,2,614,Correct,11,717
11,PZPRT,235,2,539,Correct,11,747
11,XFXVX,222,2,546,Correct,11,668
11,LTLVL,81,[2][3],[543][1039],Correct,11,871
11,ZCZPZ,14,2,611,Correct,11,655
11,NCNQN,182,2,656,Correct,11,866
11,XZXNX,16,2,505,Correct,11,919
11,ZPZPZ,151,1,697,Correct,11,924
11,CFCFC,152,1,644,Correct,11,893
11,VXTRV,233,2,595,Correct,11,830
11,CFCVC,222,2,616,Correct,11,699
11,PYPYP,151,1,679,Correct,11,849
11,FQFYF,173,2,688,Correct,11,950
11,CNCFC,16,2,530,Correct,11,670
11,PTPTP,9,[1][3],[764][956],Correct,11,659
11,ZCZCZ,13,1,757,Correct,11,858
11,KZKZK,152,1,623,Correct,11,804
11,RLRVR,161,2,652,Correct,11,879
11,ZRZKZ,162,2,668,Correct,11,729
11,KLKLT,225,1,649,Correct,11,828
11,ZQZQZ,194,1,668,Correct,11,661
11,VZVZV,15,1,505,Correct,11,864
11,RVRZR,161,1,440,Incorrect,11,884
11,ZPZCZ,162,2,686,Correct,11,849
11,VYVYV,151,1,624,Correct,11,680
11,RVRVR,152,1,542,Correct,11,861
11,PTPTP,10,[1][3],[650][842],Correct,11,938
11,PXPXP,13,1,1041,Correct,11,707
11,KCKCK,152,1,558,Correct,11,922
11,YVYVY,153,1,545,Correct,11,784
11,CYCYC,154,1,517,Correct,11,764
11,XCXCX,155,1,486,Correct,11,912
11,CYCQC,185,2,534,Correct,11,940
11,KCKNK,16,2,620,Correct,11,714
11,VPVPV,151,1,762,Correct,11,821
11,TXFZF,231,2,593,Correct,11,914
11,NYNVN,222,2,825,Correct,11,676
11,VQVXV,176,2,719,Correct,11,897
11,ZRZRZ,15,1,571,Correct,11,770
11,VTVZV,111,[2][3],[712][1000],Correct,11,841
11,PXPVP,14,2,585,Correct,11,751
11,FVFVF,151,1,623,Correct,11,675
11,VRVLV,161,2,555,Correct,11,921
11,YCYCY,151,1,638,Correct,11,774
11,XZTZX,223,1,718,Correct,11,789
11,VTVTV,12,[1][3],[646][806],Correct,11,674
12,O,5,3,953,New Target,12,708
12,VXVLV,161,2,630,Correct,12,823
12,KVKCK,162,2,699,Correct,12,651
12,VLVLV,151,1,615,Correct,12,827
12,ZCZVZ,161,2,712,Correct,12,741
12,KFKFK,151,1,604,Correct,12,660
12,XKXKX,152,1,594,Correct,12,710
12,YXYXY,153,1,877,Correct,12,950
12,FVFVF,154,1,571,Correct,12,657
12,PVPOP,72,[2][3],[511][703],Correct,12,947
12,ZXZYZ,14,2,707,Correct,12,659
12,PXPVP,162,2,687,Correct,12,781
12,ZTZTZ,191,1,562,Correct,12,737
12,CVCKC,16,2,626,Correct,12,907
12,CKCKC,151,1,654,Correct,12,830
12,NPNPN,152,1,618,Correct,12,853
12,ZRZNZ,161,2,527,Correct,12,687
12,OZCZC,221,1,740,Correct,12,806
12,LFLFL,113,1,694,Correct,12,659
12,CXCXC,152,1,522,Correct,12,660
12,KPKPK,153,1,590,Correct,12,835
12,FRFKF,161,2,706,Correct,12,699
12,FOFOF,8,[1][3],[618][794],Correct,12,671
12,ZFZFZ,13,1,515,Correct,12,838
12,LKLZO,235,2,676,Correct,12,891
12,KLKZK,222,2,676,Correct,12,812
12,YXYCY,162,2,684,Correct,12,904
12,LOLOL,9,[1][3],[618][842],Correct,12,773
12,XLXLX,13,1,910,Correct,12,718
12,XVXVX,152,1,674,Correct,12,853
12,FTFTF,192,1,589,Correct,12,867
12,OXNZN,231,2,606,Correct,12,833
12,CZCZC,113,1,666,Correct,12,925
12,LZLZL,152,1,633,Correct,12,754
12,VLVPV,161,2,826,Correct,12,803
12,VYVYO,225,1,590,Correct,12,889
12,XKXKX,113,1,906,Correct,12,899
12,RTRTR,193,1,493,Correct,12,878
12,KVKCK,16,2,665,Correct,12,665
12,ROROR,101,[1][3],[612][772],Correct,12,867
12,PRPRP,13,1,678,Correct,12,794
12,LYLVL,161,2,501,Correct,12,732
12,PLPLP,151,1,494,Correct,12,743
12,CTCTC,194,1,487,Correct,12,761
12,XZXYX,16,2,680,Correct,12,850
12,NKNKN,151,1,507,Correct,12,728
12,VLVZV,161,2,577,Correct,12,715
12,YOYOY,11,[1][3],[673][897],Correct,12,946
12,PZOZP,223,1,710,Correct,12,922
12,FYFYF,113,1,578,Correct,12,859
12,ZXZVZ,161,2,618,Correct,12,655
12,VKVZV,162,2,567,Correct,12,902
12,ZTZTZ,195,1,524,Correct,12,760
12,LKLZL,16,2,702,Correct,12,900
12,KCKVK,162,2,496,Correct,12,676
12,PXPKP,163,2,725,Correct,12,844
12,KCOZK,233,2,1270,Correct,12,714
12,FKFKF,113,1,651,Correct,12,833
12,CTCRC,176,2,952,Correct,12,879
12,NXNXN,15,1,701,Correct,12,802
12,KXKVK,161,2,582,Correct,12,937
12,CPCOC,122,[2][3],[589][781],Correct,12,721
13,H,5,3,821,New Target,13,674
13,VFVNV,151,2,555,Incorrect,13,786
13,YVYVY,152,1,866,Correct,13,655
13,XVXVX,153,1,508,Correct,13,735
13,NRNXN,161,2,657,Correct,13,822
13,PZPKP,162,2,528,Correct,13,801
13,HLVLV,221,2,619,Incorrect,13,709
13,CXCZC,222,2,580,Correct,13,912
13,LHLYL,71,[2][3],[1111][1335],Correct,13,854
13,YKYFY,14,2,959,Correct,13,932
13,YOYRY,171,2,633,Correct,13,669
13,ZKZYZ,16,2,891,Correct,13,764
13,RZRZR,151,1,609,Correct,13,805
13,NFNYN,161,2,563,Correct,13,745
13,KVKFK,162,2,577,Correct,13,906
13,XFXYX,163,2,647,Correct,13,747
13,LKLVL,164,2,730,Correct,13,691
13,NLNLN,151,1,602,Correct,13,728
13,XCXOX,182,2,599,Correct,13,894
13,FXFXF,15,1,637,Correct,13,708
13,VHVHV,8,[1][3],[821][981],Correct,13,735
13,PVPVP,13,1,658,Correct,13,661
13,CRCXC,161,2,832,Correct,13,882
13,NXNXN,151,1,600,Correct,13,736
13,XRXRX,152,1,526,Correct,13,696
13,YFYXY,161,2,655,Correct,13,944
13,ZOZOZ,193,1,541,Correct,13,791
13,RZRZR,15,1,541,Correct,13,897
13,FKFKF,152,1,500,Correct,13,713
13,PFPFP,153,1,484,Correct,13,932
13,XYXHX,92,[2][3],[748][987],Correct,13,723
13,RZRKR,14,2,765,Correct,13,654
13,FLFLH,225,1,530,Correct,13,912
13,KRKRK,113,1,500,Correct,13,890
13,ZVZNZ,161,2,660,Correct,13,922
13,ZOZOZ,194,1,548,Correct,13,770
13,FZFZF,15,1,535,Correct,13,726
13,FHFKF,101,[2][3],[649][857],Correct,13,852
13,ZXHLZ,233,2,602,Correct,13,717
13,FKFXF,222,2,619,Correct,13,842
13,CFCYC,162,2,701,Correct,13,788
13,ZXZVZ,163,2,508,Correct,13,743
13,KCKOK,185,2,641,Correct,13,832
13,ZXZVH,235,2,611,Correct,13,765
13,CKCKC,113,1,688,Correct,13,919
13,ZXZCZ,161,2,784,Correct,13,728
13,YVYVY,151,1,657,Correct,13,653
13,RVHVR,223,1,682,Correct,13,903
13,ZRZRZ,113,1,677,Correct,13,826
13,ZHZHZ,11,[1][3],[837][853],Correct,13,679
13,VZVZV,13,1,584,Correct,13,853
13,HZVRV,231,2,779,Correct,13,762
13,FVFVF,113,1,713,Correct,13,670
13,RNRCR,161,2,587,Correct,13,661
13,COCOC,196,1,763,Correct,13,838
13,VNVXV,16,2,701,Correct,13,676
13,XHXHX,12,[1][3],[538][746],Correct,13,923
14,G,5,3,1130,New Target,14,839
14,FZFZF,151,1,715,Correct,14,653
14,RPRVR,161,2,664,Correct,14,751
14,XCXCX,151,1,617,Correct,14,684
14,YXYXY,152,1,664,Correct,14,890
14,KZKZK,153,1,603,Correct,14,696
14,RYRKR,161,2,630,Correct,14,902
14,FYFNF,162,2,626,Correct,14,912
14,VKVKV,151,1,644,Correct,14,796
14,KPGPK,223,1,606,Correct,14,907
14,YNYNY,113,1,649,Correct,14,902
14,VYVYV,152,1,652,Correct,14,702
14,YCYXY,161,2,591,Correct,14,691
14,LKLGL,72,[2][3],[688][895],Correct,14,655
14,VXVXV,13,1,609,Correct,14,926
14,KCKVK,161,2,621,Correct,14,879
14,YKYKY,151,1,657,Correct,14,686
14,RHRXR,171,2,703,Correct,14,799
14,FVFCF,16,2,672,Correct,14,729
14,YXYGY,82,[2][3],[649][841],Correct,14,797
14,CLCLC,13,1,494,Correct,14,749
14,ZXZCZ,161,2,680,Correct,14,657
14,VLVFV,162,2,503,Correct,14,826
14,CPCPG,225,1,556,Correct,14,736
14,KHKNK,172,2,688,Correct,14,786
14,ZKZVZ,16,2,562,Correct,14,726
14,YKYLY,162,2,623,Correct,14,947
14,CNCNC,151,1,612,Correct,14,740
14,PGPGP,9,[1][3],[757][981],Correct,14,679
14,VPVPV,13,1,642,Correct,14,948
14,FXGRF,233,2,507,Correct,14,942
14,CYCVC,222,2,739,Correct,14,763
14,FNFNF,151,1,562,Correct,14,730
14,KFKCK,161,2,713,Correct,14,653
14,ZFZHZ,183,2,522,Correct,14,685
14,NXNXN,15,1,617,Correct,14,918
14,FNFNF,152,1,501,Correct,14,875
14,LXLNG,235,2,649,Correct,14,852
14,XKXVX,222,2,733,Correct,14,720
14,ZHZHZ,194,1,660,Correct,14,948
14,PFPFP,15,1,544,Correct,14,866
14,ZYZYZ,152,1,578,Correct,14,854
14,XPXVX,161,2,854,Correct,14,721
14,YCYCY,151,1,519,Correct,14,939
14,RGRGR,10,[1][1],[603][795],Incorrect,14,835
14,VRVRV,13,1,574,Correct,14,720
14,PKPNP,161,2,700,Correct,14,852
14,XGXGX,11,[1][3],[598][838],Correct,14,769
14,GZYVY,231,2,610,Correct,14,699
14,VCVNV,222,2,579,Correct,14,762
14,VHVHV,195,1,707,Correct,14,882
14,LXLNL,16,2,566,Correct,14,689
14,GKPKP,221,1,980,Correct,14,917
14,XRXPX,222,2,732,Correct,14,703
14,XNXNX,151,1,571,Correct,14,740
14,KHKNK,176,2,683,Incorrect,14,786
14,RZRZR,15,1,669,Correct,14,688
14,CGCFC,121,[2][3],[759][1303],Correct,14,891
15,A,5,3,1489,New Target,15,659
15,XRXFX,161,2,771,Correct,15,794
15,RXRKR,162,2,575,Correct,15,745
15,YRYRY,151,1,580,Correct,15,688
15,XPXPX,152,1,689,Correct,15,942
15,RPRPR,153,1,569,Correct,15,902
15,NCNCN,154,1,682,Correct,15,804
15,RXRZR,161,2,692,Correct,15,937
15,NANAN,7,[1][3],[624][880],Correct,15,734
15,KCKYK,14,2,610,Correct,15,903
15,XKXFX,162,2,595,Correct,15,772
15,ZLZKZ,163,2,628,Correct,15,806
15,VCVZV,164,2,562,Correct,15,822
15,XCXVX,165,2,650,Correct,15,681
15,LKLZA,235,2,654,Correct,15,658
15,NCNCN,113,1,625,Correct,15,686
15,YGYGY,191,2,778,Incorrect,15,950
15,VLVLV,15,1,725,Correct,15,822
15,XRXRX,152,1,640,Correct,15,790
15,KAKPK,81,[2][3],[772][980],Correct,15,947
15,YZAZY,233,1,906,Incorrect,15,669
15,CFCFC,113,1,572,Correct,15,887
15,VNVLV,161,2,836,Correct,15,691
15,KPKVK,162,2,606,Correct,15,772
15,NCNRN,163,2,638,Correct,15,827
15,FGFGF,192,1,862,Correct,15,851
15,RCRYR,16,2,745,Correct,15,687
15,KRKCK,162,2,785,Correct,15,912
15,CRCRC,151,1,620,Correct,15,760
15,XPAPX,223,1,591,Correct,15,692
15,LPLXL,222,2,929,Correct,15,828
15,CGCVC,173,2,796,Correct,15,651
15,FKFZF,16,2,779,Correct,15,708
15,CACAC,9,[1][3],[648][856],Correct,15,724
15,XCXCX,13,1,679,Correct,15,777
15,AXRXR,221,1,840,Correct,15,768
15,NKNRN,222,2,702,Correct,15,823
15,KNKFK,162,2,735,Correct,15,746
15,KAKAK,10,[1][3],[690][978],Correct,15,906
15,ZCZRZ,14,2,686,Correct,15,908
15,RPRPR,151,1,810,Correct,15,836
15,NCNCN,152,1,627,Correct,15,811
15,RYRGR,184,2,676,Correct,15,752
15,VPVPV,15,1,610,Correct,15,819
15,RCRCA,225,1,691,Correct,15,812
15,KXKPK,222,2,589,Correct,15,898
15,NPNPN,151,1,531,Correct,15,666
15,YCYCY,152,1,663,Correct,15,880
15,PXPAP,112,[2][3],[621][813],Correct,15,729
15,ZCZNZ,14,2,638,Correct,15,734
15,KYKGK,185,2,797,Correct,15,796
15,ANLPL,231,2,583,Correct,15,777
15,CXCPC,222,2,618,Correct,15,775
15,YRYRY,151,1,956,Correct,15,753
15,LGLGL,196,1,640,Correct,15,802
15,VYVLV,16,2,628,Correct,15,772
15,KVKVK,151,1,607,Correct,15,862
15,RKRKR,152,1,619,Correct,15,870
15,VXVXV,153,1,671,Correct,15,684
15,XAXAX,12,[1][3],[716][956],Correct,15,706
