Trial No,Stimulus,Trigger,Response,Response Time(ms),Correct,Block,Fixation Duration
Practice
OT Practice
1,SKSKS,15,1,1112,Correct,0,709
1,DLDUD,16,2,798,Correct,0,929
1,PDPGP,16,2,820,Correct,0,823
1,MWMWM,15,1,645,Correct,0,932
1,FTFTF,15,1,546,Correct,0,795
1,AXAMA,16,2,693,Correct,0,665
1,RYRGR,16,2,602,Correct,0,873
1,DODOD,15,1,533,Correct,0,879
1,QTQAQ,16,2,644,Correct,0,826
1,YEYEY,15,1,676,Correct,0,682
2,GYGDG,16,2,715,Correct,0,843
2,SWSWS,15,1,742,Correct,0,781
2,HLHUH,16,2,663,Correct,0,950
2,DEDED,15,1,530,Correct,0,784
2,ZPZOZ,16,2,616,Correct,0,663
2,ATATA,15,1,519,Correct,0,788
2,QOQOQ,15,1,554,Correct,0,727
2,FPFGF,16,2,654,Correct,0,714
2,TRTET,16,2,774,Correct,0,853
2,DQDQD,15,1,974,Correct,0,750
AT Practice
1,TKTKT,15,1,863,Correct,0,852
1,SLSUS,16,2,785,Correct,0,838
1,VZVGV,7,1,995,False,0,881
1,XWXZX,7,3,864,Correct,0,785
1,ATATA,15,1,873,Correct,0,684
1,HXZMH,16,2,1180,Correct,0,723
1,TZTZT,7,3,656,Correct,0,866
1,UOUOU,15,1,744,Correct,0,935
1,ZTWAW,16,2,790,Correct,0,691
1,RZRER,7,3,910,Correct,0,740
2,JYJDJ,16,2,1209,Correct,0,705
2,DWDWD,15,1,819,Correct,0,657
2,GNGNG,7,3,795,Correct,0,672
2,NEZEZ,16,1,1106,Correct,0,840
2,RNROR,7,3,975,Correct,0,748
2,QTQNQ,7,3,837,Correct,0,661
2,HOHON,15,1,1112,Correct,0,799
2,KPKGK,16,2,1250,Correct,0,876
2,DRDED,16,2,1140,Correct,0,779
2,LNLNL,7,3,702,Correct,0,756
4,GLGLG,15,2,1178,False,0,883
4,DTDID,16,2,1253,Correct,0,669
4,SMSGS,16,,,False,0,947
4,ZFZYZ,7,3,940,Correct,0,780
4,TSTFT,7,3,1070,Correct,0,727
4,OFOFO,7,1,939,False,0,720
4,WYFGW,16,2,1167,Correct,0,738
4,WYWYW,15,1,1322,Correct,0,699
4,MFMCM,7,3,805,Correct,0,914
4,HQHEH,16,2,990,Correct,0,666
1,TKTKT,15,1,1000,Correct,0,730
1,SLSUS,16,2,989,Correct,0,669
1,VZVGV,7,3,776,Correct,0,881
1,XWXZX,7,3,910,Correct,0,859
1,ATATA,15,1,974,Correct,0,901
1,HXZMH,16,2,1118,Correct,0,745
1,TZTZT,7,3,1016,Correct,0,785
1,UOUOU,15,1,890,Correct,0,665
1,ZTWAW,16,2,1367,Correct,0,898
1,RZRER,7,3,882,Correct,0,922
Trials
1,D,5,3,112286,New Target,1,834
1,BNBYB,161,,,Incorrect,1,729
1,FBFBF,151,1,1377,Correct,1,891
1,RKRKR,152,1,868,Correct,1,826
1,QSQNQ,161,2,926,Correct,1,680
1,CTCFC,162,2,945,Correct,1,868
1,PDPDP,7,3,697,Correct,1,706
1,OPOFO,14,2,1315,Correct,1,928
1,HLHNH,162,2,1053,Correct,1,678
1,MFMFM,151,1,926,Correct,1,767
1,BTBTB,152,1,1044,Correct,1,819
1,MCMPD,235,2,770,Correct,1,897
1,BMBFB,222,2,1023,Correct,1,788
1,NTNZN,162,2,900,Correct,1,718
1,MXMRM,163,2,894,Correct,1,664
1,APABA,164,2,1153,Correct,1,892
1,FMDMF,223,1,1148,Correct,1,786
1,QPQPQ,113,1,1031,Correct,1,822
1,VQVMV,161,2,940,Correct,1,692
1,RERPR,162,2,988,Correct,1,939
1,KVKVK,151,1,827,Correct,1,801
1,AKAHA,161,2,934,Correct,1,730
1,VDVDV,8,3,858,Correct,1,832
1,DUGUG,221,1,1108,Correct,1,651
1,AFAFA,113,1,801,Correct,1,819
1,GYGYG,152,1,761,Correct,1,805
1,VXVSV,161,2,739,Correct,1,809
1,DOWGW,231,2,1006,Correct,1,871
1,QYQYQ,113,1,727,Correct,1,950
1,ODONO,91,3,692,Correct,1,849
1,MSMSM,13,1,689,Correct,1,831
1,GYGYG,152,1,797,Correct,1,895
1,UMUMU,153,1,770,Correct,1,933
1,BZBZB,154,1,847,Correct,1,759
1,NTNBN,161,2,866,Correct,1,902
1,GNDYG,233,2,932,Correct,1,942
1,OCOSO,222,2,967,Correct,1,872
1,BHBFB,162,2,999,Correct,1,867
1,QCQBQ,163,2,709,Correct,1,895
1,LQLQL,151,1,963,Correct,1,788
1,ZDZDZ,10,3,835,Correct,1,848
1,QNQZQ,14,2,873,Correct,1,825
1,CSCYC,162,2,852,Correct,1,742
1,RCRLR,163,2,1122,Correct,1,650
1,FRFRF,151,1,850,Correct,1,724
1,WFWFW,152,1,648,Correct,1,816
1,QOQLQ,161,2,809,Correct,1,775
1,AWAQA,162,2,861,Correct,1,902
1,EAEAE,151,1,709,Correct,1,815
1,AGAUA,161,2,647,Correct,1,680
1,YMYMY,151,1,664,Correct,1,844
1,XQXQX,152,1,777,Correct,1,736
1,SHSGS,161,2,788,Correct,1,786
1,PDPDP,11,1,669,Incorrect,1,854
1,ZGZGZ,13,1,862,Correct,1,663
1,OXOXO,152,1,776,Correct,1,728
1,LYLYL,153,1,994,Correct,1,822
1,NKNKD,225,1,1326,Correct,1,947
1,GNGNG,113,1,785,Correct,1,876
1,OYOBO,161,2,968,Correct,1,882
1,SOSOS,151,1,823,Correct,1,891
1,VHVHV,152,1,1026,Correct,1,763
1,OKOXO,161,2,1024,Correct,1,845
1,EZEZE,151,1,839,Correct,1,676
1,LDLDL,12,3,1040,Correct,1,832
2,U,5,3,1571,New Target,2,733
2,BVBEB,161,2,1022,Correct,2,653
2,FBFBF,151,1,861,Correct,2,836
2,RFRFR,152,1,817,Correct,2,865
2,NBNKN,161,2,840,Correct,2,886
2,MKMNM,162,2,942,Correct,2,777
2,QXQXQ,151,1,817,Correct,2,851
2,MQMYM,161,2,788,Correct,2,935
2,TGTPT,162,2,800,Correct,2,726
2,XOXOX,151,1,571,Correct,2,804
2,CUCUC,7,3,814,Correct,2,807
2,RFRFR,13,1,644,Correct,2,895
2,VYVSV,161,2,833,Correct,2,888
2,VDVDV,191,1,668,Correct,2,774
2,GKGQG,15,2,680,Correct,2,876
2,SCSCS,151,1,770,Correct,2,930
2,CTCUC,82,3,702,Correct,2,796
2,RCRCR,13,1,700,Correct,2,765
2,BOBXB,161,2,781,Correct,2,672
2,FMFAF,162,2,879,Correct,2,676
2,BEBAB,163,2,931,Correct,2,896
2,PWPWP,151,1,786,Correct,2,944
2,UQCKC,231,2,968,Correct,2,946
2,OCOCO,113,1,793,Correct,2,826
2,TNTNT,152,1,669,Correct,2,943
2,QCQGQ,161,1,634,Incorrect,2,873
2,WVWVW,151,1,718,Correct,2,773
2,TQTQT,152,1,856,Correct,2,769
2,FOFOF,225,1,737,Correct,2,767
2,WVWFW,222,2,1208,Correct,2,909
2,SWSWS,151,1,798,Correct,2,854
2,FYFCF,161,2,854,Correct,2,868
2,SUSWS,91,2,1021,Incorrect,2,862
2,CACHC,14,2,1007,Correct,2,761
2,VDVKV,172,2,994,Correct,2,834
2,YCYCY,15,1,785,Correct,2,879
2,NMNTN,161,2,766,Correct,2,756
2,XOUKX,233,2,1128,Correct,2,779
2,BPBPB,113,1,934,Correct,2,801
2,MRMRM,152,1,813,Correct,2,776
2,XMXMX,153,1,1028,Correct,2,841
2,AUAHA,101,3,648,Correct,2,778
2,XKXEU,235,2,1079,Correct,2,777
2,TFTFT,113,1,934,Correct,2,774
2,MDMDM,193,1,758,Correct,2,907
2,WYWMW,16,2,981,Correct,2,788
2,AZUZA,223,1,1335,Correct,2,766
2,KEKHK,222,2,1065,Correct,2,911
2,LALAL,151,1,679,Correct,2,822
2,CWCDC,184,2,1092,Incorrect,2,782
2,SGSTS,16,2,915,Correct,2,820
2,PXPXP,151,1,922,Correct,2,734
2,GRGYG,161,2,927,Correct,2,728
2,PUPOP,111,3,644,Correct,2,768
2,RNRNR,14,1,752,Correct,2,907
2,KDKDK,195,1,799,Correct,2,720
2,KTKTK,15,1,805,Correct,2,947
2,OROKO,161,2,1152,Correct,2,726
2,UNANA,221,1,1113,Correct,2,896
2,TATAT,113,1,969,Correct,2,738
2,AWAWA,152,1,1002,Incorrect,2,799
2,RDRDR,196,1,912,Correct,2,733
2,FCFCF,15,1,710,Correct,2,808
2,ZMZMZ,152,1,730,Correct,2,672
2,BUBUB,12,3,1033,Correct,2,798
3,E,5,3,2609,New Target,3,713
3,YZYZY,151,1,740,Correct,3,843
3,VFVNV,161,2,812,Correct,3,946
3,KAKAK,151,1,729,Correct,3,692
3,TKTKT,152,1,585,Correct,3,711
3,WHWTW,161,2,838,Correct,3,913
3,QEQFQ,71,3,1042,Correct,3,690
3,XNXNX,13,1,658,Correct,3,845
3,TXTXT,152,1,672,Correct,3,851
3,GLGNG,161,2,809,Correct,3,891
3,CUCTC,171,2,978,Correct,3,836
3,FAFQF,16,2,1047,Correct,3,792
3,ZLZLZ,151,1,739,Correct,3,914
3,YZYZY,152,1,718,Correct,3,813
3,CYCYC,153,1,1002,Correct,3,797
3,HUHUH,192,1,606,Correct,3,715
3,OSORO,16,2,931,Correct,3,684
3,YOYOY,151,1,839,Correct,3,813
3,CECEC,8,3,591,Correct,3,771
3,VNENV,223,2,1037,Incorrect,3,899
3,KQKFK,222,2,1217,Correct,3,665
3,XLXLE,225,1,892,Correct,3,753
3,QFQUQ,183,2,1383,Correct,3,709
3,SWSLS,16,2,1151,Correct,3,694
3,NBNPN,162,2,895,Correct,3,687
3,SGSGS,151,1,933,Correct,3,802
3,FBFBF,152,1,842,Correct,3,803
3,PFPFP,153,1,873,Correct,3,670
3,AGASA,161,2,1155,Correct,3,682
3,KEKEK,9,1,975,Incorrect,3,773
3,CWCOC,14,2,690,Correct,3,824
3,HXHXH,151,1,1040,Correct,3,828
3,NUNZN,174,2,830,Correct,3,904
3,QMQVQ,16,2,830,Correct,3,946
3,SQSQS,151,1,872,Correct,3,738
3,ERNFN,231,2,1188,Incorrect,3,690
3,AQANA,222,2,958,Correct,3,866
3,OBOEO,102,3,910,Correct,3,876
3,SYSXS,14,2,868,Correct,3,739
3,QBQHQ,162,2,1166,Correct,3,704
3,XQXQX,151,1,795,Correct,3,746
3,KUKFK,175,2,1029,Correct,3,799
3,RKRKR,15,1,865,Correct,3,895
3,GFGFG,152,1,1081,Correct,3,840
3,YBYVY,161,2,852,Correct,3,845
3,SPSTS,162,2,1355,Correct,3,829
3,AQAQA,151,1,898,Correct,3,656
3,EPVPV,221,1,1108,Correct,3,843
3,CQCEC,112,3,688,Correct,3,841
3,RFRCR,14,2,1228,Correct,3,819
3,CPCVC,162,2,1105,Correct,3,926
3,RXRCR,163,2,1196,Correct,3,830
3,TNTLT,164,2,1109,Correct,3,891
3,BSBSB,151,1,839,Correct,3,650
3,ZBZBZ,152,1,841,Correct,3,925
3,OYOUO,186,2,1118,Correct,3,855
3,AKAOA,16,2,1101,Correct,3,768
3,YQEWY,233,2,1210,Correct,3,877
3,ZMZMZ,113,1,1110,Correct,3,771
3,SWSTS,161,2,987,Correct,3,677
3,MFMQE,235,2,1193,Correct,3,859
3,RSRLR,222,2,1095,Correct,3,716
3,QEQWQ,121,3,674,Correct,3,891
4,K,5,3,5612,New Target,4,839
4,CACHC,161,2,943,Correct,4,780
4,RWRCR,162,2,996,Correct,4,813
4,FOFVF,163,2,1014,Correct,4,757
4,LGLGL,151,1,915,Correct,4,896
4,PLPLP,152,1,910,Correct,4,652
4,NPNPN,153,1,1001,Correct,4,685
4,SGSZS,161,2,828,Correct,4,762
4,DNDMD,162,2,1487,Correct,4,944
4,OCOAK,235,2,1484,Correct,4,873
4,VYVYV,113,1,877,Correct,4,761
4,RLRLR,152,1,832,Correct,4,932
4,DKDKD,7,3,1131,Correct,4,706
4,ZLZLZ,13,1,741,Correct,4,900
4,FZFZF,152,1,963,Correct,4,721
4,CFCFC,153,1,795,Correct,4,722
4,OZOZO,154,1,663,Correct,4,756
4,XEXEX,191,1,1058,Correct,4,936
4,NVNFN,16,2,992,Correct,4,878
4,AYAYA,151,1,774,Correct,4,720
4,BNBVB,161,2,845,Correct,4,916
4,AHKXA,233,2,1240,Correct,4,730
4,WFWFW,113,1,876,Correct,4,907
4,SNSNS,152,1,781,Correct,4,930
4,FKFMF,81,3,1029,Correct,4,784
4,DZDYD,14,2,927,Correct,4,940
4,GXGDG,162,2,996,Correct,4,792
4,AYAYK,225,1,1234,Correct,4,863
4,FPFGF,222,2,957,Correct,4,773
4,WRWRW,151,1,784,Correct,4,770
4,YPYEY,182,2,839,Correct,4,829
4,SQSQS,15,1,956,Correct,4,909
4,WZWPW,161,2,780,Correct,4,786
4,CKCKC,9,3,858,Correct,4,744
4,BWBVB,14,2,869,Correct,4,714
4,HMHMH,151,1,1087,Correct,4,776
4,VEVNV,173,2,1172,Correct,4,654
4,GMGVG,16,2,828,Correct,4,857
4,XHXKX,102,3,860,Correct,4,661
4,QXQRQ,14,2,803,Correct,4,818
4,LQLQL,151,1,853,Correct,4,905
4,ALELA,223,1,863,Correct,4,711
4,TPTKT,222,3,679,Incorrect,4,752
4,GEGEG,194,1,726,Correct,4,742
4,ZNZNZ,15,1,786,Correct,4,816
4,YZYZY,152,1,834,Correct,4,695
4,SYSYS,153,1,693,Correct,4,908
4,ZSZSZ,221,1,831,Correct,4,917
4,LALGL,222,2,854,Correct,4,851
4,CYCTC,162,2,916,Correct,4,664
4,WEWEW,195,1,759,Correct,4,848
4,CHCSC,16,2,806,Correct,4,717
4,GWGXG,162,2,945,Correct,4,737
4,FGFGF,151,1,1145,Correct,4,752
4,QWQKQ,112,3,1046,Correct,4,820
4,OQOFO,14,2,856,Correct,4,711
4,PMPEP,186,2,879,Correct,4,808
4,WBWPW,16,2,1285,Correct,4,783
4,KCDHD,231,2,803,Correct,4,655
4,RSRWR,222,2,705,Correct,4,675
4,HGHGH,151,1,812,Correct,4,859
4,SKSKS,12,1,835,Incorrect,4,871
5,L,5,3,6655,New Target,5,660
5,PDPDP,151,1,845,Correct,5,918
5,WAWAW,152,1,795,Correct,5,650
5,HWHWH,153,1,661,Correct,5,786
5,SHSHS,154,1,697,Correct,5,652
5,BRBWB,161,2,738,Correct,5,868
5,FPFBF,162,2,811,Correct,5,917
5,GAGAG,151,1,611,Correct,5,818
5,QVQGQ,161,2,678,Correct,5,755
5,CLCLC,7,3,824,Correct,5,711
5,XWXWX,13,1,870,Correct,5,668
5,AUAUA,152,1,714,Correct,5,845
5,CKCKC,191,1,1094,Correct,5,849
5,FNFCF,16,2,889,Correct,5,709
5,UHUQU,162,2,851,Correct,5,698
5,FZFZF,151,1,808,Correct,5,854
5,THLHT,223,1,898,Correct,5,764
5,CUCLC,82,3,780,Correct,5,667
5,BSBSB,13,1,775,Correct,5,801
5,FDFBF,161,2,849,Correct,5,797
5,LXRXR,221,1,851,Correct,5,922
5,ZOZNZ,222,2,764,Correct,5,789
5,UZUZU,151,1,903,Correct,5,783
5,AQATA,161,2,824,Correct,5,915
5,UNUPU,162,2,833,Correct,5,796
5,RVRKR,182,2,819,Correct,5,920
5,URURU,15,1,1103,Correct,5,696
5,VLVLV,9,3,761,Correct,5,856
5,DXDVD,14,2,770,Correct,5,866
5,PZPZP,151,1,713,Correct,5,868
5,LXUMU,231,2,769,Correct,5,909
5,AKADA,173,2,767,Incorrect,5,706
5,HYHYH,15,1,1196,Correct,5,775
5,AVAVA,152,1,1093,Correct,5,835
5,TUTUT,153,1,722,Correct,5,852
5,XYXWX,161,2,980,Correct,5,690
5,TKTDT,174,2,1353,Correct,5,739
5,NXNYN,16,2,1199,Correct,5,727
5,USUCU,162,2,899,Correct,5,918
5,ZMZMZ,151,1,794,Correct,5,794
5,WRWAW,161,2,887,Correct,5,690
5,GWGXG,162,2,797,Correct,5,762
5,MUMYL,235,2,1459,Correct,5,861
5,CNCNC,113,1,1286,Correct,5,769
5,RLRLR,10,3,897,Correct,5,742
5,UAUWU,14,2,1041,Correct,5,886
5,FXLRF,233,2,1315,Correct,5,753
5,PFPFP,113,1,820,Correct,5,941
5,HPHPH,152,1,825,Correct,5,946
5,GKGKG,195,1,1313,Correct,5,826
5,ZUZTZ,16,2,949,Correct,5,870
5,AVASA,162,2,873,Correct,5,761
5,PRPRP,151,1,783,Correct,5,769
5,YPYPY,152,1,1053,Correct,5,690
5,ZLZOZ,111,2,781,Incorrect,5,750
5,WMWSW,14,2,989,Correct,5,664
5,RZRXR,162,2,1165,Correct,5,906
5,QWQWQ,151,1,895,Correct,5,679
5,ZKZKZ,196,1,1234,Correct,5,828
5,CVCVL,225,1,1289,Incorrect,5,897
5,NMNMN,113,1,1043,Correct,5,705
5,TRTGT,161,2,1459,Correct,5,796
5,CTCTC,151,1,839,Correct,5,703
5,RKRLR,122,3,912,Correct,5,807
6,B,5,3,10053,New Target,6,723
6,YMYGY,161,2,1547,Correct,6,784
6,HUHRH,162,2,837,Correct,6,909
6,WHWHW,151,1,1329,Correct,6,692
6,MGMRM,161,2,931,Correct,6,838
6,ZVZWZ,162,2,833,Correct,6,935
6,RCRTR,163,2,861,Correct,6,685
6,DSDRD,164,2,1042,Correct,6,844
6,VTBDV,233,2,835,Correct,6,757
6,DSDHD,222,2,826,Correct,6,769
6,QEQEQ,151,1,810,Correct,6,668
6,XOXQX,161,2,1024,Correct,6,903
6,RARBR,72,3,988,Correct,6,906
6,GMGMG,13,1,770,Correct,6,674
6,ELERE,171,2,826,Correct,6,895
6,HZHUH,16,2,878,Correct,6,937
6,RHRVR,162,2,1031,Correct,6,705
6,YBYBY,8,1,774,Incorrect,6,858
6,PYPVP,14,2,862,Correct,6,916
6,TLTLT,192,1,914,Correct,6,899
6,QTQTQ,15,1,823,Correct,6,813
6,NXNVN,161,2,769,Correct,6,765
6,QNQNQ,151,1,1091,Correct,6,653
6,FUFHF,161,2,830,Correct,6,940
6,YVYFB,235,2,881,Incorrect,6,907
6,WQWSW,222,2,885,Correct,6,817
6,HNHLH,193,2,1134,Incorrect,6,750
6,OSOTO,16,2,1034,Correct,6,810
6,GWGOG,162,2,922,Correct,6,838
6,UBUBU,9,3,664,Correct,6,940
6,CWCWC,13,1,760,Correct,6,732
6,OCOEO,161,2,709,Correct,6,737
6,MNMNM,151,1,768,Correct,6,818
6,XLXLX,194,1,845,Correct,6,801
6,AYAYA,15,1,786,Correct,6,875
6,FUFAF,161,2,883,Correct,6,680
6,ANAQA,162,2,1208,Correct,6,796
6,BUPWP,231,2,1158,Correct,6,660
6,WSWSW,113,1,738,Correct,6,856
6,FRFRF,152,1,846,Correct,6,769
6,AUAUA,153,1,649,Correct,6,756
6,GMGCG,161,2,1000,Correct,6,762
6,HLHWH,175,2,876,Correct,6,690
6,PQBQP,223,1,1121,Correct,6,875
6,AZABA,102,3,1068,Correct,6,846
6,CWCVC,14,2,909,Correct,6,742
6,FAFAF,151,1,788,Correct,6,808
6,VMVSV,161,2,831,Correct,6,774
6,GBGBG,11,3,877,Correct,6,668
6,FOFNF,14,2,840,Correct,6,698
6,DSDSD,151,1,747,Correct,6,931
6,YDYDY,152,3,978,Incorrect,6,885
6,FOFOF,153,1,778,Correct,6,702
6,CHCHB,225,2,865,Incorrect,6,933
6,ZCZCZ,113,1,605,Correct,6,690
6,DZDGD,161,2,1185,Correct,6,679
6,MLMEM,176,2,1249,Correct,6,690
6,PXPXP,15,1,774,Correct,6,863
6,QYQYQ,152,1,671,Correct,6,808
6,GRGCG,161,2,880,Correct,6,682
6,QVQVQ,151,1,759,Correct,6,825
6,XYXNX,161,2,1047,Correct,6,702
6,BHMHM,221,1,1286,Correct,6,859
6,CBCBC,12,3,766,Correct,6,718
7,W,5,3,3848,New Target,7,873
7,QKQKQ,151,2,1556,Incorrect,7,835
7,DUDQD,161,2,1028,Correct,7,751
7,OKOKO,151,1,801,Correct,7,936
7,EOEOE,152,1,940,Correct,7,697
7,URUPU,161,2,816,Correct,7,856
7,GMGAG,162,2,817,Correct,7,933
7,HVWDH,233,2,1389,Correct,7,692
7,MHMHM,113,1,1200,Correct,7,813
7,YXYVY,161,2,1102,Correct,7,741
7,FNFNF,151,1,757,Correct,7,944
7,AWAWA,7,3,756,Correct,7,709
7,ZAZAZ,13,1,671,Correct,7,773
7,OYOYO,152,1,721,Correct,7,704
7,SQSQS,153,1,817,Correct,7,708
7,OSOSO,154,1,683,Correct,7,733
7,FCFBF,181,2,1063,Correct,7,832
7,EUEUE,15,1,835,Correct,7,820
7,CYCGC,161,2,1047,Correct,7,892
7,SZSUS,162,2,843,Correct,7,663
7,OFOFO,151,1,884,Correct,7,839
7,RVRUR,161,2,840,Correct,7,842
7,ZBZBZ,192,1,963,Correct,7,743
7,UCUTU,16,2,826,Correct,7,667
7,NWNWN,8,3,896,Correct,7,886
7,XNXUX,14,2,1060,Correct,7,769
7,CXCNC,162,2,809,Correct,7,685
7,AUAUW,225,3,1092,Incorrect,7,724
7,HEHEH,113,,,Incorrect,7,909
7,UFWFU,223,1,907,Correct,7,837
7,HVHEH,222,2,830,Correct,7,816
7,YBYBY,193,1,872,Correct,7,743
7,OYOYO,15,1,765,Correct,7,894
7,TMTWT,91,3,999,Correct,7,834
7,HTHTH,13,1,708,Correct,7,861
7,UHUHU,152,1,832,Correct,7,813
7,EVEBE,184,2,910,Incorrect,7,660
7,HZHMH,16,2,976,Correct,7,846
7,VHVCV,162,2,1029,Correct,7,746
7,WAGDG,231,2,1274,Correct,7,686
7,PFPFP,113,1,818,Correct,7,753
7,OQOQO,152,1,729,Correct,7,825
7,TWTWT,10,3,640,Correct,7,927
7,VKVDV,14,2,884,Correct,7,686
7,WPAPA,221,1,823,Correct,7,917
7,HBHBH,195,1,624,Correct,7,771
7,ZMZAZ,16,2,686,Correct,7,806
7,SYSYS,151,1,669,Correct,7,788
7,FZFXF,161,2,745,Correct,7,927
7,SMSMS,151,1,756,Correct,7,768
7,XOXOX,152,1,880,Correct,7,806
7,FWFWF,11,3,807,Correct,7,778
7,ENEBE,186,2,1059,Correct,7,689
7,ZVZGZ,16,2,818,Correct,7,791
7,EZEZE,151,1,879,Correct,7,669
7,TOTEW,235,2,736,Correct,7,936
7,PDPDP,113,1,840,Correct,7,893
7,TKTWT,122,3,624,Correct,7,777
8,M,5,3,9630,New Target,8,832
8,VYVNV,161,2,1033,Correct,8,690
8,KLKTK,162,2,840,Correct,8,824
8,NQNQN,151,1,670,Correct,8,841
8,VHVEV,161,2,697,Correct,8,938
8,XNXNM,225,1,1060,Correct,8,884
8,USUVU,222,2,750,Correct,8,903
8,KRKZK,162,2,734,Correct,8,679
8,TMTET,71,2,806,Incorrect,8,872
8,GFGFG,13,1,731,Correct,8,917
8,OPODO,161,2,754,Correct,8,915
8,KCKCK,151,1,812,Correct,8,875
8,VTVTV,152,1,761,Correct,8,652
8,LSLSL,153,1,672,Correct,8,925
8,DLDLD,154,1,794,Correct,8,900
8,NYNYN,155,1,768,Correct,8,898
8,DCMAD,233,2,982,Correct,8,896
8,TDTDT,113,1,663,Correct,8,837
8,GVGRG,161,2,778,Correct,8,719
8,ZUZUZ,151,1,697,Correct,8,702
8,OGOVO,161,2,731,Correct,8,681
8,PWPTP,171,,,Incorrect,8,826
8,KLKDM,235,2,1136,Correct,8,884
8,SMSMS,8,3,1026,Correct,8,687
8,PRPSP,14,2,846,Correct,8,891
8,DVDYD,162,2,1176,Correct,8,722
8,PXPMP,92,3,789,Correct,8,761
8,GDGLG,14,2,1132,Correct,8,889
8,SWSWS,192,1,1076,Correct,8,905
8,GDGLG,16,2,951,Correct,8,707
8,MTCYC,231,2,1082,Correct,8,810
8,GSGSG,113,1,1050,Correct,8,723
8,YQYTY,161,2,663,Correct,8,860
8,ZLZPZ,162,2,938,Correct,8,682
8,HZHZH,151,1,945,Correct,8,735
8,MSOSO,221,1,1027,Correct,8,893
8,HWHWH,193,1,1351,Correct,8,732
8,PYPAP,16,2,789,Correct,8,915
8,SPSVS,162,2,771,Correct,8,741
8,XLXLX,151,1,957,Correct,8,853
8,YMYMY,10,3,1011,Correct,8,713
8,HYHYH,13,1,848,Correct,8,916
8,OWOGO,174,2,930,Correct,8,916
8,PHPOP,16,2,952,Correct,8,797
8,NPNSN,162,2,1197,Correct,8,770
8,HVMVH,223,2,859,Incorrect,8,727
8,THTFT,222,2,1026,Correct,8,764
8,STSTS,151,1,836,Correct,8,798
8,AGAMA,112,2,1321,Incorrect,8,866
8,PEPEP,13,1,833,Correct,8,752
8,ZWZWZ,195,1,1333,Correct,8,879
8,ODOZO,16,2,884,Correct,8,935
8,LRLOL,162,2,878,Correct,8,688
8,GZGZG,151,1,889,Correct,8,695
8,TGTGT,152,1,848,Correct,8,800
8,CUCSC,161,2,725,Correct,8,919
8,SCSCS,151,1,783,Correct,8,799
8,AWAWA,196,1,1091,Correct,8,934
8,NLNLN,15,1,827,Correct,8,948
8,VNVNV,152,1,969,Correct,8,689
8,GMGMG,12,3,704,Correct,8,684
9,S,5,3,4667,New Target,9,864
9,NBNBN,151,1,847,Correct,9,846
9,KVKZK,161,2,834,Correct,9,865
9,LBLBL,151,1,711,Correct,9,831
9,XLXLX,152,1,741,Correct,9,755
9,ZXZXZ,153,1,628,Correct,9,713
9,KNKZK,161,2,695,Correct,9,732
9,TQTAT,162,2,676,Correct,9,833
9,CLCUC,163,2,750,Correct,9,909
9,ZCZFZ,164,2,777,Correct,9,814
9,NSNSN,7,3,1030,Correct,9,733
9,HGHGH,13,1,1044,Correct,9,886
9,THTDT,161,2,647,Correct,9,775
9,VMVMV,191,1,1113,Correct,9,682
9,CVCDC,16,2,794,Correct,9,758
9,ZAZRZ,162,2,643,Correct,9,804
9,XTXZX,163,2,770,Correct,9,852
9,OXOXO,151,1,737,Correct,9,698
9,DCDSD,82,3,965,Correct,9,919
9,PQPDP,14,2,695,Correct,9,853
9,ZMZMZ,192,1,808,Incorrect,9,689
9,BEBEB,15,1,755,Correct,9,766
9,FCFCF,152,1,690,Correct,9,746
9,YAYBY,161,2,788,Correct,9,716
9,KNKVK,162,2,673,Correct,9,682
9,SEPCP,231,,,Incorrect,9,887
9,OPOPO,113,1,731,Correct,9,698
9,XMXMX,193,1,882,Correct,9,868
9,KEKEK,15,1,668,Correct,9,664
9,USUSU,9,3,543,Correct,9,655
9,YHSHY,223,1,1266,Correct,9,806
9,UPUPU,113,1,702,Correct,9,657
9,XZXZX,152,1,645,Correct,9,904
9,KGKXK,161,2,1059,Correct,9,824
9,QEQPQ,162,2,855,Correct,9,696
9,NUNUS,225,1,1296,Correct,9,753
9,BXBXB,113,1,775,Correct,9,839
9,SQHQH,221,1,851,Correct,9,791
9,ACACA,113,1,714,Correct,9,871
9,KMKBK,174,2,979,Correct,9,886
9,EGSVE,233,2,921,Correct,9,733
9,HYHYH,113,1,845,Correct,9,829
9,LULUL,152,1,777,Correct,9,722
9,AEAEA,153,1,851,Correct,9,857
9,TXTST,102,3,1191,Correct,9,873
9,FDFCF,14,2,847,Correct,9,901
9,KVKVK,151,1,761,Correct,9,715
9,UBUCU,161,2,1110,Correct,9,699
9,GAGMG,185,2,913,Correct,9,904
9,UXUGU,16,2,1049,Correct,9,752
9,HOHOH,151,1,939,Correct,9,708
9,QUQTS,235,2,1118,Correct,9,806
9,YZYZY,113,1,721,Correct,9,675
9,BSBSB,11,3,675,Correct,9,670
9,FEFEF,13,1,1157,Correct,9,718
9,GMGMG,196,1,735,Correct,9,852
9,TGTXT,16,2,986,Correct,9,766
9,LSLFL,121,3,1216,Correct,9,713
10,Q,5,3,5348,New Target,10,730
10,ZHZOZ,161,2,1215,Correct,10,928
10,RZRZR,151,1,1484,Correct,10,711
10,BFBFB,152,1,744,Correct,10,835
10,GBGBG,153,1,1200,Correct,10,938
10,OGOXO,161,2,909,Correct,10,712
10,UEQOU,233,2,1246,Correct,10,910
10,BOBRB,222,2,1105,Correct,10,943
10,DYDVD,162,2,989,Correct,10,865
10,COCOC,151,1,878,Correct,10,823
10,YZYQY,72,3,706,Correct,10,885
10,FHFWF,14,2,850,Correct,10,717
10,ANANQ,225,1,868,Correct,10,940
10,ZAZAZ,113,1,760,Correct,10,897
10,ERESE,181,2,927,Incorrect,10,835
10,XTXOX,16,2,983,Correct,10,702
10,NXNXN,151,1,860,Correct,10,719
10,OVOZO,161,2,755,Correct,10,860
10,WUWOW,162,2,1248,Correct,10,788
10,FWFVF,163,2,910,Correct,10,691
10,NSNKN,172,2,901,Incorrect,10,716
10,VWVNV,16,2,766,Correct,10,716
10,XZXZX,151,1,795,Correct,10,734
10,VQVQV,8,3,563,Correct,10,828
10,GYGPG,14,2,834,Correct,10,875
10,OBOSO,183,2,1014,Correct,10,935
10,YUYUY,15,1,867,Correct,10,950
10,NDNQN,92,3,718,Correct,10,707
10,FCFHF,14,2,888,Correct,10,899
10,EFEFE,151,1,1144,Correct,10,947
10,NSNSN,194,1,919,Correct,10,798
10,YPYFY,16,2,806,Correct,10,904
10,ZKZKZ,151,1,716,Correct,10,839
10,QZQDR,231,2,1034,Correct,10,789
10,AOAHA,222,2,748,Correct,10,802
10,BGBGB,151,1,920,Correct,10,763
10,HQHQH,10,3,652,Correct,10,805
10,UHUBU,14,2,686,Correct,10,706
10,KRKSK,185,2,762,Correct,10,817
10,TOTOT,15,1,688,Correct,10,947
10,APAPA,152,1,672,Correct,10,661
10,VDVYV,161,2,927,Correct,10,783
10,FOFTF,162,2,764,Correct,10,945
10,QVXVX,221,1,999,Correct,10,794
10,GHGRG,222,2,617,Correct,10,826
10,LFLFL,151,1,668,Correct,10,792
10,HLHLH,152,1,869,Correct,10,898
10,KWQWK,223,1,1103,Correct,10,683
10,YQYQY,11,3,559,Correct,10,740
10,ADADA,13,1,934,Correct,10,702
10,OGOAO,161,2,761,Correct,10,813
10,EOEFE,162,2,1004,Correct,10,659
10,USUSU,196,1,822,Correct,10,943
10,VFVAQ,235,2,819,Correct,10,658
10,DZDXD,222,2,745,Correct,10,872
10,HVHDH,162,2,786,Correct,10,883
10,DWDWD,151,1,667,Correct,10,863
10,GBGBG,152,1,910,Correct,10,724
10,AOADA,161,2,661,Correct,10,758
10,GQGQG,12,3,1071,Correct,10,922
11,T,5,3,12929,New Target,11,775
11,KEKEK,151,,,Incorrect,11,653
11,LBLBL,152,1,871,Correct,11,665
11,HEHVH,161,2,814,Correct,11,824
11,FRFOF,162,2,834,Correct,11,950
11,EBEBE,151,1,712,Correct,11,906
11,HTHTH,7,3,847,Correct,11,866
11,MAMDM,14,2,772,Correct,11,891
11,VOVOV,151,1,803,Correct,11,713
11,XQXQX,191,1,876,Correct,11,837
11,PBPAP,16,2,690,Correct,11,815
11,MXMLM,162,2,688,Correct,11,777
11,TCNCN,221,1,875,Correct,11,898
11,OBONO,222,2,832,Correct,11,862
11,RCROR,162,2,1028,Correct,11,917
11,PBPRT,235,2,864,Correct,11,950
11,WFWVW,222,2,744,Correct,11,785
11,LTLUL,81,3,743,Correct,11,732
11,ZDZPZ,14,2,712,Correct,11,711
11,NCNQN,182,2,1138,Correct,11,854
11,XZXNX,16,2,1055,Correct,11,731
11,GOGOG,151,1,704,Correct,11,757
11,DFDFD,152,1,809,Correct,11,925
11,VWTRV,233,2,751,Correct,11,873
11,CFCVC,222,2,762,Correct,11,845
11,PAPAP,151,1,664,Correct,11,778
11,EQEYE,173,2,683,Correct,11,767
11,DNDED,16,2,1427,Correct,11,921
11,PTPTP,9,1,870,Incorrect,11,784
11,ZCZCZ,13,1,733,Correct,11,710
11,MZMZM,152,1,1364,Correct,11,905
11,ULUVU,161,2,744,Correct,11,774
11,BRBGB,162,2,709,Correct,11,752
11,MLMLT,225,1,878,Correct,11,917
11,GQGQG,194,1,709,Correct,11,739
11,HGHGH,15,1,706,Correct,11,844
11,RVRBR,161,2,700,Correct,11,865
11,ZOZDZ,162,2,841,Correct,11,765
11,VYVYV,151,1,1084,Correct,11,903
11,RVRVR,152,1,706,Correct,11,657
11,OTOTO,10,,,Incorrect,11,796
11,PXPXP,13,1,1111,Correct,11,858
11,MCMCM,152,1,725,Correct,11,701
11,YUYUY,153,1,600,Correct,11,662
11,DYDYD,154,1,977,Correct,11,944
11,WDWDW,155,1,1143,Correct,11,748
11,DYDQD,185,2,675,Correct,11,817
11,KDKNK,16,2,820,Correct,11,736
11,HOHOH,151,1,752,Correct,11,689
11,TWEZE,231,2,1000,Correct,11,932
11,NANHN,222,2,1414,Correct,11,887
11,VQVWV,176,2,749,Correct,11,665
11,ZRZRZ,15,1,742,Correct,11,821
11,VTVGV,111,2,754,Incorrect,11,841
11,HWHVH,14,2,784,Correct,11,741
11,EHEHE,151,1,726,Correct,11,925
11,VRVLV,161,2,1510,Correct,11,706
11,ACACA,151,1,675,Correct,11,871
11,WBTBW,223,1,723,Correct,11,724
11,UTUTU,12,3,641,Correct,11,736
12,O,5,3,1762,New Target,12,782
12,UXULU,161,2,921,Correct,12,873
12,MUMDM,162,2,943,Correct,12,768
12,VLVLV,151,1,676,Correct,12,743
12,BDBHB,161,2,673,Correct,12,828
12,KEKEK,151,1,751,Correct,12,782
12,WKWKW,152,1,791,Correct,12,886
12,AWAWA,153,1,740,Correct,12,739
12,EVEVE,154,1,832,Correct,12,836
12,PHPOP,72,3,905,Correct,12,788
12,WXWAW,14,2,776,Correct,12,910
12,PWPHP,162,2,853,Correct,12,735
12,ZTZTZ,191,1,1056,Correct,12,658
12,HVHMH,16,2,763,Correct,12,912
12,DKDKD,151,1,746,Correct,12,740
12,NPNPN,152,1,759,Correct,12,812
12,ZRZNZ,161,2,799,Correct,12,833
12,OGCGC,221,2,1146,Incorrect,12,809
12,LFLFL,113,1,665,Correct,12,724
12,WXWXW,152,1,1122,Correct,12,898
12,KPKPK,153,1,658,Correct,12,760
12,FRFKF,161,2,1045,Correct,12,665
12,EOEOE,8,3,1051,Correct,12,704
12,GEGEG,13,1,702,Correct,12,684
12,LKLBO,235,2,774,Correct,12,906
12,MLMZM,222,2,818,Correct,12,763
12,ASACA,162,2,969,Correct,12,811
12,LOLOL,9,3,1022,Correct,12,775
12,XLXLX,13,1,747,Correct,12,886
12,WHWHW,152,1,761,Correct,12,745
12,ETETE,192,1,991,Correct,12,875
12,OXGZG,231,2,869,Correct,12,689
12,CZCZC,113,1,635,Correct,12,770
12,LGLGL,152,1,711,Correct,12,938
12,VLVPV,161,2,1521,Correct,12,920
12,UYUYO,225,2,1117,Incorrect,12,897
12,SMSMS,113,1,609,Correct,12,677
12,RTRTR,193,1,723,Correct,12,778
12,KVKHK,16,2,963,Correct,12,723
12,ROROR,101,3,849,Correct,12,933
12,PRPRP,13,1,867,Correct,12,924
12,LALHL,161,2,998,Correct,12,903
12,PLPLP,151,1,878,Correct,12,670
12,CTCTC,194,1,645,Correct,12,805
12,XGXAX,16,2,728,Correct,12,719
12,NMNMN,151,1,694,Correct,12,787
12,HLHZH,161,2,664,Correct,12,702
12,YOYOY,11,3,745,Correct,12,771
12,PZOZP,223,1,1220,Correct,12,814
12,EAEAE,113,1,746,Correct,12,857
12,GXGVG,161,2,838,Correct,12,835
12,HMHGH,162,2,1011,Correct,12,698
12,GTGTG,195,1,728,Correct,12,700
12,LMLGL,16,2,601,Correct,12,667
12,ECEDE,162,2,762,Correct,12,845
12,PSPKP,163,2,738,Correct,12,838
12,MCOBM,233,2,933,Correct,12,661
12,EMEME,113,1,823,Correct,12,835
12,CTCRC,176,2,765,Correct,12,866
12,NSNSN,15,1,732,Correct,12,681
12,MWMVM,161,2,884,Correct,12,903
12,CPCOC,122,3,744,Correct,12,824
13,H,5,3,1160,New Target,13,902
13,VUVUV,151,1,907,Correct,13,903
13,YVYVY,152,1,726,Correct,13,679
13,XUXUX,153,1,798,Correct,13,942
13,NRNWN,161,2,762,Correct,13,721
13,MZMKM,162,2,804,Correct,13,819
13,HLVLV,221,1,1181,Correct,13,750
13,DXDGD,222,2,926,Correct,13,682
13,LHLAL,71,3,740,Correct,13,774
13,YMYFY,14,2,845,Correct,13,902
13,AOARA,171,1,1587,Incorrect,13,875
13,ZKZAZ,16,2,833,Correct,13,716
13,RZRZR,151,1,1178,Correct,13,817
13,NFNAN,161,,,Incorrect,13,652
13,KUKEK,162,2,1190,Correct,13,790
13,XAXYX,163,2,1091,Correct,13,684
13,LKLUL,164,2,1378,Correct,13,862
13,NLNLN,151,1,784,Correct,13,919
13,WDWOW,182,2,1084,Correct,13,747
13,EWEWE,15,1,828,Correct,13,764
13,VHVHV,8,3,1106,Correct,13,822
13,PVPVP,13,1,765,Correct,13,877
13,CRCSC,161,2,855,Correct,13,812
13,NWNWN,151,1,801,Correct,13,693
13,SQSQS,152,1,748,Correct,13,789
13,AEASA,161,2,811,Correct,13,678
13,GOGOG,193,1,709,Correct,13,771
13,QGQGQ,15,1,949,Correct,13,754
13,FMFMF,152,1,848,Correct,13,657
13,PFPFP,153,1,821,Correct,13,820
13,SYSHS,92,3,1009,Correct,13,713
13,QGQKQ,14,2,1070,Correct,13,885
13,ELELH,225,1,787,Correct,13,670
13,MRMRM,113,1,783,Correct,13,834
13,GUGNG,161,2,967,Correct,13,779
13,ZOZOZ,194,1,797,Correct,13,665
13,EZEZE,15,1,985,Correct,13,716
13,FHFKF,101,3,1325,Correct,13,683
13,GSHLG,233,2,720,Correct,13,836
13,FKFXF,222,2,830,Correct,13,693
13,DEDYD,162,2,1130,Correct,13,682
13,UXUVU,163,2,890,Correct,13,676
13,MCMOM,185,,,Incorrect,13,725
13,BXBUH,235,2,1194,Correct,13,944
13,DMDMD,113,1,707,Correct,13,867
13,BXBDB,161,2,835,Correct,13,695
13,AVAVA,151,1,1064,Correct,13,838
13,QUHUQ,223,1,879,Correct,13,663
13,BRBRB,113,1,728,Correct,13,770
13,ZHZHZ,11,3,1109,Correct,13,852
13,VZVZV,13,1,801,Correct,13,801
13,HBUQU,231,2,1215,Correct,13,712
13,EUEUE,113,1,699,Correct,13,782
13,RQRDR,161,2,741,Correct,13,825
13,COCOC,196,1,757,Correct,13,716
13,VNVSV,16,2,799,Correct,13,832
13,WHWHW,12,3,1286,Correct,13,869
14,G,5,3,12210,New Target,14,926
14,EBEBE,151,1,910,Correct,14,799
14,QPQUQ,161,2,992,Correct,14,890
14,XDXDX,151,1,772,Correct,14,716
14,YXYXY,152,1,747,Correct,14,915
14,MBMBM,153,1,752,Correct,14,940
14,QMQKQ,161,2,912,Correct,14,695
14,EYETE,162,2,872,Correct,14,766
14,UKUKU,151,1,781,Correct,14,881
14,MPGPM,223,1,883,Correct,14,886
14,ANANA,113,1,714,Correct,14,725
14,UAUAU,152,1,899,Correct,14,920
14,ADASA,161,2,748,Correct,14,758
14,LKLGL,72,3,891,Correct,14,704
14,UWUWU,13,1,672,Correct,14,831
14,MCMUM,161,2,979,Correct,14,665
14,YMYMY,151,1,742,Correct,14,749
14,RHRWR,171,2,1016,Correct,14,679
14,DUDCD,16,2,1021,Correct,14,671
14,ASAGA,82,3,747,Correct,14,904
14,DLDLD,13,1,811,Correct,14,657
14,ZXZDZ,161,2,1078,Correct,14,730
14,ULUFU,162,2,849,Correct,14,900
14,DPDPG,225,1,978,Correct,14,950
14,KHKTK,172,2,707,Correct,14,909
14,ZKZUZ,16,2,816,Correct,14,850
14,AKALA,162,2,750,Correct,14,689
14,CNCNC,151,1,852,Correct,14,913
14,PGPGP,9,3,654,Correct,14,783
14,UPUPU,13,1,761,Correct,14,901
14,FSGWF,233,2,1253,Correct,14,754
14,CACVC,222,2,1080,Correct,14,950
14,FTFTF,151,1,968,Correct,14,770
14,KFKCK,161,2,1071,Correct,14,746
14,ZEZHZ,183,2,833,Correct,14,711
14,NSNSN,15,1,829,Correct,14,711
14,ENENE,152,1,837,Correct,14,811
14,LXLWG,235,2,841,Correct,14,885
14,SMSUS,222,2,963,Correct,14,783
14,ZHZHZ,194,1,987,Correct,14,712
14,PFPFP,15,1,834,Correct,14,658
14,BABAB,152,1,767,Correct,14,705
14,XPXUX,161,2,845,Correct,14,773
14,ACACA,151,1,806,Correct,14,803
14,RGRGR,10,3,752,Correct,14,776
14,URURU,13,1,861,Correct,14,726
14,PKPTP,161,2,970,Correct,14,690
14,SGSGS,11,3,766,Correct,14,808
14,GZYVY,231,2,756,Correct,14,912
14,UDUTU,222,2,847,Correct,14,802
14,VHVHV,195,1,1158,Correct,14,788
14,LWLNL,16,2,1076,Correct,14,774
14,GKPKP,221,1,1042,Correct,14,811
14,SQSPS,222,2,1374,Correct,14,898
14,WNWNW,151,1,923,Correct,14,937
14,MHMTM,176,2,1364,Incorrect,14,703
14,RZRZR,15,1,792,Correct,14,805
14,CGCDC,121,3,1331,Correct,14,780
15,A,5,3,2141,New Target,15,797
15,WQWEW,161,2,1229,Correct,15,863
15,RWRKR,162,2,848,Correct,15,932
15,YRYRY,151,1,741,Correct,15,826
15,XOXOX,152,1,943,Correct,15,848
15,QPQPQ,153,1,947,Correct,15,804
15,TDTDT,154,1,810,Correct,15,680
15,WXWBW,161,2,792,Correct,15,690
15,TATAT,7,3,767,Correct,15,886
15,MCMYM,14,2,846,Correct,15,664
15,SMSFS,162,2,821,Correct,15,845
15,ZLZMZ,163,2,788,Correct,15,650
15,VDVBV,164,2,1113,Correct,15,917
15,XCXVX,165,2,659,Correct,15,861
15,LKLBA,235,2,571,Correct,15,930
15,NDNDN,113,1,798,Correct,15,806
15,YGYGY,191,1,846,Correct,15,674
15,VLVLV,15,1,743,Correct,15,748
15,WQWQW,152,1,690,Correct,15,780
15,MAMOM,81,3,1130,Correct,15,942
15,YZABY,233,2,1155,Correct,15,926
15,CFCFC,113,1,766,Correct,15,736
15,UTULU,161,2,891,Correct,15,770
15,KPKUK,162,2,879,Correct,15,891
15,TCTQT,163,2,772,Correct,15,823
15,FGFGF,192,1,1108,Correct,15,680
15,RCRYR,16,2,741,Correct,15,768
15,KRKDK,162,2,815,Correct,15,913
15,CRCRC,151,1,1086,Correct,15,653
15,WOAOW,223,1,1210,Correct,15,909
15,LPLWL,222,2,1115,Correct,15,676
15,DGDUD,173,2,1089,Correct,15,946
15,EMEZE,16,2,866,Correct,15,707
15,DADAD,9,3,695,Correct,15,834
15,WDWDW,13,1,792,Correct,15,718
15,AWQWQ,221,1,692,Correct,15,697
15,TKTQT,222,2,704,Correct,15,845
15,MTMFM,162,2,792,Correct,15,942
15,KAKAK,10,3,724,Correct,15,772
15,BDBRB,14,2,670,Correct,15,884
15,QPQPQ,151,1,653,Correct,15,742
15,NDNDN,152,1,830,Correct,15,813
15,QYQGQ,184,2,693,Correct,15,861
15,VPVPV,15,1,586,Correct,15,656
15,RDRDA,225,1,1214,Correct,15,722
15,KWKOK,222,2,612,Correct,15,907
15,TPTPT,151,1,1426,Correct,15,925
15,DCDCD,152,1,716,Correct,15,949
15,OWOAO,112,3,692,Correct,15,904
15,ZCZNZ,14,2,696,Correct,15,673
15,MYMGM,185,2,720,Correct,15,907
15,ANLOL,231,2,1020,Correct,15,849
15,DWDPD,222,2,843,Correct,15,800
15,YQYQY,151,1,1091,Correct,15,859
15,LGLGL,196,1,742,Correct,15,709
15,VYVLV,16,2,1123,Correct,15,733
15,MVMVM,151,1,1453,Correct,15,863
15,QMQMQ,152,1,622,Correct,15,815
15,SXSXS,153,1,757,Correct,15,651
15,WAWAW,12,3,590,Correct,15,830
