Trial No,Stimulus,Trigger,Response,Response Time(ms),Correct,Block,Fixation Duration
Practice
OT Practice
1,SKSKS,15,1,1447,Correct,0,719
1,DLDUD,16,2,1039,Correct,0,915
1,PDPGP,16,2,1070,Correct,0,686
1,MWMWM,15,1,1017,Correct,0,781
1,FTFTF,15,1,923,Correct,0,679
1,AXAMA,16,2,925,Correct,0,784
1,RYRGR,16,2,1071,Correct,0,846
1,DODOD,15,1,778,Correct,0,789
1,QTQAQ,16,2,1430,Correct,0,670
1,YEYEY,15,1,785,Correct,0,847
2,GYGDG,16,2,979,Correct,0,655
2,SWSWS,15,1,852,Correct,0,704
2,HLHUH,16,2,795,Correct,0,717
2,DEDED,15,1,785,Correct,0,828
2,ZPZOZ,16,2,685,Correct,0,671
2,ATATA,15,1,999,Correct,0,830
2,QOQOQ,15,,,False,0,891
2,FPFGF,16,2,943,Correct,0,907
2,TRTET,16,2,864,Correct,0,844
2,DQDQD,15,1,887,Correct,0,713
AT Practice
1,TKTKT,15,1,1381,Correct,0,760
1,SLSUS,16,2,1365,Correct,0,809
1,VZVGV,7,3,1172,Correct,0,820
1,XWXZX,7,3,1175,Correct,0,926
1,ATATA,15,2,818,False,0,756
1,HXZMH,16,,,False,0,724
1,TZTZT,7,3,1123,Correct,0,790
1,UOUOU,15,1,1036,Correct,0,779
1,ZTWAW,16,2,1242,Correct,0,724
1,RZRER,7,3,753,Correct,0,731
2,JYJDJ,16,2,968,Correct,0,753
2,DWDWD,15,1,743,Correct,0,727
2,GNGNG,7,3,656,Correct,0,740
2,NEZEZ,16,1,1160,Correct,0,949
2,RNROR,7,3,861,Correct,0,791
2,QTQNQ,7,2,1150,False,0,880
2,HOHON,15,1,987,Correct,0,675
2,KPKGK,16,2,1244,Correct,0,747
2,DRDED,16,2,1164,Correct,0,910
2,LNLNL,7,3,831,Correct,0,949
4,GLGLG,15,1,1151,Correct,0,888
4,DTDID,16,2,923,Correct,0,661
4,SMSGS,16,2,1251,Correct,0,667
4,ZFZYZ,7,3,1288,Correct,0,794
4,TSTFT,7,3,1103,Correct,0,709
4,OFOFO,7,3,971,Correct,0,698
4,WYFGW,16,2,1370,Correct,0,793
4,WYWYW,15,1,1511,Correct,0,916
4,MFMCM,7,3,831,Correct,0,845
4,HQHEH,16,2,1160,Correct,0,712
Trials
1,D,5,3,14345,New Target,1,683
1,ZNZYZ,161,2,1314,Correct,1,876
1,FZFZF,151,1,838,Correct,1,809
1,RKRKR,152,1,962,Correct,1,675
1,RXRNR,161,2,819,Correct,1,912
1,CNCFC,162,2,1023,Correct,1,667
1,PDPDP,7,3,671,Correct,1,791
1,CPCFC,14,2,972,Correct,1,868
1,VLVNV,162,2,831,Correct,1,828
1,KFKFK,151,1,791,Correct,1,855
1,ZNZNZ,152,3,740,Incorrect,1,788
1,KCKPD,235,2,1487,Correct,1,848
1,ZKZFZ,222,2,892,Correct,1,765
1,NRNZN,162,2,912,Correct,1,805
1,KXKRK,163,2,772,Correct,1,834
1,YPYZY,164,2,1026,Correct,1,692
1,FKDKF,223,2,1153,Incorrect,1,843
1,RPRPR,113,,,Incorrect,1,674
1,VRVKV,161,2,824,Correct,1,924
1,RFRPR,162,2,1057,Correct,1,809
1,KVKVK,151,1,743,Correct,1,666
1,YKYVY,161,2,801,Correct,1,879
1,VDVDV,8,3,799,Correct,1,776
1,DVZVZ,221,3,1252,Incorrect,1,838
1,YFYFY,113,1,1017,Correct,1,890
1,ZYZYZ,152,1,854,Correct,1,901
1,VLVXV,161,2,768,Correct,1,709
1,DPXZX,231,2,1023,Correct,1,731
1,RYRYR,113,1,764,Correct,1,887
1,PDPNP,91,3,886,Correct,1,813
1,KXKXK,13,1,957,Correct,1,779
1,ZYZYZ,152,1,882,Correct,1,741
1,VKVKV,153,1,776,Correct,1,778
1,YZYZY,154,1,739,Correct,1,854
1,NLNZN,161,2,1219,Correct,1,661
1,ZNDYZ,233,2,1295,Correct,1,702
1,PCPXP,222,2,708,Correct,1,860
1,ZVZFZ,162,2,829,Correct,1,938
1,RCRZR,163,2,821,Correct,1,874
1,LRLRL,151,1,891,Correct,1,815
1,ZDZDZ,10,3,781,Correct,1,937
1,RNRZR,14,2,1168,Correct,1,908
1,CXCYC,162,2,1065,Correct,1,930
1,RCRLR,163,2,882,Correct,1,909
1,FRFRF,151,1,825,Correct,1,777
1,XFXFX,152,1,836,Correct,1,719
1,RPRLR,161,2,1022,Correct,1,744
1,YXYRY,162,2,762,Correct,1,906
1,FYFYF,151,1,769,Correct,1,949
1,YZYVY,161,2,751,Correct,1,699
1,YKYKY,151,1,877,Correct,1,768
1,XRXRX,152,1,851,Correct,1,866
1,XVXZX,161,2,779,Correct,1,816
1,PDPDP,11,3,869,Correct,1,852
1,ZFZFZ,13,1,695,Correct,1,929
1,PXPXP,152,1,775,Correct,1,738
1,LYLYL,153,1,801,Correct,1,832
1,NKNKD,225,2,1179,Incorrect,1,766
1,ZNZNZ,113,1,964,Correct,1,857
1,PYPZP,161,2,1014,Correct,1,855
1,XPXPX,151,1,1031,Correct,1,791
1,VLVLV,152,1,935,Correct,1,846
1,PKPXP,161,2,934,Correct,1,920
1,FZFZF,151,1,700,Correct,1,760
1,LDLDL,12,3,735,Correct,1,650
2,U,5,3,1411,New Target,2,657
2,ZVZFZ,161,2,852,Correct,2,681
2,FZFZF,151,1,927,Correct,2,653
2,RFRFR,152,1,775,Correct,2,706
2,NZNKN,161,2,897,Correct,2,779
2,FZFNF,162,2,1031,Correct,2,736
2,RXRXR,151,1,759,Correct,2,837
2,KRKYK,161,2,772,Correct,2,724
2,NZNPN,162,2,849,Correct,2,755
2,XPXPX,151,1,711,Correct,2,872
2,CUCUC,7,3,771,Correct,2,836
2,RFRFR,13,1,766,Correct,2,748
2,VYVXV,161,2,972,Correct,2,763
2,VDVDV,191,1,925,Correct,2,832
2,ZKZRZ,15,2,933,Correct,2,734
2,XCXCX,151,1,789,Correct,2,873
2,CNCUC,82,3,1374,Correct,2,815
2,RCRCR,13,1,886,Correct,2,726
2,ZPZXZ,161,2,719,Correct,2,777
2,FKFYF,162,2,783,Correct,2,716
2,ZFZYZ,163,2,773,Correct,2,907
2,PXPXP,151,1,815,Correct,2,841
2,URCKC,231,2,1288,Correct,2,771
2,PCPCP,113,1,815,Correct,2,801
2,XNXNX,152,1,839,Correct,2,817
2,RCRZR,161,2,701,Correct,2,883
2,XVXVX,151,1,792,Correct,2,826
2,NRNRN,152,1,776,Correct,2,664
2,FPFPF,225,1,963,Correct,2,813
2,XVXFX,222,2,884,Correct,2,891
2,PRPRP,151,1,867,Correct,2,941
2,FYFCF,161,2,744,Correct,2,834
2,XUXFX,91,1,593,Incorrect,2,892
2,CYCVC,14,2,945,Correct,2,807
2,VDVKV,172,2,1029,Correct,2,805
2,YCYCY,15,3,700,Incorrect,2,670
2,NKNLN,161,2,809,Correct,2,814
2,XPUKX,233,2,916,Correct,2,806
2,ZPZPZ,113,1,699,Correct,2,737
2,KRKRK,152,1,812,Correct,2,671
2,XKXKX,153,1,997,Correct,2,769
2,YUYVY,101,3,921,Correct,2,712
2,XKXFU,235,2,1400,Correct,2,933
2,NFNFN,113,1,776,Correct,2,888
2,KDKDK,193,1,773,Correct,2,695
2,XYXKX,16,2,798,Correct,2,848
2,YZUZY,223,2,1020,Incorrect,2,706
2,KFKVK,222,2,822,Correct,2,917
2,LYLYL,151,1,1087,Correct,2,853
2,CXCDC,184,2,845,Incorrect,2,752
2,XZXNX,16,2,1057,Correct,2,925
2,PXPXP,151,1,832,Correct,2,818
2,ZRZYZ,161,2,745,Correct,2,800
2,PUPYP,111,3,882,Correct,2,847
2,RNRNR,14,1,934,Correct,2,837
2,KDKDK,195,1,799,Correct,2,690
2,KNKNK,15,1,728,Correct,2,779
2,PRPKP,161,2,903,Correct,2,816
2,UNYNY,221,1,1032,Correct,2,918
2,NYNYN,113,1,1256,Correct,2,781
2,YXYXY,152,1,835,Incorrect,2,734
2,RDRDR,196,1,826,Correct,2,852
2,FCFCF,15,1,706,Correct,2,847
2,ZKZKZ,152,1,730,Correct,2,884
2,ZUZUZ,12,3,789,Correct,2,800
3,E,5,3,1874,New Target,3,771
3,YZYZY,151,3,670,Incorrect,3,755
3,VFVNV,161,2,1324,Correct,3,812
3,KYKYK,151,1,877,Correct,3,950
3,NKNKN,152,1,800,Correct,3,895
3,XVXNX,161,2,888,Correct,3,822
3,RERFR,71,3,939,Correct,3,899
3,XNXNX,13,1,894,Correct,3,837
3,NXNXN,152,1,1082,Correct,3,693
3,ZLZNZ,161,2,974,Correct,3,666
3,CUCNC,171,2,971,Correct,3,915
3,FYFRF,16,2,783,Correct,3,782
3,ZLZLZ,151,1,825,Correct,3,785
3,YZYZY,152,1,700,Correct,3,926
3,CYCYC,153,1,879,Correct,3,711
3,VUVUV,192,1,839,Correct,3,784
3,PXPRP,16,2,889,Correct,3,933
3,YPYPY,151,1,746,Correct,3,950
3,CECEC,8,3,552,Correct,3,711
3,VNENV,223,2,1004,Incorrect,3,793
3,KRKFK,222,2,938,Correct,3,936
3,XLXLE,225,1,857,Correct,3,947
3,RFRUR,183,2,843,Correct,3,943
3,XRXLX,16,2,1107,Correct,3,798
3,NZNPN,162,2,829,Correct,3,887
3,XZXZX,151,1,859,Correct,3,712
3,FZFZF,152,1,1167,Correct,3,839
3,PFPFP,153,1,1035,Correct,3,814
3,YZYXY,161,2,796,Correct,3,758
3,KEKEK,9,3,1138,Correct,3,879
3,CXCPC,14,2,947,Correct,3,708
3,VXVXV,151,1,891,Correct,3,713
3,NUNZN,174,3,1011,Incorrect,3,737
3,RKRVR,16,2,1079,Correct,3,789
3,XRXRX,151,1,731,Correct,3,674
3,ERNFN,231,2,1288,Incorrect,3,732
3,YRYNY,222,2,939,Correct,3,932
3,PZPEP,102,3,1295,Correct,3,797
3,ZYZXZ,14,2,1112,Correct,3,741
3,RZRVR,162,2,1050,Correct,3,720
3,XRXRX,151,1,791,Correct,3,898
3,KUKFK,175,2,1094,Correct,3,707
3,RKRKR,15,1,999,Correct,3,771
3,ZFZFZ,152,2,1221,Incorrect,3,931
3,YZYVY,161,2,974,Correct,3,791
3,XPXNX,162,2,829,Correct,3,882
3,YRYRY,151,1,730,Correct,3,690
3,EPVPV,221,1,932,Correct,3,879
3,CRCEC,112,3,1060,Correct,3,900
3,RFRCR,14,2,927,Correct,3,837
3,CPCVC,162,2,932,Correct,3,812
3,RXRCR,163,2,765,Correct,3,690
3,VNVLV,164,2,862,Correct,3,659
3,ZXZXZ,151,1,960,Correct,3,926
3,ZCZCZ,152,1,755,Correct,3,772
3,PYPUP,186,2,858,Correct,3,866
3,YKYPY,16,2,876,Correct,3,942
3,YREXY,233,2,1240,Correct,3,697
3,ZKZKZ,113,1,947,Correct,3,780
3,XLXNX,161,2,773,Correct,3,830
3,KFKRE,235,2,1132,Correct,3,933
3,RXRLR,222,2,836,Correct,3,930
3,RERXR,121,3,1006,Correct,3,736
4,J,5,3,1737,New Target,4,671
4,CYCVC,161,2,1087,Correct,4,821
4,RXRCR,162,2,781,Correct,4,765
4,FPFVF,163,2,825,Correct,4,767
4,LZLZL,151,1,852,Correct,4,770
4,PLPLP,152,1,863,Correct,4,700
4,NPNPN,153,1,805,Correct,4,876
4,XZXZX,161,1,704,Incorrect,4,757
4,CNCKC,162,2,865,Correct,4,700
4,PCPYJ,235,2,862,Correct,4,684
4,VYVYV,113,1,720,Correct,4,913
4,RLRLR,152,1,704,Correct,4,770
4,CJCJC,7,3,719,Correct,4,727
4,ZLZLZ,13,1,696,Correct,4,859
4,FZFZF,152,1,739,Correct,4,880
4,CFCFC,153,1,738,Correct,4,738
4,PZPZP,154,1,730,Correct,4,944
4,XEXEX,191,1,1099,Correct,4,703
4,NVNFN,16,2,810,Correct,4,736
4,KYKYK,151,1,872,Correct,4,685
4,ZNZVZ,161,2,738,Correct,4,672
4,YVJXY,233,2,1216,Correct,4,709
4,XFXFX,113,1,1049,Correct,4,791
4,XNXNX,152,1,802,Correct,4,923
4,FJFKF,81,3,759,Correct,4,942
4,CZCYC,14,2,1027,Correct,4,700
4,ZXZCZ,162,2,756,Correct,4,768
4,RYRYJ,225,2,1006,Incorrect,4,890
4,FPFZF,222,2,785,Correct,4,809
4,XRXRX,151,1,793,Correct,4,845
4,YPYEY,182,2,1012,Correct,4,736
4,XRXRX,15,1,787,Correct,4,899
4,XZXPX,161,2,929,Correct,4,724
4,CJCJC,9,3,765,Correct,4,653
4,ZXZVZ,14,2,757,Correct,4,920
4,VKVKV,151,1,800,Correct,4,845
4,VEVNV,173,2,743,Correct,4,916
4,ZKZVZ,16,2,802,Correct,4,756
4,XVXJX,102,3,900,Correct,4,941
4,RXRVR,14,2,823,Correct,4,895
4,LRLRL,151,1,926,Correct,4,853
4,YNJNY,223,1,1150,Correct,4,873
4,NPNJN,222,3,803,Incorrect,4,942
4,ZEZEZ,194,1,766,Correct,4,715
4,ZNZNZ,15,1,731,Correct,4,733
4,YZYZY,152,1,685,Correct,4,667
4,XYXYX,153,1,879,Correct,4,737
4,ZXZXZ,221,1,822,Correct,4,757
4,LYLZL,222,2,1261,Correct,4,913
4,CYCNC,162,2,831,Correct,4,928
4,XEXEX,195,1,763,Correct,4,703
4,CVCXC,16,2,735,Correct,4,670
4,ZPZXZ,162,2,692,Correct,4,887
4,FZFZF,151,1,656,Correct,4,794
4,RXRJR,112,3,979,Correct,4,734
4,PRPFP,14,2,753,Correct,4,881
4,PKPEP,186,2,816,Correct,4,736
4,XZXPX,16,2,780,Correct,4,677
4,JCZVZ,231,2,737,Correct,4,869
4,RXRLR,222,2,792,Correct,4,915
4,VZVZV,151,1,883,Correct,4,814
4,XJXJX,12,3,756,Correct,4,935
5,I,5,3,1631,New Target,5,711
5,PCPCP,151,1,937,Correct,5,777
5,XYXYX,152,1,766,Correct,5,760
5,VXVXV,153,1,937,Correct,5,838
5,XVXVX,154,1,857,Correct,5,908
5,ZRZXZ,161,2,1026,Correct,5,735
5,FPFZF,162,2,789,Correct,5,745
5,ZYZYZ,151,1,755,Correct,5,661
5,RVRZR,161,2,764,Correct,5,812
5,CICIC,7,3,694,Correct,5,863
5,XLXLX,13,1,809,Correct,5,680
5,YVYVY,152,1,895,Correct,5,853
5,CJCJC,191,1,1269,Correct,5,818
5,FNFCF,16,2,776,Correct,5,921
5,PVPRP,162,2,826,Correct,5,662
5,FZFZF,151,1,771,Correct,5,826
5,NVIVN,223,1,956,Correct,5,826
5,CVCIC,82,3,992,Correct,5,783
5,ZXZXZ,13,1,1006,Correct,5,925
5,FCFZF,161,2,730,Correct,5,950
5,IXRXR,221,1,1049,Correct,5,697
5,ZPZNZ,222,2,836,Correct,5,948
5,VZVZV,151,1,827,Correct,5,811
5,YRYNY,161,2,760,Correct,5,743
5,VNVPV,162,2,881,Correct,5,885
5,RVRJR,182,2,913,Correct,5,939
5,VRVRV,15,1,674,Correct,5,950
5,VIVIV,9,3,790,Correct,5,692
5,CXCVC,14,2,716,Correct,5,900
5,PZPZP,151,1,731,Correct,5,792
5,IXVKV,231,2,1104,Correct,5,948
5,YJYCY,173,2,943,Incorrect,5,806
5,VYVYV,15,1,755,Correct,5,824
5,YVYVY,152,1,700,Correct,5,893
5,NVNVN,153,1,841,Correct,5,829
5,XYXVX,161,2,757,Correct,5,665
5,NJNCN,174,2,862,Correct,5,863
5,NXNYN,16,2,1032,Correct,5,770
5,VXVCV,162,2,1112,Correct,5,787
5,ZKZKZ,151,1,900,Correct,5,874
5,XRXYX,161,2,704,Correct,5,657
5,ZCZXZ,162,2,863,Correct,5,784
5,KVKYI,235,2,1040,Correct,5,925
5,CNCNC,113,1,702,Correct,5,875
5,RIRIR,10,3,572,Correct,5,796
5,VYVXV,14,2,827,Correct,5,829
5,FXIRF,233,2,917,Correct,5,719
5,PFPFP,113,1,775,Correct,5,905
5,VPVPV,152,1,782,Correct,5,835
5,ZJZJZ,195,1,1017,Correct,5,751
5,ZVZNZ,16,2,767,Correct,5,669
5,YVYXY,162,2,905,Correct,5,840
5,PRPRP,151,1,962,Correct,5,716
5,YPYPY,152,1,872,Correct,5,742
5,ZIZPZ,111,3,1012,Correct,5,652
5,NKNXN,14,2,1029,Correct,5,811
5,RZRXR,162,2,780,Correct,5,701
5,RXRXR,151,1,785,Correct,5,873
5,ZJZJZ,196,1,922,Correct,5,837
5,CVCVI,225,2,921,Correct,5,923
5,NKNKN,113,1,708,Correct,5,651
5,NRNZN,161,2,1067,Correct,5,942
5,CNCNC,151,1,884,Correct,5,944
5,RFRIR,122,2,793,Incorrect,5,870
6,B,5,3,1947,New Target,6,861
6,YKYZY,161,2,1345,Correct,6,781
6,VCVRV,162,2,934,Correct,6,813
6,XVXVX,151,1,760,Correct,6,910
6,KZKRK,161,2,927,Correct,6,896
6,ZVZXZ,162,2,815,Correct,6,880
6,RCRNR,163,2,722,Correct,6,914
6,CXCRC,164,2,704,Correct,6,758
6,VNBCV,233,2,1022,Correct,6,749
6,CXCVC,222,2,747,Correct,6,902
6,RFRFR,151,1,1018,Correct,6,741
6,XPXRX,161,2,1088,Correct,6,680
6,RYRBR,72,3,962,Correct,6,675
6,ZKZKZ,13,1,1171,Correct,6,930
6,FIFRF,171,2,883,Correct,6,689
6,VZVLV,16,2,1000,Correct,6,814
6,RPRVR,162,2,944,Correct,6,673
6,YBYBY,8,3,865,Correct,6,850
6,PYPVP,14,2,1255,Correct,6,874
6,NININ,192,3,948,Incorrect,6,701
6,RNRNR,15,1,886,Correct,6,851
6,NXNVN,161,2,772,Correct,6,678
6,RNRNR,151,1,823,Correct,6,921
6,FRFVF,161,2,731,Correct,6,922
6,YVYFB,235,2,1079,Incorrect,6,826
6,ZRZXZ,222,2,848,Correct,6,899
6,VNVIV,193,2,1164,Incorrect,6,670
6,PXPNP,16,2,723,Correct,6,865
6,ZXZPZ,162,2,733,Correct,6,838
6,VBVBV,9,3,703,Correct,6,722
6,CXCXC,13,1,1047,Correct,6,885
6,PCPFP,161,2,741,Correct,6,895
6,KNKNK,151,1,818,Correct,6,714
6,XIXIX,194,1,969,Correct,6,829
6,CYCYC,15,1,750,Correct,6,772
6,FVFYF,161,2,972,Correct,6,712
6,YNYRY,162,2,830,Correct,6,810
6,BVPXP,231,2,741,Correct,6,815
6,NXNXN,113,1,901,Correct,6,664
6,FRFRF,152,1,886,Correct,6,946
6,YVYVY,153,1,781,Correct,6,728
6,ZKZCZ,161,2,739,Correct,6,832
6,VIVXV,175,2,757,Correct,6,690
6,PRBRP,223,2,1263,Incorrect,6,867
6,YZYBY,102,3,891,Correct,6,716
6,CXCVC,14,2,769,Correct,6,756
6,FYFYF,151,1,833,Correct,6,700
6,VKVXV,161,2,918,Correct,6,885
6,ZBZBZ,11,3,704,Correct,6,699
6,FPFNF,14,2,996,Correct,6,657
6,CXCXC,151,1,759,Correct,6,778
6,YCYCY,152,1,798,Correct,6,922
6,FPFPF,153,1,794,Correct,6,689
6,CVCVB,225,1,991,Correct,6,881
6,ZCZCZ,113,1,612,Correct,6,709
6,CZCNC,161,2,1138,Correct,6,879
6,KIKFK,176,2,1106,Correct,6,760
6,PXPXP,15,1,726,Correct,6,658
6,RYRYR,152,1,870,Correct,6,691
6,ZRZCZ,161,2,874,Correct,6,908
6,RVRVR,151,1,788,Correct,6,665
6,XYXNX,161,2,829,Correct,6,928
6,BVKVK,221,1,1142,Correct,6,696
6,CBCBC,12,3,867,Correct,6,854
7,W,5,3,1559,New Target,7,679
7,RKRKR,151,1,1014,Correct,7,771
7,CVCRC,161,2,841,Correct,7,695
7,PKPKP,151,1,864,Correct,7,825
7,FPFPF,152,1,1160,Correct,7,744
7,VRVPV,161,2,963,Correct,7,897
7,ZKZYZ,162,2,1042,Correct,7,940
7,PVPCP,233,2,930,Correct,7,822
7,KVKVK,113,1,1002,Correct,7,703
7,YXYVY,161,2,1156,Correct,7,947
7,FNFNF,151,1,693,Correct,7,699
7,YWYWY,7,3,884,Correct,7,767
7,ZYZYZ,13,1,727,Correct,7,911
7,PYPYP,152,1,1310,Correct,7,920
7,XRXRX,153,1,696,Correct,7,697
7,PXPXP,154,1,708,Correct,7,884
7,FCFBF,181,2,680,Correct,7,659
7,FVFVF,15,1,763,Correct,7,724
7,CYCZC,161,2,742,Correct,7,845
7,XZXVX,162,2,786,Correct,7,825
7,PFPFP,151,1,732,Correct,7,747
7,RVRLR,161,2,701,Correct,7,706
7,ZBZBZ,192,1,954,Correct,7,832
7,VCVNV,16,2,1183,Correct,7,735
7,NWNWN,8,3,693,Correct,7,896
7,XNXVX,14,2,1111,Correct,7,685
7,CXCNC,162,2,852,Correct,7,808
7,YVYVW,225,2,1068,Incorrect,7,789
7,VFVFV,113,1,970,Correct,7,849
7,VFWFV,223,1,1165,Correct,7,701
7,CVCFC,222,2,820,Correct,7,910
7,YBYBY,193,1,672,Correct,7,719
7,PYPYP,15,1,1006,Correct,7,837
7,NKNWN,91,2,898,Incorrect,7,693
7,VNVNV,13,1,635,Correct,7,710
7,RVRVR,152,1,1065,Correct,7,847
7,FVFBF,184,2,939,Incorrect,7,759
7,VZVKV,16,2,1100,Correct,7,887
7,VPVCV,162,2,1000,Correct,7,890
7,WYZCZ,231,2,1223,Correct,7,842
7,PFPFP,113,1,1059,Correct,7,687
7,PRPRP,152,1,1088,Correct,7,919
7,NWNWN,10,3,892,Correct,7,854
7,VKVCV,14,2,811,Correct,7,935
7,WPYPY,221,1,919,Correct,7,717
7,VBVBV,195,3,767,Incorrect,7,734
7,ZKZYZ,16,2,741,Correct,7,893
7,XYXYX,151,1,1057,Correct,7,805
7,FZFXF,161,2,1014,Correct,7,683
7,XKXKX,151,1,763,Correct,7,682
7,XPXPX,152,1,679,Correct,7,764
7,FWFWF,11,3,801,Correct,7,922
7,FNFBF,186,2,687,Correct,7,663
7,ZVZYZ,16,2,731,Correct,7,842
7,FZFZF,151,1,646,Correct,7,804
7,NPNFW,235,2,950,Correct,7,807
7,PCPCP,113,3,687,Incorrect,7,653
7,NKNWN,122,3,1423,Correct,7,718
8,M,5,3,1323,New Target,8,771
8,VYVNV,161,2,1195,Correct,8,902
8,KLKNK,162,2,1256,Correct,8,750
8,NRNRN,151,1,862,Correct,8,868
8,VNVFV,161,2,1162,Correct,8,700
8,XNXNM,225,1,1302,Correct,8,749
8,CXCVC,222,2,687,Correct,8,691
8,KRKZK,162,2,719,Correct,8,720
8,NMNFN,71,3,971,Correct,8,821
8,ZFZFZ,13,1,862,Correct,8,813
8,YPYCY,161,2,667,Correct,8,687
8,KCKCK,151,1,715,Correct,8,830
8,VNVNV,152,1,986,Correct,8,685
8,LXLXL,153,1,972,Correct,8,851
8,CLCLC,154,1,904,Correct,8,944
8,NYNYN,155,1,1014,Correct,8,942
8,LCMYL,233,2,1220,Correct,8,873
8,NCNCN,113,1,1545,Correct,8,902
8,ZVZRZ,161,2,834,Correct,8,872
8,ZVZVZ,151,1,668,Correct,8,781
8,PZPVP,161,2,736,Correct,8,657
8,PWPNP,171,2,1244,Correct,8,738
8,KLKCM,235,2,1201,Correct,8,945
8,XMXMX,8,3,880,Correct,8,743
8,PRPXP,14,2,834,Correct,8,931
8,CVCYC,162,2,838,Correct,8,920
8,PXPMP,92,3,763,Correct,8,875
8,ZCZLZ,14,2,739,Correct,8,860
8,XWXWX,192,2,1039,Incorrect,8,790
8,ZCZLZ,16,2,665,Correct,8,936
8,MNCYC,231,2,965,Correct,8,882
8,ZXZXZ,113,1,757,Correct,8,858
8,YRYNY,161,2,671,Correct,8,834
8,ZLZPZ,162,2,763,Correct,8,876
8,VZVZV,151,1,822,Correct,8,788
8,MXPXP,221,1,1213,Correct,8,860
8,VWVWV,193,1,1125,Correct,8,891
8,PYPYP,16,1,757,Incorrect,8,758
8,XPXVX,162,2,946,Correct,8,728
8,XLXLX,151,1,587,Correct,8,732
8,YMYMY,10,3,706,Correct,8,682
8,VYVYV,13,1,706,Correct,8,769
8,PWPZP,174,2,780,Correct,8,850
8,PYPKP,16,2,790,Correct,8,754
8,NPNXN,162,2,1092,Correct,8,735
8,KVKVK,223,1,1312,Correct,8,883
8,NVNFN,222,2,999,Correct,8,747
8,XNXNX,151,1,875,Correct,8,755
8,YZYMY,112,3,1286,Correct,8,662
8,PFPFP,13,1,971,Correct,8,833
8,ZWZWZ,195,1,1119,Correct,8,800
8,PCPZP,16,2,689,Correct,8,679
8,LRLPL,162,2,1052,Correct,8,872
8,CZCZC,151,1,832,Correct,8,694
8,NZNZN,152,1,1003,Correct,8,664
8,CVCXC,161,2,860,Correct,8,809
8,XCXCX,151,1,944,Correct,8,928
8,YWYWY,196,1,706,Correct,8,840
8,NLNLN,15,1,1034,Correct,8,925
8,VNVNV,152,1,777,Correct,8,823
8,ZMZMZ,12,3,938,Correct,8,711
9,S,5,3,1576,New Target,9,913
9,NZNZN,151,1,1136,Correct,9,806
9,KVKZK,161,2,915,Correct,9,681
9,LZLZL,151,1,771,Correct,9,896
9,XLXLX,152,1,689,Correct,9,781
9,ZXZXZ,153,1,745,Correct,9,860
9,KNKZK,161,2,807,Correct,9,723
9,NRNYN,162,2,802,Correct,9,730
9,CLCVC,163,2,857,Correct,9,914
9,ZCZFZ,164,2,757,Correct,9,688
9,NSNSN,7,3,1074,Correct,9,713
9,VZVZV,13,1,721,Correct,9,748
9,NVNCN,161,2,1042,Correct,9,652
9,VMVMV,191,1,1190,Correct,9,663
9,CVCXC,16,2,669,Correct,9,871
9,ZYZRZ,162,2,754,Correct,9,660
9,XNXZX,163,2,809,Correct,9,948
9,PXPXP,151,1,868,Correct,9,772
9,VCVSV,82,2,753,Incorrect,9,696
9,PRPCP,14,2,893,Correct,9,809
9,ZMZMZ,192,1,1106,Incorrect,9,844
9,ZFZFZ,15,1,732,Correct,9,939
9,FCFCF,152,1,708,Correct,9,849
9,YLYZY,161,2,801,Correct,9,757
9,KNKVK,162,2,797,Correct,9,756
9,SFPCP,231,2,1162,Correct,9,721
9,RPRPR,113,1,1110,Correct,9,793
9,XMXMX,193,1,911,Correct,9,920
9,KFKFK,15,1,677,Correct,9,778
9,VSVSV,9,3,702,Correct,9,912
9,YVSVY,223,1,1134,Correct,9,780
9,VPVPV,113,1,824,Correct,9,857
9,XZXZX,152,1,643,Correct,9,764
9,KZKXK,161,2,768,Correct,9,855
9,RFRPR,162,2,997,Correct,9,921
9,NVNVS,225,1,844,Correct,9,664
9,ZXZXZ,113,1,663,Correct,9,722
9,SRVRV,221,1,1037,Correct,9,680
9,YCYCY,113,1,733,Correct,9,745
9,KMKZK,174,2,826,Correct,9,764
9,FZSVF,233,2,996,Correct,9,753
9,VYVYV,113,1,744,Correct,9,769
9,LVLVL,152,1,902,Correct,9,827
9,YFYFY,153,1,653,Correct,9,677
9,NXNSN,102,3,1020,Correct,9,832
9,FNFCF,14,2,814,Correct,9,794
9,KVKVK,151,1,748,Correct,9,699
9,VZVCV,161,2,731,Correct,9,746
9,ZYZMZ,185,2,825,Correct,9,718
9,VXVZV,16,2,786,Correct,9,858
9,VPVPV,151,1,797,Correct,9,710
9,RVRNS,235,2,1108,Correct,9,946
9,YZYZY,113,1,678,Correct,9,651
9,ZSZSZ,11,3,725,Correct,9,808
9,FRFRF,13,1,835,Correct,9,768
9,ZMZMZ,196,1,797,Correct,9,788
9,NZNXN,16,2,681,Correct,9,761
9,LSLFL,121,3,698,Correct,9,747
10,Q,5,3,1695,New Target,10,686
10,ZVZPZ,161,2,919,Correct,10,739
10,RZRZR,151,1,781,Correct,10,769
10,ZFZFZ,152,1,790,Correct,10,796
10,RZRZR,153,1,763,Correct,10,930
10,PZPXP,161,2,716,Correct,10,675
10,VFQPV,233,2,915,Correct,10,904
10,ZPZRZ,222,2,935,Correct,10,834
10,CYCVC,162,2,1087,Correct,10,682
10,CPCPC,151,1,623,Correct,10,735
10,YZYQY,72,3,1040,Correct,10,816
10,FVFXF,14,2,691,Correct,10,717
10,YNYNQ,225,1,1057,Correct,10,821
10,ZYZYZ,113,1,830,Correct,10,847
10,FRFSF,181,2,1098,Incorrect,10,688
10,XNXPX,16,2,917,Correct,10,860
10,NXNXN,151,1,1260,Correct,10,698
10,PVPZP,161,2,1015,Correct,10,712
10,XVXPX,162,2,844,Correct,10,715
10,FXFVF,163,2,950,Correct,10,733
10,NSNKN,172,2,855,Incorrect,10,888
10,VXVNV,16,2,852,Correct,10,650
10,XZXZX,151,1,862,Correct,10,754
10,VQVQV,8,3,657,Correct,10,900
10,ZYZPZ,14,2,756,Correct,10,727
10,PZPSP,183,2,843,Correct,10,880
10,YVYVY,15,1,723,Correct,10,749
10,NCNQN,92,3,723,Correct,10,692
10,FCFVF,14,2,610,Correct,10,765
10,ZFZFZ,151,1,949,Correct,10,699
10,NSNSN,194,1,684,Correct,10,738
10,YPYFY,16,2,692,Correct,10,938
10,ZKZKZ,151,1,801,Correct,10,829
10,QZRCR,231,2,1019,Correct,10,709
10,YPYVY,222,2,748,Correct,10,772
10,ZNZNZ,151,1,699,Correct,10,680
10,VQVQV,10,3,651,Correct,10,709
10,RVRZR,14,2,661,Correct,10,945
10,KRKSK,185,2,790,Correct,10,744
10,NPNPN,15,1,607,Correct,10,830
10,YPYPY,152,1,679,Correct,10,653
10,VCVYV,161,2,709,Correct,10,790
10,FPFNF,162,2,894,Correct,10,918
10,QVXVX,221,1,1081,Correct,10,665
10,ZVZRZ,222,2,641,Correct,10,938
10,LFLFL,151,1,724,Correct,10,743
10,VLVLV,152,1,658,Correct,10,763
10,KXQXK,223,1,1108,Correct,10,763
10,YQYQY,11,3,672,Correct,10,887
10,YCYCY,13,1,1067,Correct,10,919
10,PZPYP,161,2,760,Correct,10,889
10,LPLFL,162,2,726,Correct,10,686
10,VSVSV,196,1,1164,Correct,10,943
10,VFVYQ,235,2,1358,Correct,10,661
10,CZCXC,222,2,771,Correct,10,784
10,PVPCP,162,2,831,Correct,10,809
10,CXCXC,151,1,936,Correct,10,798
10,NZNZN,152,1,1067,Correct,10,853
10,YPYCY,161,2,710,Correct,10,848
10,ZQZQZ,12,3,808,Correct,10,718
11,T,5,3,2301,New Target,11,789
11,KFKFK,151,1,971,Correct,11,663
11,LZLZL,152,1,699,Correct,11,832
11,PFPVP,161,2,797,Correct,11,670
11,FRFPF,162,2,1019,Correct,11,704
11,FZFZF,151,1,683,Correct,11,787
11,VTVTV,7,1,574,Incorrect,11,662
11,KYKCK,14,2,833,Correct,11,744
11,VPVPV,151,1,681,Correct,11,780
11,XQXQX,191,1,884,Correct,11,882
11,PZPYP,16,2,922,Correct,11,808
11,KXKLK,162,2,704,Correct,11,738
11,TCNCN,221,1,701,Correct,11,741
11,PZPNP,222,2,636,Correct,11,721
11,RCRPR,162,2,781,Correct,11,767
11,PZPRT,235,2,1186,Correct,11,937
11,XFXVX,222,2,817,Correct,11,752
11,LTLVL,81,3,854,Correct,11,924
11,ZCZPZ,14,2,691,Correct,11,682
11,NCNQN,182,2,909,Correct,11,922
11,XZXNX,16,2,703,Correct,11,908
11,ZPZPZ,151,1,860,Correct,11,768
11,CFCFC,152,1,821,Correct,11,807
11,VXTRV,233,2,668,Correct,11,820
11,CFCVC,222,2,687,Correct,11,742
11,PYPYP,151,1,955,Correct,11,845
11,FQFYF,173,2,947,Correct,11,704
11,CNCFC,16,2,737,Correct,11,906
11,PTPTP,9,3,625,Correct,11,715
11,ZCZCZ,13,1,898,Correct,11,727
11,KZKZK,152,1,915,Correct,11,917
11,RLRVR,161,2,645,Correct,11,840
11,ZRZKZ,162,2,651,Correct,11,676
11,KLKLT,225,2,677,Incorrect,11,913
11,ZQZQZ,194,1,1007,Correct,11,935
11,VZVZV,15,1,597,Correct,11,701
11,RVRZR,161,2,838,Correct,11,791
11,ZPZCZ,162,2,686,Correct,11,800
11,VYVYV,151,1,958,Correct,11,669
11,RVRVR,152,1,674,Correct,11,756
11,PTPTP,10,3,723,Correct,11,727
11,PXPXP,13,1,766,Correct,11,892
11,KCKCK,152,1,695,Correct,11,799
11,YVYVY,153,1,681,Correct,11,681
11,CYCYC,154,1,854,Correct,11,853
11,XCXCX,155,1,658,Correct,11,699
11,CYCQC,185,2,695,Correct,11,700
11,KCKNK,16,2,777,Correct,11,683
11,VPVPV,151,1,687,Correct,11,930
11,TXFZF,231,2,855,Correct,11,935
11,NYNVN,222,2,856,Correct,11,949
11,VQVXV,176,2,1279,Correct,11,783
11,ZRZRZ,15,1,787,Correct,11,934
11,VTVZV,111,3,839,Correct,11,935
11,PXPVP,14,2,617,Correct,11,942
11,FVFVF,151,1,620,Correct,11,772
11,VRVLV,161,2,800,Correct,11,721
11,YCYCY,151,1,616,Correct,11,852
11,XZTZX,223,1,993,Correct,11,917
11,VTVTV,12,3,744,Correct,11,679
12,O,5,3,1348,New Target,12,711
12,VXVLV,161,2,915,Correct,12,852
12,KVKCK,162,2,853,Correct,12,842
12,VLVLV,151,1,1178,Correct,12,870
12,ZCZVZ,161,2,683,Correct,12,684
12,KFKFK,151,1,679,Correct,12,795
12,XKXKX,152,1,1207,Correct,12,794
12,YXYXY,153,1,787,Correct,12,783
12,FVFVF,154,1,744,Correct,12,912
12,PVPOP,72,3,1021,Correct,12,916
12,ZXZYZ,14,2,690,Correct,12,674
12,PXPVP,162,2,684,Correct,12,921
12,ZTZTZ,191,1,1175,Correct,12,893
12,CVCKC,16,2,777,Correct,12,662
12,CKCKC,151,1,648,Correct,12,752
12,NPNPN,152,1,852,Correct,12,814
12,ZRZNZ,161,2,782,Correct,12,759
12,OZCZC,221,1,1085,Correct,12,653
12,LFLFL,113,1,678,Correct,12,905
12,CXCXC,152,1,777,Correct,12,666
12,KPKPK,153,1,833,Correct,12,885
12,FRFKF,161,2,858,Correct,12,775
12,FOFOF,8,3,804,Correct,12,683
12,ZFZFZ,13,1,1082,Correct,12,916
12,LKLZO,235,2,1260,Correct,12,703
12,KLKZK,222,2,1221,Correct,12,720
12,YXYCY,162,2,866,Correct,12,704
12,LOLOL,9,3,777,Correct,12,825
12,XLXLX,13,1,772,Correct,12,828
12,XVXVX,152,1,649,Correct,12,938
12,FTFTF,192,1,604,Correct,12,683
12,OXNZN,231,2,995,Correct,12,677
12,CZCZC,113,1,811,Correct,12,700
12,LZLZL,152,1,864,Correct,12,866
12,VLVPV,161,2,823,Correct,12,768
12,VYVYO,225,1,1094,Correct,12,680
12,XKXKX,113,1,980,Correct,12,789
12,RTRTR,193,1,737,Correct,12,914
12,KVKCK,16,2,947,Correct,12,692
12,ROROR,101,3,987,Correct,12,706
12,PRPRP,13,1,1024,Correct,12,686
12,LYLVL,161,2,990,Correct,12,894
12,PLPLP,151,1,692,Correct,12,732
12,CTCTC,194,1,976,Correct,12,794
12,XZXYX,16,2,880,Correct,12,832
12,NKNKN,151,1,977,Correct,12,919
12,VLVZV,161,2,739,Correct,12,850
12,YOYOY,11,3,891,Correct,12,883
12,PZOZP,223,1,950,Correct,12,656
12,FYFYF,113,1,826,Correct,12,796
12,ZXZVZ,161,2,717,Correct,12,921
12,VKVZV,162,2,725,Correct,12,860
12,ZTZTZ,195,1,720,Correct,12,868
12,LKLZL,16,2,1055,Correct,12,701
12,KCKVK,162,2,874,Correct,12,923
12,PXPKP,163,2,1101,Correct,12,880
12,KCOZK,233,2,1062,Correct,12,949
12,FKFKF,113,1,1330,Correct,12,863
12,CTCRC,176,2,892,Correct,12,673
12,NXNXN,15,1,864,Correct,12,795
12,KXKVK,161,2,1130,Correct,12,768
12,CPCOC,122,2,1212,Incorrect,12,656
13,H,5,3,1058,New Target,13,886
13,VFVNV,151,2,1124,Incorrect,13,756
13,YVYVY,152,1,631,Correct,13,654
13,XVXVX,153,1,730,Correct,13,737
13,NRNXN,161,2,674,Correct,13,903
13,PZPKP,162,2,601,Correct,13,949
13,HLVLV,221,1,1142,Correct,13,878
13,CXCZC,222,2,786,Correct,13,835
13,LHLYL,71,3,1035,Correct,13,819
13,YKYFY,14,2,844,Correct,13,737
13,YOYRY,171,2,1114,Correct,13,701
13,ZKZYZ,16,2,986,Correct,13,723
13,RZRZR,151,1,775,Correct,13,901
13,NFNYN,161,2,1172,Correct,13,707
13,KVKFK,162,2,948,Correct,13,676
13,XFXYX,163,2,1268,Correct,13,896
13,LKLVL,164,2,710,Correct,13,944
13,NLNLN,151,1,852,Correct,13,757
13,XCXOX,182,2,987,Correct,13,816
13,FXFXF,15,1,847,Correct,13,711
13,VHVHV,8,3,697,Correct,13,800
13,PVPVP,13,1,850,Correct,13,892
13,CRCXC,161,2,686,Correct,13,667
13,NXNXN,151,1,839,Correct,13,947
13,XRXRX,152,1,825,Correct,13,926
13,YFYXY,161,2,885,Correct,13,655
13,ZOZOZ,193,1,742,Correct,13,921
13,RZRZR,15,1,801,Correct,13,838
13,FKFKF,152,1,827,Correct,13,758
13,PFPFP,153,1,774,Correct,13,685
13,XYXHX,92,2,820,Incorrect,13,715
13,RZRKR,14,2,970,Correct,13,907
13,FLFLH,225,1,1127,Correct,13,928
13,KRKRK,113,1,1017,Correct,13,722
13,ZVZNZ,161,2,956,Correct,13,705
13,ZOZOZ,194,1,858,Correct,13,869
13,FZFZF,15,1,687,Correct,13,819
13,FHFKF,101,3,727,Correct,13,943
13,ZXHLZ,233,2,1342,Correct,13,944
13,FKFXF,222,2,809,Correct,13,680
13,CFCYC,162,2,1037,Correct,13,924
13,ZXZVZ,163,2,684,Correct,13,854
13,KCKOK,185,2,828,Correct,13,729
13,ZXZVH,235,2,968,Correct,13,737
13,CKCKC,113,1,779,Correct,13,736
13,ZXZCZ,161,2,833,Correct,13,928
13,YVYVY,151,1,902,Correct,13,923
13,RVHVR,223,2,812,Incorrect,13,738
13,ZRZRZ,113,1,858,Correct,13,658
13,ZHZHZ,11,3,732,Correct,13,909
13,VZVZV,13,1,781,Correct,13,708
13,HZVRV,231,2,930,Correct,13,914
13,FVFVF,113,1,849,Correct,13,922
13,RNRCR,161,2,905,Correct,13,781
13,COCOC,196,1,750,Correct,13,862
13,VNVXV,16,2,872,Correct,13,766
13,XHXHX,12,1,653,Incorrect,13,864
14,G,5,3,1431,New Target,14,761
14,FZFZF,151,1,771,Correct,14,787
14,RPRVR,161,2,761,Correct,14,853
14,XCXCX,151,1,613,Correct,14,749
14,YXYXY,152,1,796,Correct,14,656
14,KZKZK,153,1,692,Correct,14,822
14,RYRKR,161,2,782,Correct,14,851
14,FYFNF,162,2,1003,Correct,14,669
14,VKVKV,151,1,838,Correct,14,918
14,KPGPK,223,2,1195,Incorrect,14,890
14,YNYNY,113,1,576,Correct,14,906
14,VYVYV,152,1,845,Correct,14,922
14,YCYXY,161,2,740,Correct,14,777
14,LKLGL,72,2,769,Incorrect,14,776
14,VXVXV,13,1,781,Correct,14,741
14,KCKVK,161,2,654,Correct,14,659
14,YKYKY,151,1,604,Correct,14,803
14,RHRXR,171,2,1256,Correct,14,948
14,FVFCF,16,2,725,Correct,14,738
14,YXYGY,82,3,705,Correct,14,814
14,CLCLC,13,1,781,Correct,14,766
14,ZXZCZ,161,2,1074,Correct,14,923
14,VLVFV,162,2,1026,Correct,14,736
14,CPCPG,225,1,1014,Correct,14,745
14,KHKNK,172,2,1489,Correct,14,949
14,ZKZVZ,16,2,677,Correct,14,710
14,YKYLY,162,2,738,Correct,14,821
14,CNCNC,151,1,735,Correct,14,800
14,PGPGP,9,3,645,Correct,14,944
14,VPVPV,13,1,981,Correct,14,788
14,FXGRF,233,2,1018,Correct,14,713
14,CYCVC,222,2,863,Correct,14,669
14,FNFNF,151,1,738,Correct,14,919
14,KFKCK,161,2,705,Correct,14,658
14,ZFZHZ,183,2,748,Correct,14,925
14,NXNXN,15,1,804,Correct,14,903
14,FNFNF,152,1,735,Correct,14,721
14,LXLNG,235,2,590,Correct,14,744
14,XKXVX,222,2,947,Correct,14,709
14,ZHZHZ,194,1,931,Correct,14,857
14,PFPFP,15,1,924,Correct,14,665
14,ZYZYZ,152,1,722,Correct,14,786
14,XPXVX,161,2,689,Correct,14,716
14,YCYCY,151,1,642,Correct,14,675
14,RGRGR,10,3,750,Correct,14,926
14,VRVRV,13,1,878,Correct,14,702
14,PKPNP,161,2,724,Correct,14,750
14,XGXGX,11,3,688,Correct,14,846
14,GZYVY,231,2,921,Correct,14,913
14,VCVNV,222,2,858,Correct,14,899
14,VHVHV,195,1,982,Correct,14,672
14,LXLNL,16,2,921,Correct,14,837
14,GKPKP,221,1,1357,Correct,14,800
14,XRXPX,222,2,948,Correct,14,775
14,XNXNX,151,1,796,Correct,14,706
14,KHKNK,176,2,1074,Incorrect,14,911
14,RZRZR,15,1,804,Correct,14,717
14,CGCFC,121,3,1291,Correct,14,910
15,A,5,3,1463,New Target,15,908
15,XRXFX,161,2,967,Correct,15,855
15,RXRKR,162,2,943,Correct,15,672
15,YRYRY,151,1,786,Correct,15,812
15,XPXPX,152,1,877,Correct,15,812
15,RPRPR,153,1,823,Correct,15,756
15,NCNCN,154,1,790,Correct,15,677
15,RXRZR,161,2,828,Correct,15,925
15,NANAN,7,3,677,Correct,15,823
15,KCKYK,14,2,643,Correct,15,754
15,XKXFX,162,2,785,Correct,15,808
15,ZLZKZ,163,2,781,Correct,15,769
15,VCVZV,164,2,711,Correct,15,726
15,XCXVX,165,2,805,Correct,15,737
15,LKLZA,235,2,1155,Correct,15,705
15,NCNCN,113,1,734,Correct,15,864
15,YGYGY,191,1,815,Correct,15,686
15,VLVLV,15,1,695,Correct,15,740
15,XRXRX,152,1,982,Correct,15,768
15,KAKPK,81,3,683,Correct,15,752
15,YZAZY,233,1,997,Incorrect,15,880
15,CFCFC,113,1,694,Correct,15,784
15,VNVLV,161,2,598,Correct,15,710
15,KPKVK,162,2,741,Correct,15,832
15,NCNRN,163,2,813,Correct,15,886
15,FGFGF,192,1,714,Correct,15,731
15,RCRYR,16,2,786,Correct,15,886
15,KRKCK,162,2,634,Correct,15,821
15,CRCRC,151,1,680,Correct,15,857
15,XPAPX,223,1,632,Correct,15,801
15,LPLXL,222,2,707,Correct,15,854
15,CGCVC,173,2,972,Correct,15,925
15,FKFZF,16,2,1072,Correct,15,730
15,CACAC,9,3,723,Correct,15,665
15,XCXCX,13,1,788,Correct,15,689
15,AXRXR,221,1,1101,Correct,15,719
15,NKNRN,222,2,912,Correct,15,713
15,KNKFK,162,2,798,Correct,15,941
15,KAKAK,10,3,744,Correct,15,759
15,ZCZRZ,14,2,785,Correct,15,839
15,RPRPR,151,1,1029,Correct,15,915
15,NCNCN,152,1,708,Correct,15,829
15,RYRGR,184,2,822,Correct,15,668
15,VPVPV,15,1,621,Correct,15,855
15,RCRCA,225,1,1016,Correct,15,914
15,KXKPK,222,2,776,Correct,15,786
15,NPNPN,151,1,598,Correct,15,789
15,YCYCY,152,1,586,Correct,15,710
15,PXPAP,112,2,684,Incorrect,15,772
15,ZCZNZ,14,2,765,Correct,15,698
15,KYKGK,185,2,854,Correct,15,819
15,ANLPL,231,2,1039,Correct,15,751
15,CXCPC,222,2,780,Correct,15,907
15,YRYRY,151,1,727,Correct,15,782
15,LGLGL,196,1,754,Correct,15,815
15,VYVLV,16,2,639,Correct,15,727
15,KVKVK,151,1,915,Correct,15,747
15,RKRKR,152,1,919,Correct,15,812
15,VXVXV,153,1,784,Correct,15,727
15,XAXAX,12,3,698,Correct,15,722
