Trial No,Stimulus,Trigger,Response,Response Time(ms),Correct,Block,Fixation Duration
Practice
OT Practice
1,SKSKS,15,1,1551,Correct,0,882
1,DLDUD,16,2,980,Correct,0,926
1,PDPGP,16,2,932,Correct,0,793
1,MWMWM,15,1,870,Correct,0,746
1,FTFTF,15,1,619,Correct,0,736
1,AXAMA,16,2,738,Correct,0,947
1,RYRGR,16,2,601,Correct,0,784
1,DODOD,15,1,682,Correct,0,734
1,QTQAQ,16,2,644,Correct,0,860
1,YEYEY,15,1,716,Correct,0,922
2,GYGDG,16,2,771,Correct,0,718
2,SWSWS,15,1,476,Correct,0,736
2,HLHUH,16,2,732,Correct,0,928
2,DEDED,15,1,580,Correct,0,809
2,ZPZOZ,16,2,803,Correct,0,750
2,ATATA,15,1,495,Correct,0,676
2,QOQOQ,15,1,765,Correct,0,916
2,FPFGF,16,2,674,Correct,0,803
2,TRTET,16,2,663,Correct,0,928
2,DQDQD,15,1,803,Correct,0,810
4,PLPLP,15,1,628,Correct,0,850
4,ATAIA,16,2,765,Correct,0,915
4,SKSGS,16,2,771,Correct,0,868
4,ZYZYZ,15,1,524,Correct,0,703
4,QSQSQ,15,1,556,Correct,0,878
4,TZTDT,16,2,633,Correct,0,798
4,JYJGJ,16,2,695,Correct,0,738
4,DYDYD,15,1,535,Correct,0,655
4,LTLCL,16,2,746,Correct,0,690
4,FQFEF,16,2,561,Correct,0,801
DT Practice
1,TKTKT,15,,,False,0,914
1,SLSUS,16,,,False,0,774
1,VZVGV,7,,,False,0,940
1,XWXZX,7,,,False,0,749
1,ATATA,15,,,False,0,697
1,HXZMH,16,,,False,0,861
1,TZTZT,7,,,False,0,685
1,UOUOU,15,,,False,0,777
1,ZTWAW,16,,,False,0,770
1,RZRER,7,,,False,0,713
2,JYJDJ,16,2,1422,Correct,0,805
2,DWDWD,15,2,797,False,0,708
2,GNGNG,7,[2],[1536],False,0,760
2,NEZEZ,16,2,1308,False,0,690
2,RNROR,7,,,False,0,747
2,QTQNQ,7,[2],[1364],False,0,826
2,HOHON,15,1,1171,Correct,0,769
2,KPKGK,16,2,944,Correct,0,674
2,DRDED,16,2,1003,Correct,0,900
2,LNLNL,7,[1][3],[893][1165],Correct,0,658
4,GLGLG,15,1,1110,Correct,0,843
4,DTDID,16,2,897,Correct,0,744
4,SMSGS,16,2,711,Correct,0,668
4,ZFZYZ,7,[2][3],[1204][1412],Correct,0,822
4,TSTFT,7,[2][3],[1063][1303],Correct,0,778
4,OFOFO,7,[1][3],[895][1119],Correct,0,846
4,WYFGW,16,2,874,Correct,0,699
4,WYWYW,15,1,1224,Correct,0,942
4,MFMCM,7,[2][3],[1142][1318],Correct,0,884
4,HQHEH,16,2,1145,Correct,0,750
1,TKTKT,15,1,990,Correct,0,937
1,SLSUS,16,2,705,Correct,0,748
1,VZVGV,7,[2][3],[1202][1378],Correct,0,915
1,XWXZX,7,[2][3],[992][1184],Correct,0,813
1,ATATA,15,1,824,Correct,0,931
1,HXZMH,16,2,720,Correct,0,703
1,TZTZT,7,[1][3],[622][1006],Correct,0,822
1,UOUOU,15,2,585,False,0,944
1,ZTWAW,16,2,796,Correct,0,713
1,RZRER,7,[2][3],[1084][1244],Correct,0,728
Trials
1,D,5,3,1623,New Target,1,738
1,ZNZYZ,161,2,1568,Correct,1,677
1,FZFZF,151,1,895,Correct,1,714
1,RKRKR,152,1,728,Correct,1,731
1,RXRNR,161,2,830,Correct,1,940
1,CNCFC,162,2,860,Correct,1,650
1,PDPDP,7,[1][3],[1083][1307],Correct,1,806
1,CPCFC,14,2,655,Correct,1,847
1,VLVNV,162,2,736,Correct,1,794
1,KFKFK,151,2,618,Incorrect,1,869
1,ZNZNZ,152,1,1445,Correct,1,926
1,KCKPD,235,2,867,Correct,1,833
1,ZKZFZ,222,2,761,Correct,1,863
1,NRNZN,162,2,787,Correct,1,808
1,KXKRK,163,2,659,Correct,1,658
1,YPYZY,164,2,628,Correct,1,720
1,FKDKF,223,1,1042,Correct,1,901
1,RPRPR,113,1,926,Correct,1,888
1,VRVKV,161,2,617,Correct,1,687
1,RFRPR,162,2,670,Correct,1,660
1,KVKVK,151,1,755,Correct,1,669
1,YKYVY,161,2,746,Correct,1,943
1,VDVDV,8,[1][3],[618][810],Correct,1,823
1,DVZVZ,221,2,515,Incorrect,1,924
1,YFYFY,113,1,700,Correct,1,674
1,ZYZYZ,152,1,648,Correct,1,861
1,VLVXV,161,2,632,Correct,1,748
1,DPXZX,231,2,641,Correct,1,943
1,RYRYR,113,1,576,Correct,1,822
1,PDPNP,91,[1][3],[802][994],Incorrect,1,650
1,KXKXK,13,1,890,Correct,1,654
1,ZYZYZ,152,1,657,Correct,1,757
1,VKVKV,153,1,647,Correct,1,674
1,YZYZY,154,1,997,Correct,1,831
1,NLNZN,161,2,966,Correct,1,803
1,ZNDYZ,233,2,806,Correct,1,845
1,PCPXP,222,2,627,Correct,1,731
1,ZVZFZ,162,2,597,Correct,1,729
1,RCRZR,163,2,532,Correct,1,853
1,LRLRL,151,1,658,Correct,1,935
1,ZDZDZ,10,[2],[919],Incorrect,1,780
1,RNRZR,14,2,694,Correct,1,698
1,CXCYC,162,2,775,Correct,1,730
1,RCRLR,163,2,606,Correct,1,865
1,FRFRF,151,1,751,Correct,1,820
1,XFXFX,152,1,670,Correct,1,742
1,RPRLR,161,2,797,Correct,1,776
1,YXYRY,162,2,713,Correct,1,778
1,FYFYF,151,1,643,Correct,1,830
1,YZYVY,161,2,613,Correct,1,674
1,YKYKY,151,1,536,Correct,1,743
1,XRXRX,152,1,702,Correct,1,693
1,XVXZX,161,2,668,Correct,1,756
1,PDPDP,11,[1][3],[803][1299],Correct,1,688
1,ZFZFZ,13,1,960,Correct,1,788
1,PXPXP,152,1,723,Correct,1,804
1,LYLYL,153,1,590,Correct,1,817
1,NKNKD,225,1,588,Correct,1,876
1,ZNZNZ,113,1,553,Correct,1,918
1,PYPZP,161,2,760,Correct,1,893
1,XPXPX,151,2,617,Incorrect,1,696
1,VLVLV,152,1,571,Correct,1,760
1,PKPXP,161,2,803,Correct,1,687
1,FZFZF,151,1,778,Correct,1,879
1,LDLDL,12,[1][3],[817][1041],Correct,1,930
2,U,5,3,1283,New Target,2,776
2,ZVZFZ,161,2,819,Correct,2,698
2,FZFZF,151,1,700,Correct,2,827
2,RFRFR,152,1,925,Correct,2,729
2,NZNKN,161,2,834,Correct,2,740
2,FZFNF,162,2,607,Correct,2,728
2,RXRXR,151,2,517,Incorrect,2,669
2,KRKYK,161,2,665,Correct,2,772
2,NZNPN,162,2,759,Correct,2,850
2,XPXPX,151,1,838,Correct,2,715
2,CUCUC,7,[1][3],[1154][1330],Correct,2,856
2,RFRFR,13,1,735,Correct,2,660
2,VYVXV,161,2,685,Correct,2,803
2,VDVDV,191,1,599,Correct,2,798
2,ZKZRZ,15,2,617,Correct,2,755
2,XCXCX,151,1,602,Correct,2,783
2,CNCUC,82,[2][1],[587][1227],Incorrect,2,784
2,RCRCR,13,1,732,Correct,2,833
2,ZPZXZ,161,2,781,Correct,2,700
2,FKFYF,162,2,780,Correct,2,678
2,ZFZYZ,163,2,656,Correct,2,947
2,PXPXP,151,1,653,Correct,2,906
2,URCKC,231,2,560,Correct,2,674
2,PCPCP,113,1,701,Correct,2,942
2,XNXNX,152,1,622,Correct,2,656
2,RCRZR,161,2,499,Correct,2,653
2,XVXVX,151,1,568,Correct,2,794
2,NRNRN,152,1,608,Correct,2,698
2,FPFPF,225,1,550,Correct,2,679
2,XVXFX,222,2,557,Correct,2,668
2,PRPRP,151,1,559,Correct,2,851
2,FYFCF,161,2,591,Correct,2,843
2,XUXFX,91,[2][3],[899][1074],Correct,2,802
2,CYCVC,14,2,847,Correct,2,666
2,VDVKV,172,2,568,Correct,2,734
2,YCYCY,15,1,774,Correct,2,906
2,NKNLN,161,2,542,Correct,2,819
2,XPUKX,233,2,556,Correct,2,887
2,ZPZPZ,113,1,562,Correct,2,719
2,KRKRK,152,1,693,Correct,2,814
2,XKXKX,153,2,767,Incorrect,2,920
2,YUYVY,101,[2][3],[1329][1505],Correct,2,765
2,XKXFU,235,2,678,Correct,2,728
2,NFNFN,113,1,563,Correct,2,825
2,KDKDK,193,1,628,Correct,2,861
2,XYXKX,16,2,481,Correct,2,914
2,YZUZY,223,2,614,Incorrect,2,866
2,KFKVK,222,2,594,Correct,2,869
2,LYLYL,151,1,650,Correct,2,653
2,CXCDC,184,2,636,Incorrect,2,656
2,XZXNX,16,2,703,Correct,2,729
2,PXPXP,151,1,666,Correct,2,906
2,ZRZYZ,161,2,580,Correct,2,884
2,PUPYP,111,[2][3],[851][1059],Correct,2,929
2,RNRNR,14,1,439,Correct,2,858
2,KDKDK,195,1,687,Correct,2,811
2,KNKNK,15,1,680,Correct,2,902
2,PRPKP,161,2,565,Correct,2,897
2,UNYNY,221,1,730,Correct,2,702
2,NYNYN,113,1,713,Correct,2,713
2,YXYXY,152,1,836,Incorrect,2,825
2,RDRDR,196,1,554,Correct,2,834
2,FCFCF,15,2,465,Incorrect,2,693
2,ZKZKZ,152,1,627,Correct,2,919
2,ZUZUZ,12,[1][3],[783][1023],Correct,2,858
3,E,5,3,1442,New Target,3,850
3,YZYZY,151,1,919,Correct,3,819
3,VFVNV,161,2,1070,Correct,3,697
3,KYKYK,151,1,779,Correct,3,843
3,NKNKN,152,1,635,Correct,3,651
3,XVXNX,161,2,703,Correct,3,712
3,RERFR,71,[2][3],[1116][1260],Correct,3,795
3,XNXNX,13,1,720,Correct,3,752
3,NXNXN,152,1,844,Correct,3,791
3,ZLZNZ,161,2,600,Correct,3,662
3,CUCNC,171,2,760,Correct,3,833
3,FYFRF,16,2,646,Correct,3,718
3,ZLZLZ,151,1,710,Correct,3,826
3,YZYZY,152,2,513,Incorrect,3,806
3,CYCYC,153,1,665,Correct,3,707
3,VUVUV,192,1,1012,Correct,3,917
3,PXPRP,16,2,763,Correct,3,697
3,YPYPY,151,1,769,Correct,3,906
3,CECEC,8,[1][3],[1257][1369],Correct,3,929
3,VNENV,223,1,1088,Correct,3,936
3,KRKFK,222,2,638,Correct,3,846
3,XLXLE,225,1,578,Correct,3,678
3,RFRUR,183,1,563,Incorrect,3,802
3,XRXLX,16,2,760,Correct,3,755
3,NZNPN,162,2,829,Correct,3,911
3,XZXZX,151,1,599,Correct,3,776
3,FZFZF,152,1,589,Correct,3,708
3,PFPFP,153,2,669,Incorrect,3,851
3,YZYXY,161,2,580,Correct,3,939
3,KEKEK,9,[1][3],[784][1008],Correct,3,924
3,CXCPC,14,2,625,Correct,3,667
3,VXVXV,151,1,603,Correct,3,934
3,NUNZN,174,2,636,Correct,3,773
3,RKRVR,16,2,757,Correct,3,927
3,XRXRX,151,1,591,Correct,3,805
3,ERNFN,231,2,638,Incorrect,3,909
3,YRYNY,222,2,585,Correct,3,880
3,PZPEP,102,[1][3],[625][1105],Incorrect,3,948
3,ZYZXZ,14,2,1246,Correct,3,707
3,RZRVR,162,2,533,Correct,3,809
3,XRXRX,151,1,728,Correct,3,763
3,KUKFK,175,2,610,Correct,3,845
3,RKRKR,15,1,530,Correct,3,791
3,ZFZFZ,152,1,486,Correct,3,837
3,YZYVY,161,2,465,Correct,3,673
3,XPXNX,162,2,612,Correct,3,918
3,YRYRY,151,1,550,Correct,3,753
3,EPVPV,221,2,504,Incorrect,3,805
3,CRCEC,112,[1][3],[952][1144],Incorrect,3,903
3,RFRCR,14,2,609,Correct,3,734
3,CPCVC,162,2,667,Correct,3,938
3,RXRCR,163,2,501,Correct,3,945
3,VNVLV,164,2,829,Correct,3,749
3,ZXZXZ,151,1,565,Correct,3,793
3,ZCZCZ,152,1,562,Correct,3,906
3,PYPUP,186,2,735,Correct,3,922
3,YKYPY,16,2,572,Correct,3,780
3,YREXY,233,2,1178,Correct,3,905
3,ZKZKZ,113,1,656,Correct,3,907
3,XLXNX,161,2,526,Correct,3,837
3,KFKRE,235,1,611,Incorrect,3,806
3,RXRLR,222,2,659,Correct,3,796
3,RERXR,121,[2][3],[1050][1210],Correct,3,767
4,J,5,3,1061,New Target,4,741
4,CYCVC,161,2,739,Correct,4,784
4,RXRCR,162,2,511,Correct,4,782
4,FPFVF,163,2,529,Correct,4,889
4,LZLZL,151,2,527,Incorrect,4,931
4,PLPLP,152,1,725,Correct,4,727
4,NPNPN,153,1,807,Correct,4,674
4,XZXZX,161,1,556,Incorrect,4,949
4,CNCKC,162,2,795,Correct,4,832
4,PCPYJ,235,2,842,Correct,4,729
4,VYVYV,113,1,659,Correct,4,741
4,RLRLR,152,1,736,Correct,4,890
4,CJCJC,7,[1][3],[1155][1331],Correct,4,879
4,ZLZLZ,13,1,618,Correct,4,701
4,FZFZF,152,1,602,Correct,4,834
4,CFCFC,153,1,446,Correct,4,768
4,PZPZP,154,1,458,Correct,4,705
4,XEXEX,191,1,528,Correct,4,857
4,NVNFN,16,2,688,Correct,4,881
4,KYKYK,151,1,825,Correct,4,913
4,ZNZVZ,161,2,657,Correct,4,801
4,YVJXY,233,2,663,Correct,4,654
4,XFXFX,113,1,538,Correct,4,739
4,XNXNX,152,2,447,Incorrect,4,728
4,FJFKF,81,[2][3],[549][965],Correct,4,795
4,CZCYC,14,2,751,Correct,4,902
4,ZXZCZ,162,2,699,Correct,4,763
4,RYRYJ,225,2,555,Incorrect,4,750
4,FPFZF,222,2,810,Correct,4,940
4,XRXRX,151,1,690,Correct,4,871
4,YPYEY,182,2,719,Correct,4,823
4,XRXRX,15,1,622,Correct,4,700
4,XZXPX,161,2,670,Correct,4,777
4,CJCJC,9,[1][3],[517][917],Correct,4,686
4,ZXZVZ,14,2,590,Correct,4,810
4,VKVKV,151,1,574,Correct,4,826
4,VEVNV,173,2,605,Correct,4,850
4,ZKZVZ,16,2,653,Correct,4,765
4,XVXJX,102,[2][3],[798][1038],Correct,4,881
4,RXRVR,14,2,869,Correct,4,715
4,LRLRL,151,1,714,Correct,4,795
4,YNJNY,223,1,1075,Correct,4,898
4,NPNJN,222,2,934,Correct,4,669
4,ZEZEZ,194,1,628,Correct,4,942
4,ZNZNZ,15,1,666,Correct,4,680
4,YZYZY,152,1,563,Correct,4,883
4,XYXYX,153,1,502,Correct,4,788
4,ZXZXZ,221,1,621,Correct,4,718
4,LYLZL,222,2,813,Correct,4,801
4,CYCNC,162,2,788,Correct,4,876
4,XEXEX,195,1,560,Correct,4,745
4,CVCXC,16,2,591,Correct,4,900
4,ZPZXZ,162,2,610,Correct,4,779
4,FZFZF,151,1,576,Correct,4,914
4,RXRJR,112,[2][3],[523][907],Correct,4,863
4,PRPFP,14,2,739,Correct,4,695
4,PKPEP,186,2,603,Correct,4,886
4,XZXPX,16,2,599,Correct,4,913
4,JCZVZ,231,2,662,Correct,4,851
4,RXRLR,222,2,534,Correct,4,756
4,VZVZV,151,1,600,Correct,4,810
4,XJXJX,12,[1][3],[786][978],Correct,4,830
5,I,5,3,1232,New Target,5,815
5,PCPCP,151,2,1065,Incorrect,5,878
5,XYXYX,152,1,646,Correct,5,822
5,VXVXV,153,1,841,Correct,5,703
5,XVXVX,154,1,876,Correct,5,889
5,ZRZXZ,161,2,706,Correct,5,801
5,FPFZF,162,2,514,Correct,5,699
5,ZYZYZ,151,2,497,Incorrect,5,942
5,RVRZR,161,2,683,Correct,5,711
5,CICIC,7,[1][3],[880][1120],Correct,5,891
5,XLXLX,13,1,809,Correct,5,877
5,YVYVY,152,1,544,Correct,5,858
5,CJCJC,191,1,774,Correct,5,738
5,FNFCF,16,2,627,Correct,5,757
5,PVPRP,162,2,741,Correct,5,718
5,FZFZF,151,1,605,Correct,5,923
5,NVIVN,223,1,788,Correct,5,670
5,CVCIC,82,[2][3],[1021][1293],Correct,5,699
5,ZXZXZ,13,1,1339,Correct,5,943
5,FCFZF,161,2,736,Correct,5,804
5,IXRXR,221,1,591,Correct,5,741
5,ZPZNZ,222,2,638,Correct,5,858
5,VZVZV,151,1,642,Correct,5,737
5,YRYNY,161,2,700,Correct,5,892
5,VNVPV,162,2,680,Correct,5,853
5,RVRJR,182,2,822,Correct,5,848
5,VRVRV,15,1,592,Correct,5,720
5,VIVIV,9,[1][3],[912][1104],Correct,5,796
5,CXCVC,14,2,669,Correct,5,711
5,PZPZP,151,1,598,Correct,5,946
5,IXVKV,231,2,1048,Correct,5,791
5,YJYCY,173,2,1086,Incorrect,5,681
5,VYVYV,15,1,603,Correct,5,846
5,YVYVY,152,2,830,Incorrect,5,709
5,NVNVN,153,1,716,Correct,5,671
5,XYXVX,161,2,714,Correct,5,756
5,NJNCN,174,2,703,Correct,5,941
5,NXNYN,16,2,846,Correct,5,721
5,VXVCV,162,2,602,Correct,5,660
5,ZKZKZ,151,1,736,Correct,5,722
5,XRXYX,161,2,616,Correct,5,876
5,ZCZXZ,162,2,666,Correct,5,775
5,KVKYI,235,2,794,Correct,5,712
5,CNCNC,113,1,591,Correct,5,898
5,RIRIR,10,[1][3],[847][1071],Correct,5,840
5,VYVXV,14,2,823,Correct,5,787
5,FXIRF,233,2,514,Correct,5,710
5,PFPFP,113,1,594,Correct,5,886
5,VPVPV,152,1,528,Correct,5,919
5,ZJZJZ,195,1,549,Correct,5,803
5,ZVZNZ,16,2,441,Correct,5,747
5,YVYXY,162,2,563,Correct,5,780
5,PRPRP,151,1,505,Correct,5,698
5,YPYPY,152,1,557,Correct,5,791
5,ZIZPZ,111,[2][3],[617][1049],Correct,5,836
5,NKNXN,14,2,804,Correct,5,934
5,RZRXR,162,2,569,Correct,5,900
5,RXRXR,151,2,741,Incorrect,5,916
5,ZJZJZ,196,1,881,Correct,5,740
5,CVCVI,225,1,547,Incorrect,5,948
5,NKNKN,113,1,691,Correct,5,899
5,NRNZN,161,2,723,Correct,5,734
5,CNCNC,151,1,586,Correct,5,928
5,RFRIR,122,[2][3],[1039][1247],Correct,5,663
6,B,5,3,1441,New Target,6,692
6,YKYZY,161,2,920,Correct,6,906
6,VCVRV,162,2,663,Correct,6,896
6,XVXVX,151,1,792,Correct,6,788
6,KZKRK,161,2,776,Correct,6,688
6,ZVZXZ,162,2,541,Correct,6,930
6,RCRNR,163,2,633,Correct,6,933
6,CXCRC,164,2,485,Correct,6,881
6,VNBCV,233,2,943,Correct,6,650
6,CXCVC,222,2,576,Correct,6,898
6,RFRFR,151,1,594,Correct,6,834
6,XPXRX,161,1,790,Incorrect,6,731
6,RYRBR,72,[2][3],[1308][1484],Correct,6,672
6,ZKZKZ,13,1,692,Correct,6,662
6,FIFRF,171,2,841,Correct,6,653
6,VZVLV,16,2,640,Correct,6,787
6,RPRVR,162,2,621,Correct,6,839
6,YBYBY,8,[1][3],[867][1203],Correct,6,852
6,PYPVP,14,2,735,Correct,6,803
6,NININ,192,2,1020,Incorrect,6,743
6,RNRNR,15,,,Incorrect,6,855
6,NXNVN,161,2,677,Correct,6,811
6,RNRNR,151,1,624,Correct,6,945
6,FRFVF,161,2,623,Correct,6,859
6,YVYFB,235,2,676,Incorrect,6,678
6,ZRZXZ,222,2,673,Correct,6,834
6,VNVIV,193,2,1085,Incorrect,6,815
6,PXPNP,16,2,622,Correct,6,706
6,ZXZPZ,162,2,635,Correct,6,846
6,VBVBV,9,[1][3],[619][875],Correct,6,707
6,CXCXC,13,1,958,Correct,6,814
6,PCPFP,161,2,722,Correct,6,783
6,KNKNK,151,1,720,Correct,6,785
6,XIXIX,194,1,647,Correct,6,906
6,CYCYC,15,1,565,Correct,6,828
6,FVFYF,161,2,873,Correct,6,793
6,YNYRY,162,2,794,Correct,6,945
6,BVPXP,231,2,752,Correct,6,946
6,NXNXN,113,1,617,Correct,6,842
6,FRFRF,152,1,652,Correct,6,770
6,YVYVY,153,1,608,Correct,6,702
6,ZKZCZ,161,2,643,Correct,6,778
6,VIVXV,175,2,644,Correct,6,752
6,PRBRP,223,1,1256,Correct,6,729
6,YZYBY,102,[2][3],[1002][1210],Correct,6,896
6,CXCVC,14,2,754,Correct,6,736
6,FYFYF,151,1,768,Correct,6,757
6,VKVXV,161,2,829,Correct,6,729
6,ZBZBZ,11,[1][3],[669][877],Correct,6,692
6,FPFNF,14,2,717,Correct,6,780
6,CXCXC,151,1,792,Correct,6,881
6,YCYCY,152,1,639,Correct,6,879
6,FPFPF,153,1,626,Correct,6,713
6,CVCVB,225,2,830,Incorrect,6,920
6,ZCZCZ,113,1,993,Correct,6,891
6,CZCNC,161,2,676,Correct,6,761
6,KIKFK,176,2,692,Correct,6,767
6,PXPXP,15,1,611,Correct,6,779
6,RYRYR,152,1,888,Correct,6,697
6,ZRZCZ,161,2,752,Correct,6,759
6,RVRVR,151,1,597,Correct,6,938
6,XYXNX,161,2,695,Correct,6,736
6,BVKVK,221,1,643,Correct,6,844
6,CBCBC,12,[1][3],[798][958],Correct,6,714
7,W,5,3,2110,New Target,7,807
7,RKRKR,151,1,816,Correct,7,813
7,CVCRC,161,2,678,Correct,7,879
7,PKPKP,151,1,581,Correct,7,797
7,FPFPF,152,1,836,Correct,7,914
7,VRVPV,161,2,791,Correct,7,922
7,ZKZYZ,162,2,786,Correct,7,821
7,PVPCP,233,2,553,Correct,7,817
7,KVKVK,113,1,623,Correct,7,753
7,YXYVY,161,2,581,Correct,7,659
7,FNFNF,151,1,577,Correct,7,879
7,YWYWY,7,[1],[654],Incorrect,7,947
7,ZYZYZ,13,1,1245,Correct,7,933
7,PYPYP,152,1,611,Correct,7,947
7,XRXRX,153,1,594,Correct,7,858
7,PXPXP,154,1,515,Correct,7,848
7,FCFBF,181,2,1017,Correct,7,693
7,FVFVF,15,1,631,Correct,7,911
7,CYCZC,161,2,644,Correct,7,910
7,XZXVX,162,2,675,Correct,7,820
7,PFPFP,151,1,507,Correct,7,944
7,RVRLR,161,2,640,Correct,7,748
7,ZBZBZ,192,1,1068,Correct,7,926
7,VCVNV,16,2,735,Correct,7,744
7,NWNWN,8,[1][3],[819][995],Correct,7,745
7,XNXVX,14,2,577,Correct,7,943
7,CXCNC,162,2,613,Correct,7,756
7,YVYVW,225,2,808,Incorrect,7,740
7,VFVFV,113,1,774,Correct,7,694
7,VFWFV,223,1,621,Correct,7,946
7,CVCFC,222,2,801,Correct,7,713
7,YBYBY,193,1,659,Correct,7,931
7,PYPYP,15,1,647,Correct,7,655
7,NKNWN,91,[2],[1510],Incorrect,7,713
7,VNVNV,13,1,656,Correct,7,819
7,RVRVR,152,1,1006,Correct,7,823
7,FVFBF,184,2,723,Incorrect,7,718
7,VZVKV,16,2,1035,Correct,7,938
7,VPVCV,162,2,790,Correct,7,893
7,WYZCZ,231,2,766,Correct,7,875
7,PFPFP,113,1,665,Correct,7,785
7,PRPRP,152,1,1018,Correct,7,732
7,NWNWN,10,[1][3],[1319][1463],Correct,7,761
7,VKVCV,14,2,731,Correct,7,676
7,WPYPY,221,1,665,Correct,7,786
7,VBVBV,195,1,949,Correct,7,825
7,ZKZYZ,16,1,798,Incorrect,7,708
7,XYXYX,151,1,602,Correct,7,682
7,FZFXF,161,2,770,Correct,7,658
7,XKXKX,151,1,643,Correct,7,651
7,XPXPX,152,1,813,Correct,7,893
7,FWFWF,11,[1][3],[742][886],Correct,7,871
7,FNFBF,186,2,671,Correct,7,888
7,ZVZYZ,16,2,977,Correct,7,672
7,FZFZF,151,1,693,Correct,7,770
7,NPNFW,235,2,1087,Correct,7,874
7,PCPCP,113,1,872,Correct,7,904
7,NKNWN,122,[2][3],[769][961],Correct,7,816
8,M,5,3,1931,New Target,8,726
8,VYVNV,161,2,882,Correct,8,687
8,KLKNK,162,2,790,Correct,8,828
8,NRNRN,151,1,703,Correct,8,880
8,VNVFV,161,2,936,Correct,8,887
8,XNXNM,225,1,967,Correct,8,920
8,CXCVC,222,2,556,Correct,8,788
8,KRKZK,162,2,608,Correct,8,725
8,NMNFN,71,[1][3],[591][1183],Incorrect,8,799
8,ZFZFZ,13,1,752,Correct,8,914
8,YPYCY,161,2,632,Correct,8,872
8,KCKCK,151,1,788,Correct,8,921
8,VNVNV,152,1,738,Correct,8,690
8,LXLXL,153,1,569,Correct,8,892
8,CLCLC,154,1,457,Correct,8,913
8,NYNYN,155,1,572,Correct,8,850
8,LCMYL,233,2,779,Correct,8,927
8,NCNCN,113,1,705,Correct,8,897
8,ZVZRZ,161,2,628,Correct,8,663
8,ZVZVZ,151,1,649,Correct,8,663
8,PZPVP,161,2,876,Correct,8,679
8,PWPNP,171,2,790,Correct,8,729
8,KLKCM,235,2,624,Correct,8,755
8,XMXMX,8,[1][3],[821][981],Correct,8,899
8,PRPXP,14,2,674,Correct,8,937
8,CVCYC,162,2,801,Correct,8,842
8,PXPMP,92,[2][3],[856][984],Correct,8,935
8,ZCZLZ,14,2,578,Correct,8,732
8,XWXWX,192,1,918,Correct,8,797
8,ZCZLZ,16,2,653,Correct,8,722
8,MNCYC,231,2,667,Correct,8,839
8,ZXZXZ,113,1,555,Correct,8,737
8,YRYNY,161,2,568,Correct,8,941
8,ZLZPZ,162,2,566,Correct,8,855
8,VZVZV,151,1,738,Correct,8,934
8,MXPXP,221,1,857,Correct,8,899
8,VWVWV,193,1,686,Correct,8,896
8,PYPYP,16,1,714,Incorrect,8,731
8,XPXVX,162,2,853,Correct,8,835
8,XLXLX,151,1,655,Correct,8,750
8,YMYMY,10,[1][3],[793][985],Correct,8,881
8,VYVYV,13,1,692,Correct,8,946
8,PWPZP,174,2,671,Correct,8,825
8,PYPKP,16,2,911,Correct,8,779
8,NPNXN,162,2,769,Correct,8,850
8,KVKVK,223,1,647,Correct,8,945
8,NVNFN,222,2,662,Correct,8,841
8,XNXNX,151,1,626,Correct,8,900
8,YZYMY,112,[2][3],[988][1180],Correct,8,886
8,PFPFP,13,1,621,Correct,8,938
8,ZWZWZ,195,2,722,Incorrect,8,689
8,PCPZP,16,2,612,Correct,8,685
8,LRLPL,162,1,696,Incorrect,8,712
8,CZCZC,151,1,676,Correct,8,859
8,NZNZN,152,1,998,Correct,8,685
8,CVCXC,161,2,807,Correct,8,831
8,XCXCX,151,1,1179,Correct,8,902
8,YWYWY,196,1,1288,Correct,8,736
8,NLNLN,15,1,1256,Correct,8,942
8,VNVNV,152,1,668,Correct,8,883
8,ZMZMZ,12,[1][3],[581][1221],Correct,8,776
9,S,5,3,1319,New Target,9,708
9,NZNZN,151,1,822,Correct,9,906
9,KVKZK,161,2,596,Correct,9,697
9,LZLZL,151,1,630,Correct,9,756
9,XLXLX,152,1,646,Correct,9,826
9,ZXZXZ,153,1,635,Correct,9,671
9,KNKZK,161,2,954,Correct,9,863
9,NRNYN,162,2,844,Correct,9,866
9,CLCVC,163,2,643,Correct,9,873
9,ZCZFZ,164,2,645,Correct,9,778
9,NSNSN,7,[1][3],[691][851],Correct,9,816
9,VZVZV,13,2,593,Incorrect,9,919
9,NVNCN,161,2,791,Correct,9,668
9,VMVMV,191,1,1069,Correct,9,898
9,CVCXC,16,2,944,Correct,9,699
9,ZYZRZ,162,2,697,Correct,9,715
9,XNXZX,163,2,828,Correct,9,699
9,PXPXP,151,2,791,Incorrect,9,692
9,VCVSV,82,[2][3],[1152][1328],Correct,9,779
9,PRPCP,14,2,678,Correct,9,698
9,ZMZMZ,192,1,548,Incorrect,9,860
9,ZFZFZ,15,1,702,Correct,9,656
9,FCFCF,152,1,587,Correct,9,742
9,YLYZY,161,2,617,Correct,9,888
9,KNKVK,162,2,655,Correct,9,746
9,SFPCP,231,2,779,Correct,9,792
9,RPRPR,113,1,626,Correct,9,933
9,XMXMX,193,1,576,Correct,9,823
9,KFKFK,15,1,578,Correct,9,754
9,VSVSV,9,[1][3],[747][875],Correct,9,780
9,YVSVY,223,1,746,Correct,9,693
9,VPVPV,113,1,535,Correct,9,886
9,XZXZX,152,1,584,Correct,9,825
9,KZKXK,161,2,887,Correct,9,881
9,RFRPR,162,2,752,Correct,9,701
9,NVNVS,225,1,1016,Correct,9,915
9,ZXZXZ,113,1,603,Correct,9,718
9,SRVRV,221,1,945,Correct,9,697
9,YCYCY,113,1,568,Correct,9,745
9,KMKZK,174,2,810,Correct,9,794
9,FZSVF,233,2,723,Correct,9,796
9,VYVYV,113,1,624,Correct,9,797
9,LVLVL,152,1,718,Correct,9,840
9,YFYFY,153,1,617,Correct,9,847
9,NXNSN,102,[2][3],[894][1070],Correct,9,690
9,FNFCF,14,2,827,Correct,9,776
9,KVKVK,151,1,608,Correct,9,834
9,VZVCV,161,2,627,Correct,9,722
9,ZYZMZ,185,2,792,Correct,9,687
9,VXVZV,16,2,626,Correct,9,791
9,VPVPV,151,1,592,Correct,9,827
9,RVRNS,235,2,629,Correct,9,757
9,YZYZY,113,1,568,Correct,9,707
9,ZSZSZ,11,[1][3],[829][989],Correct,9,742
9,FRFRF,13,1,594,Correct,9,934
9,ZMZMZ,196,1,550,Correct,9,790
9,NZNXN,16,2,1370,Correct,9,769
9,LSLFL,121,[2][3],[793][937],Correct,9,856
10,Q,5,3,1593,New Target,10,914
10,ZVZPZ,161,2,804,Correct,10,910
10,RZRZR,151,1,861,Correct,10,832
10,ZFZFZ,152,1,646,Correct,10,795
10,RZRZR,153,1,533,Correct,10,824
10,PZPXP,161,2,903,Correct,10,871
10,VFQPV,233,2,729,Correct,10,853
10,ZPZRZ,222,2,801,Correct,10,902
10,CYCVC,162,2,711,Correct,10,890
10,CPCPC,151,1,639,Correct,10,949
10,YZYQY,72,[2][3],[1094][1222],Correct,10,925
10,FVFXF,14,2,719,Correct,10,711
10,YNYNQ,225,1,681,Correct,10,849
10,ZYZYZ,113,1,652,Correct,10,694
10,FRFSF,181,2,769,Incorrect,10,655
10,XNXPX,16,2,641,Correct,10,651
10,NXNXN,151,1,610,Correct,10,721
10,PVPZP,161,2,707,Correct,10,821
10,XVXPX,162,2,591,Correct,10,814
10,FXFVF,163,2,626,Correct,10,843
10,NSNKN,172,2,550,Incorrect,10,683
10,VXVNV,16,2,475,Correct,10,759
10,XZXZX,151,1,626,Correct,10,707
10,VQVQV,8,[1][3],[1049][1193],Correct,10,921
10,ZYZPZ,14,2,638,Correct,10,872
10,PZPSP,183,2,685,Correct,10,833
10,YVYVY,15,1,718,Correct,10,669
10,NCNQN,92,[2][3],[968][1144],Correct,10,889
10,FCFVF,14,2,762,Correct,10,846
10,ZFZFZ,151,1,945,Correct,10,913
10,NSNSN,194,1,869,Correct,10,844
10,YPYFY,16,2,614,Correct,10,913
10,ZKZKZ,151,1,587,Correct,10,656
10,QZRCR,231,2,592,Correct,10,728
10,YPYVY,222,2,613,Correct,10,706
10,ZNZNZ,151,1,582,Correct,10,757
10,VQVQV,10,[1][3],[963][1123],Correct,10,692
10,RVRZR,14,2,612,Correct,10,684
10,KRKSK,185,2,660,Correct,10,840
10,NPNPN,15,1,590,Correct,10,905
10,YPYPY,152,1,620,Correct,10,884
10,VCVYV,161,2,569,Correct,10,903
10,FPFNF,162,2,712,Correct,10,865
10,QVXVX,221,1,662,Correct,10,788
10,ZVZRZ,222,2,608,Correct,10,935
10,LFLFL,151,1,604,Correct,10,920
10,VLVLV,152,1,961,Correct,10,690
10,KXQXK,223,1,758,Correct,10,799
10,YQYQY,11,[2][1],[539][1051],Incorrect,10,732
10,YCYCY,13,1,640,Correct,10,666
10,PZPYP,161,2,706,Correct,10,773
10,LPLFL,162,2,814,Correct,10,828
10,VSVSV,196,1,596,Correct,10,872
10,VFVYQ,235,2,515,Correct,10,883
10,CZCXC,222,2,563,Correct,10,888
10,PVPCP,162,2,633,Correct,10,765
10,CXCXC,151,1,597,Correct,10,902
10,NZNZN,152,2,603,Incorrect,10,650
10,YPYCY,161,2,640,Correct,10,704
10,ZQZQZ,12,[1][3],[972][1228],Correct,10,746
11,T,5,3,1571,New Target,11,824
11,KFKFK,151,1,1124,Correct,11,904
11,LZLZL,152,1,704,Correct,11,870
11,PFPVP,161,2,652,Correct,11,797
11,FRFPF,162,2,807,Correct,11,947
11,FZFZF,151,1,526,Correct,11,864
11,VTVTV,7,[1][3],[1414][1478],Correct,11,916
11,KYKCK,14,2,705,Correct,11,949
11,VPVPV,151,1,588,Correct,11,889
11,XQXQX,191,1,1220,Correct,11,676
11,PZPYP,16,2,752,Correct,11,744
11,KXKLK,162,2,944,Correct,11,696
11,TCNCN,221,2,624,Incorrect,11,909
11,PZPNP,222,2,996,Correct,11,681
11,RCRPR,162,2,696,Correct,11,775
11,PZPRT,235,2,636,Correct,11,659
11,XFXVX,222,2,561,Correct,11,651
11,LTLVL,81,[3],[1297],Incorrect,11,834
11,ZCZPZ,14,2,852,Correct,11,879
11,NCNQN,182,2,778,Correct,11,865
11,XZXNX,16,2,695,Correct,11,691
11,ZPZPZ,151,1,674,Correct,11,873
11,CFCFC,152,1,644,Correct,11,758
11,VXTRV,233,2,1197,Correct,11,926
11,CFCVC,222,2,676,Correct,11,912
11,PYPYP,151,1,679,Correct,11,663
11,FQFYF,173,2,864,Correct,11,947
11,CNCFC,16,2,742,Correct,11,848
11,PTPTP,9,[1][3],[863][974],Correct,11,896
11,ZCZCZ,13,1,987,Correct,11,805
11,KZKZK,152,1,593,Correct,11,672
11,RLRVR,161,2,768,Correct,11,910
11,ZRZKZ,162,2,760,Correct,11,815
11,KLKLT,225,2,807,Incorrect,11,663
11,ZQZQZ,194,2,542,Incorrect,11,828
11,VZVZV,15,1,514,Correct,11,813
11,RVRZR,161,2,1011,Correct,11,865
11,ZPZCZ,162,2,777,Correct,11,714
11,VYVYV,151,1,600,Correct,11,726
11,RVRVR,152,1,597,Correct,11,879
11,PTPTP,10,[1][3],[817][945],Correct,11,768
11,PXPXP,13,1,727,Correct,11,700
11,KCKCK,152,1,624,Correct,11,882
11,YVYVY,153,1,541,Correct,11,883
11,CYCYC,154,1,512,Correct,11,803
11,XCXCX,155,1,488,Correct,11,686
11,CYCQC,185,2,704,Correct,11,760
11,KCKNK,16,2,972,Correct,11,848
11,VPVPV,151,1,594,Correct,11,761
11,TXFZF,231,2,723,Correct,11,843
11,NYNVN,222,2,702,Correct,11,830
11,VQVXV,176,2,506,Correct,11,826
11,ZRZRZ,15,1,621,Correct,11,946
11,VTVZV,111,[2][3],[1002][1178],Correct,11,726
11,PXPVP,14,2,657,Correct,11,826
11,FVFVF,151,1,655,Correct,11,783
11,VRVLV,161,2,701,Correct,11,809
11,YCYCY,151,1,585,Correct,11,831
11,XZTZX,223,1,744,Correct,11,847
11,VTVTV,12,[1][3],[621][893],Correct,11,730
12,O,5,3,1443,New Target,12,722
12,VXVLV,161,2,725,Correct,12,839
12,KVKCK,162,2,574,Correct,12,870
12,VLVLV,151,1,527,Correct,12,777
12,ZCZVZ,161,2,825,Correct,12,661
12,KFKFK,151,1,565,Correct,12,675
12,XKXKX,152,1,520,Correct,12,768
12,YXYXY,153,1,542,Correct,12,752
12,FVFVF,154,1,465,Correct,12,832
12,PVPOP,72,[2][3],[690][1410],Correct,12,929
12,ZXZYZ,14,2,788,Correct,12,726
12,PXPVP,162,2,635,Correct,12,849
12,ZTZTZ,191,1,696,Correct,12,911
12,CVCKC,16,2,809,Correct,12,727
12,CKCKC,151,1,612,Correct,12,702
12,NPNPN,152,2,595,Incorrect,12,872
12,ZRZNZ,161,2,798,Correct,12,931
12,OZCZC,221,1,653,Correct,12,738
12,LFLFL,113,1,564,Correct,12,945
12,CXCXC,152,1,618,Correct,12,749
12,KPKPK,153,1,555,Correct,12,761
12,FRFKF,161,2,618,Correct,12,889
12,FOFOF,8,[1],[958],Incorrect,12,919
12,ZFZFZ,13,1,693,Correct,12,941
12,LKLZO,235,2,823,Correct,12,697
12,KLKZK,222,2,762,Correct,12,924
12,YXYCY,162,2,690,Correct,12,866
12,LOLOL,9,[1][3],[967][1543],Correct,12,667
12,XLXLX,13,1,658,Correct,12,680
12,XVXVX,152,1,724,Correct,12,665
12,FTFTF,192,1,561,Correct,12,760
12,OXNZN,231,2,690,Correct,12,830
12,CZCZC,113,1,750,Correct,12,848
12,LZLZL,152,1,457,Correct,12,806
12,VLVPV,161,2,781,Correct,12,924
12,VYVYO,225,1,553,Correct,12,716
12,XKXKX,113,1,981,Correct,12,936
12,RTRTR,193,1,644,Correct,12,921
12,KVKCK,16,2,624,Correct,12,938
12,ROROR,101,[1][3],[858][1226],Correct,12,934
12,PRPRP,13,1,729,Correct,12,944
12,LYLVL,161,2,916,Correct,12,812
12,PLPLP,151,1,569,Correct,12,784
12,CTCTC,194,2,421,Incorrect,12,928
12,XZXYX,16,2,729,Correct,12,912
12,NKNKN,151,1,597,Correct,12,772
12,VLVZV,161,2,614,Correct,12,781
12,YOYOY,11,[1][3],[642][866],Correct,12,903
12,PZOZP,223,1,1076,Correct,12,724
12,FYFYF,113,1,673,Correct,12,869
12,ZXZVZ,161,2,765,Correct,12,817
12,VKVZV,162,2,983,Correct,12,896
12,ZTZTZ,195,1,612,Correct,12,903
12,LKLZL,16,2,1013,Correct,12,750
12,KCKVK,162,2,709,Correct,12,847
12,PXPKP,163,2,1009,Correct,12,839
12,KCOZK,233,2,790,Correct,12,767
12,FKFKF,113,1,575,Correct,12,839
12,CTCRC,176,2,574,Correct,12,858
12,NXNXN,15,1,605,Correct,12,903
12,KXKVK,161,2,682,Correct,12,850
12,CPCOC,122,[2][3],[939][1291],Correct,12,776
13,H,5,3,1477,New Target,13,767
13,VFVNV,151,2,829,Incorrect,13,783
13,YVYVY,152,1,642,Correct,13,835
13,XVXVX,153,1,563,Correct,13,731
13,NRNXN,161,2,648,Correct,13,686
13,PZPKP,162,2,694,Correct,13,854
13,HLVLV,221,2,747,Incorrect,13,661
13,CXCZC,222,2,601,Correct,13,727
13,LHLYL,71,[2][3],[1173][1349],Correct,13,731
13,YKYFY,14,,,Incorrect,13,785
13,YOYRY,171,2,1156,Correct,13,923
13,ZKZYZ,16,2,1117,Correct,13,846
13,RZRZR,151,1,639,Correct,13,659
13,NFNYN,161,2,800,Correct,13,787
13,KVKFK,162,2,607,Correct,13,657
13,XFXYX,163,2,723,Correct,13,778
13,LKLVL,164,2,550,Correct,13,661
13,NLNLN,151,1,681,Correct,13,756
13,XCXOX,182,2,617,Correct,13,718
13,FXFXF,15,1,567,Correct,13,886
13,VHVHV,8,[1][3],[1133][1277],Correct,13,807
13,PVPVP,13,1,667,Correct,13,732
13,CRCXC,161,2,716,Correct,13,748
13,NXNXN,151,1,663,Correct,13,898
13,XRXRX,152,1,611,Correct,13,883
13,YFYXY,161,2,759,Correct,13,772
13,ZOZOZ,193,2,951,Incorrect,13,666
13,RZRZR,15,1,636,Correct,13,790
13,FKFKF,152,1,526,Correct,13,729
13,PFPFP,153,1,545,Correct,13,853
13,XYXHX,92,[2][3],[883][1043],Correct,13,877
13,RZRKR,14,2,794,Correct,13,897
13,FLFLH,225,1,594,Correct,13,838
13,KRKRK,113,1,644,Correct,13,756
13,ZVZNZ,161,2,815,Correct,13,865
13,ZOZOZ,194,1,724,Correct,13,891
13,FZFZF,15,1,639,Correct,13,898
13,FHFKF,101,[2][3],[740][916],Correct,13,756
13,ZXHLZ,233,2,919,Correct,13,925
13,FKFXF,222,2,622,Correct,13,784
13,CFCYC,162,2,592,Correct,13,786
13,ZXZVZ,163,2,564,Correct,13,746
13,KCKOK,185,2,534,Correct,13,837
13,ZXZVH,235,2,716,Correct,13,715
13,CKCKC,113,2,716,Incorrect,13,704
13,ZXZCZ,161,2,641,Correct,13,934
13,YVYVY,151,1,577,Correct,13,854
13,RVHVR,223,1,629,Correct,13,771
13,ZRZRZ,113,1,662,Correct,13,769
13,ZHZHZ,11,[1][3],[879][1087],Correct,13,939
13,VZVZV,13,1,539,Correct,13,812
13,HZVRV,231,2,735,Correct,13,770
13,FVFVF,113,1,565,Correct,13,944
13,RNRCR,161,2,535,Correct,13,814
13,COCOC,196,1,935,Correct,13,928
13,VNVXV,16,2,576,Correct,13,669
13,XHXHX,12,[1][3],[642][866],Correct,13,868
14,G,5,3,1299,New Target,14,739
14,FZFZF,151,1,774,Correct,14,777
14,RPRVR,161,2,577,Correct,14,791
14,XCXCX,151,1,596,Correct,14,751
14,YXYXY,152,1,565,Correct,14,827
14,KZKZK,153,1,550,Correct,14,793
14,RYRKR,161,2,675,Correct,14,925
14,FYFNF,162,2,563,Correct,14,695
14,VKVKV,151,1,696,Correct,14,786
14,KPGPK,223,1,736,Correct,14,918
14,YNYNY,113,1,552,Correct,14,867
14,VYVYV,152,1,525,Correct,14,735
14,YCYXY,161,2,611,Correct,14,804
14,LKLGL,72,[2][3],[912][1136],Correct,14,663
14,VXVXV,13,1,828,Correct,14,870
14,KCKVK,161,2,648,Correct,14,726
14,YKYKY,151,1,613,Correct,14,783
14,RHRXR,171,2,660,Correct,14,878
14,FVFCF,16,1,590,Incorrect,14,902
14,YXYGY,82,[2][3],[917][1221],Correct,14,677
14,CLCLC,13,1,635,Correct,14,650
14,ZXZCZ,161,2,620,Correct,14,798
14,VLVFV,162,2,685,Correct,14,770
14,CPCPG,225,1,766,Correct,14,723
14,KHKNK,172,2,828,Correct,14,764
14,ZKZVZ,16,2,582,Correct,14,701
14,YKYLY,162,2,507,Correct,14,734
14,CNCNC,151,1,564,Correct,14,705
14,PGPGP,9,[1][3],[833][1009],Correct,14,793
14,VPVPV,13,1,578,Correct,14,837
14,FXGRF,233,2,544,Correct,14,935
14,CYCVC,222,2,710,Correct,14,692
14,FNFNF,151,2,624,Incorrect,14,919
14,KFKCK,161,2,620,Correct,14,923
14,ZFZHZ,183,2,889,Correct,14,834
14,NXNXN,15,1,644,Correct,14,737
14,FNFNF,152,1,557,Correct,14,937
14,LXLNG,235,2,604,Correct,14,923
14,XKXVX,222,1,643,Incorrect,14,660
14,ZHZHZ,194,1,1221,Correct,14,714
14,PFPFP,15,1,590,Correct,14,760
14,ZYZYZ,152,1,589,Correct,14,902
14,XPXVX,161,2,675,Correct,14,697
14,YCYCY,151,2,597,Incorrect,14,738
14,RGRGR,10,[1][3],[972][1084],Correct,14,882
14,VRVRV,13,1,649,Correct,14,938
14,PKPNP,161,2,758,Correct,14,896
14,XGXGX,11,[1][3],[669][1117],Correct,14,692
14,GZYVY,231,2,602,Correct,14,842
14,VCVNV,222,2,701,Correct,14,728
14,VHVHV,195,2,972,Incorrect,14,740
14,LXLNL,16,2,851,Correct,14,694
14,GKPKP,221,1,933,Correct,14,932
14,XRXPX,222,2,1076,Correct,14,903
14,XNXNX,151,1,656,Correct,14,901
14,KHKNK,176,2,668,Incorrect,14,850
14,RZRZR,15,1,836,Correct,14,918
14,CGCFC,121,[2][3],[747][1451],Correct,14,845
15,A,5,3,2305,New Target,15,666
15,XRXFX,161,2,901,Correct,15,666
15,RXRKR,162,2,736,Correct,15,656
15,YRYRY,151,1,625,Correct,15,705
15,XPXPX,152,1,592,Correct,15,807
15,RPRPR,153,1,479,Correct,15,873
15,NCNCN,154,1,609,Correct,15,875
15,RXRZR,161,2,706,Correct,15,759
15,NANAN,7,[1][3],[1113][1240],Correct,15,830
15,KCKYK,14,2,642,Correct,15,813
15,XKXFX,162,2,794,Correct,15,918
15,ZLZKZ,163,2,640,Correct,15,926
15,VCVZV,164,2,687,Correct,15,908
15,XCXVX,165,2,743,Correct,15,850
15,LKLZA,235,2,611,Correct,15,758
15,NCNCN,113,1,599,Correct,15,702
15,YGYGY,191,1,1032,Correct,15,875
15,VLVLV,15,1,601,Correct,15,757
15,XRXRX,152,1,652,Correct,15,737
15,KAKPK,81,[2][3],[1142][1270],Correct,15,720
15,YZAZY,233,2,813,Correct,15,895
15,CFCFC,113,1,634,Correct,15,676
15,VNVLV,161,2,629,Correct,15,924
15,KPKVK,162,2,1007,Correct,15,939
15,NCNRN,163,2,630,Correct,15,677
15,FGFGF,192,1,761,Correct,15,661
15,RCRYR,16,2,793,Correct,15,696
15,KRKCK,162,2,672,Correct,15,820
15,CRCRC,151,1,624,Correct,15,746
15,XPAPX,223,2,816,Incorrect,15,784
15,LPLXL,222,2,593,Correct,15,949
15,CGCVC,173,2,708,Correct,15,745
15,FKFZF,16,2,613,Correct,15,715
15,CACAC,9,[1][3],[586][858],Correct,15,651
15,XCXCX,13,1,697,Correct,15,902
15,AXRXR,221,2,572,Incorrect,15,651
15,NKNRN,222,2,765,Correct,15,781
15,KNKFK,162,2,693,Correct,15,843
15,KAKAK,10,[1][3],[626][818],Correct,15,899
15,ZCZRZ,14,2,609,Correct,15,830
15,RPRPR,151,1,595,Correct,15,763
15,NCNCN,152,1,719,Correct,15,948
15,RYRGR,184,2,672,Correct,15,653
15,VPVPV,15,1,751,Correct,15,765
15,RCRCA,225,1,586,Correct,15,852
15,KXKPK,222,2,607,Correct,15,664
15,NPNPN,151,1,578,Correct,15,688
15,YCYCY,152,1,566,Correct,15,767
15,PXPAP,112,[2][3],[827][1003],Correct,15,701
15,ZCZNZ,14,2,711,Correct,15,818
15,KYKGK,185,2,578,Correct,15,905
15,ANLPL,231,2,769,Correct,15,829
15,CXCPC,222,2,590,Correct,15,701
15,YRYRY,151,1,771,Correct,15,694
15,LGLGL,196,1,554,Correct,15,946
15,VYVLV,16,2,714,Correct,15,914
15,KVKVK,151,1,761,Correct,15,713
15,RKRKR,152,1,640,Correct,15,876
15,VXVXV,153,1,527,Correct,15,875
15,XAXAX,12,[1][3],[671][831],Correct,15,856
