Trial No,Stimulus,Trigger,Response,Response Time(ms),Correct,Block,Fixation Duration
Practice
OT Practice
1,SKSKS,15,,,False,0,923
1,DLDUD,16,,,False,0,869
1,PDPGP,16,2,1283,Correct,0,926
1,MWMWM,15,,,False,0,920
1,FTFTF,15,1,810,Correct,0,739
1,AXAMA,16,2,1267,Correct,0,682
1,RYRGR,16,2,1097,Correct,0,725
1,DODOD,15,1,769,Correct,0,854
1,QTQAQ,16,2,744,Correct,0,746
1,YEYEY,15,1,834,Correct,0,756
2,GYGDG,16,2,804,Correct,0,861
2,SWSWS,15,1,633,Correct,0,822
2,HLHUH,16,2,852,Correct,0,767
2,DEDED,15,1,787,Correct,0,910
2,ZPZOZ,16,2,726,Correct,0,876
2,ATATA,15,1,601,Correct,0,924
2,QOQOQ,15,1,652,Correct,0,700
2,FPFGF,16,2,916,Correct,0,856
2,TRTET,16,2,740,Correct,0,812
2,DQDQD,15,1,840,Correct,0,944
4,PLPLP,15,1,712,Correct,0,711
4,ATAIA,16,2,756,Correct,0,747
4,SKSGS,16,2,695,Correct,0,892
4,ZYZYZ,15,1,578,Correct,0,701
4,QSQSQ,15,1,576,Correct,0,797
4,TZTDT,16,2,812,Correct,0,910
4,JYJGJ,16,2,742,Correct,0,669
4,DYDYD,15,1,521,Correct,0,945
4,LTLCL,16,2,833,Correct,0,657
4,FQFEF,16,2,776,Correct,0,813
1,SKSKS,15,1,796,Correct,0,666
1,DLDUD,16,2,672,Correct,0,938
1,PDPGP,16,2,774,Correct,0,840
1,MWMWM,15,1,988,Correct,0,803
1,FTFTF,15,1,729,Correct,0,924
1,AXAMA,16,2,658,Correct,0,730
1,RYRGR,16,2,602,Correct,0,897
1,DODOD,15,1,547,Correct,0,916
1,QTQAQ,16,2,517,Correct,0,746
1,YEYEY,15,1,675,Correct,0,852
DT Practice
1,TKTKT,15,2,1109,False,0,710
1,SLSUS,16,2,1182,Correct,0,723
1,VZVGV,7,[2],[1297],False,0,742
1,XWXZX,7,[2],[1201],False,0,721
1,ATATA,15,1,903,Correct,0,939
1,HXZMH,16,2,1084,Correct,0,686
1,TZTZT,7,[1][3],[891][1211],Correct,0,893
1,UOUOU,15,1,1023,Correct,0,872
1,ZTWAW,16,2,1188,Correct,0,656
1,RZRER,7,[2][3],[1218][1458],Correct,0,709
2,JYJDJ,16,2,943,Correct,0,686
2,DWDWD,15,1,986,Correct,0,918
2,GNGNG,7,[1][3],[685][1005],Correct,0,869
2,NEZEZ,16,1,1049,Correct,0,866
2,RNROR,7,[2][3],[1276][1564],Correct,0,781
2,QTQNQ,7,[2],[1334],False,0,842
2,HOHON,15,1,936,Correct,0,751
2,KPKGK,16,2,1082,Correct,0,740
2,DRDED,16,2,1188,Correct,0,802
2,LNLNL,7,[1][3],[863][1135],Correct,0,751
4,GLGLG,15,1,724,Correct,0,949
4,DTDID,16,2,832,Correct,0,724
4,SMSGS,16,2,918,Correct,0,795
4,ZFZYZ,7,[2][3],[1061][1317],Correct,0,810
4,TSTFT,7,[2][3],[980][1220],Correct,0,870
4,OFOFO,7,[1][3],[603][907],Correct,0,845
4,WYFGW,16,2,1112,Correct,0,831
4,WYWYW,15,3,1006,False,0,893
4,MFMCM,7,[2],[1528],False,0,859
4,HQHEH,16,2,907,Correct,0,879
Trials
1,D,5,3,16257,New Target,1,943
1,ZNZYZ,161,2,999,Correct,1,890
1,FZFZF,151,1,726,Correct,1,879
1,RKRKR,152,1,771,Correct,1,777
1,RXRNR,161,2,769,Correct,1,704
1,CNCFC,162,2,879,Correct,1,658
1,PDPDP,7,[1][3],[755][1059],Correct,1,896
1,CPCFC,14,2,1118,Correct,1,739
1,VLVNV,162,2,974,Correct,1,763
1,KFKFK,151,1,852,Correct,1,730
1,ZNZNZ,152,1,887,Correct,1,909
1,KCKPD,235,2,968,Correct,1,924
1,ZKZFZ,222,2,779,Correct,1,804
1,NRNZN,162,2,744,Correct,1,799
1,KXKRK,163,2,630,Correct,1,721
1,YPYZY,164,2,562,Correct,1,876
1,FKDKF,223,1,623,Correct,1,938
1,RPRPR,113,1,759,Correct,1,664
1,VRVKV,161,2,717,Correct,1,912
1,RFRPR,162,2,699,Correct,1,742
1,KVKVK,151,1,767,Correct,1,671
1,YKYVY,161,2,614,Correct,1,802
1,VDVDV,8,[1][3],[753][945],Correct,1,693
1,DVZVZ,221,1,967,Correct,1,921
1,YFYFY,113,1,829,Correct,1,752
1,ZYZYZ,152,1,730,Correct,1,701
1,VLVXV,161,2,743,Correct,1,806
1,DPXZX,231,2,742,Correct,1,727
1,RYRYR,113,1,890,Correct,1,679
1,PDPNP,91,[2][3],[1152][1360],Correct,1,776
1,KXKXK,13,1,1072,Correct,1,739
1,ZYZYZ,152,1,541,Correct,1,779
1,VKVKV,153,1,797,Correct,1,865
1,YZYZY,154,1,570,Correct,1,670
1,NLNZN,161,2,751,Correct,1,740
1,ZNDYZ,233,2,749,Correct,1,708
1,PCPXP,222,2,621,Correct,1,682
1,ZVZFZ,162,2,547,Correct,1,680
1,RCRZR,163,2,572,Correct,1,681
1,LRLRL,151,2,668,Incorrect,1,806
1,ZDZDZ,10,[1][3],[920][1064],Correct,1,829
1,RNRZR,14,2,877,Correct,1,938
1,CXCYC,162,2,848,Correct,1,939
1,RCRLR,163,2,662,Correct,1,852
1,FRFRF,151,1,992,Correct,1,923
1,XFXFX,152,1,769,Correct,1,857
1,RPRLR,161,2,699,Correct,1,895
1,YXYRY,162,2,778,Correct,1,728
1,FYFYF,151,1,764,Correct,1,669
1,YZYVY,161,2,1127,Correct,1,780
1,YKYKY,151,1,632,Correct,1,714
1,XRXRX,152,1,712,Correct,1,761
1,XVXZX,161,2,1048,Correct,1,743
1,PDPDP,11,[1][3],[765][1005],Correct,1,890
1,ZFZFZ,13,1,802,Correct,1,753
1,PXPXP,152,1,759,Correct,1,894
1,LYLYL,153,1,813,Correct,1,928
1,NKNKD,225,1,827,Correct,1,670
1,ZNZNZ,113,1,639,Correct,1,863
1,PYPZP,161,2,788,Correct,1,680
1,XPXPX,151,1,653,Correct,1,826
1,VLVLV,152,1,568,Correct,1,879
1,PKPXP,161,2,1159,Correct,1,918
1,FZFZF,151,1,520,Correct,1,730
1,LDLDL,12,[1][3],[779][971],Correct,1,813
2,U,5,3,6412,New Target,2,853
2,ZVZFZ,161,2,833,Correct,2,910
2,FZFZF,151,1,552,Correct,2,833
2,RFRFR,152,1,753,Correct,2,680
2,NZNKN,161,2,716,Correct,2,820
2,FZFNF,162,2,971,Correct,2,692
2,RXRXR,151,1,984,Correct,2,915
2,KRKYK,161,2,767,Correct,2,697
2,NZNPN,162,2,727,Correct,2,899
2,XPXPX,151,1,660,Correct,2,814
2,CUCUC,7,[1][3],[732][908],Correct,2,817
2,RFRFR,13,1,688,Correct,2,823
2,VYVXV,161,2,833,Correct,2,700
2,VDVDV,191,1,646,Correct,2,908
2,ZKZRZ,15,2,724,Correct,2,847
2,XCXCX,151,1,726,Correct,2,711
2,CNCUC,82,[2][1],[996][1316],Incorrect,2,677
2,RCRCR,13,1,979,Correct,2,786
2,ZPZXZ,161,2,903,Correct,2,760
2,FKFYF,162,2,862,Correct,2,753
2,ZFZYZ,163,2,803,Correct,2,825
2,PXPXP,151,1,652,Correct,2,880
2,URCKC,231,2,1097,Correct,2,918
2,PCPCP,113,1,707,Correct,2,888
2,XNXNX,152,1,1044,Correct,2,763
2,RCRZR,161,2,913,Correct,2,909
2,XVXVX,151,1,903,Correct,2,794
2,NRNRN,152,1,1030,Correct,2,936
2,FPFPF,225,1,663,Correct,2,798
2,XVXFX,222,2,759,Correct,2,745
2,PRPRP,151,1,1103,Correct,2,859
2,FYFCF,161,2,960,Correct,2,697
2,XUXFX,91,,,Incorrect,2,899
2,CYCVC,14,2,1225,Correct,2,683
2,VDVKV,172,2,1044,Correct,2,793
2,YCYCY,15,1,743,Correct,2,690
2,NKNLN,161,2,742,Correct,2,715
2,XPUKX,233,2,962,Correct,2,819
2,ZPZPZ,113,1,1002,Correct,2,702
2,KRKRK,152,1,1321,Correct,2,869
2,XKXKX,153,1,657,Correct,2,795
2,YUYVY,101,[2][3],[1019][1227],Correct,2,867
2,XKXFU,235,2,712,Correct,2,927
2,NFNFN,113,1,752,Correct,2,903
2,KDKDK,193,1,917,Correct,2,931
2,XYXKX,16,2,790,Correct,2,875
2,YZUZY,223,1,1083,Correct,2,907
2,KFKVK,222,2,696,Correct,2,876
2,LYLYL,151,1,671,Correct,2,936
2,CXCDC,184,2,691,Incorrect,2,679
2,XZXNX,16,2,694,Correct,2,653
2,PXPXP,151,1,951,Correct,2,695
2,ZRZYZ,161,2,647,Correct,2,883
2,PUPYP,111,[2][3],[788][948],Correct,2,884
2,RNRNR,14,1,740,Correct,2,696
2,KDKDK,195,1,850,Correct,2,774
2,KNKNK,15,1,726,Correct,2,893
2,PRPKP,161,2,842,Correct,2,663
2,UNYNY,221,2,751,Incorrect,2,862
2,NYNYN,113,1,1004,Correct,2,713
2,YXYXY,152,1,779,Incorrect,2,882
2,RDRDR,196,1,597,Correct,2,765
2,FCFCF,15,1,601,Correct,2,740
2,ZKZKZ,152,1,588,Correct,2,706
2,ZUZUZ,12,[1][3],[852][1028],Correct,2,879
3,E,5,3,11426,New Target,3,829
3,YZYZY,151,1,1477,Correct,3,814
3,VFVNV,161,2,646,Correct,3,735
3,KYKYK,151,1,630,Correct,3,753
3,NKNKN,152,1,780,Correct,3,697
3,XVXNX,161,2,697,Correct,3,738
3,RERFR,71,[2][3],[1042][1202],Correct,3,834
3,XNXNX,13,1,591,Correct,3,939
3,NXNXN,152,1,907,Correct,3,929
3,ZLZNZ,161,2,783,Correct,3,782
3,CUCNC,171,2,814,Correct,3,703
3,FYFRF,16,2,577,Correct,3,926
3,ZLZLZ,151,1,863,Correct,3,882
3,YZYZY,152,1,597,Correct,3,816
3,CYCYC,153,1,530,Correct,3,915
3,VUVUV,192,1,1048,Correct,3,772
3,PXPRP,16,2,957,Correct,3,679
3,YPYPY,151,1,668,Correct,3,935
3,CECEC,8,[1][3],[776][952],Correct,3,657
3,VNENV,223,1,686,Correct,3,781
3,KRKFK,222,2,709,Correct,3,915
3,XLXLE,225,1,633,Correct,3,680
3,RFRUR,183,2,616,Correct,3,820
3,XRXLX,16,2,714,Correct,3,725
3,NZNPN,162,2,667,Correct,3,702
3,XZXZX,151,1,696,Correct,3,880
3,FZFZF,152,1,708,Correct,3,798
3,PFPFP,153,1,738,Correct,3,790
3,YZYXY,161,2,769,Correct,3,655
3,KEKEK,9,[1][3],[831][1039],Correct,3,918
3,CXCPC,14,2,880,Correct,3,804
3,VXVXV,151,1,1057,Correct,3,900
3,NUNZN,174,2,646,Correct,3,655
3,RKRVR,16,2,868,Correct,3,829
3,XRXRX,151,1,616,Correct,3,854
3,ERNFN,231,2,985,Incorrect,3,792
3,YRYNY,222,2,690,Correct,3,650
3,PZPEP,102,[2][3],[919][1111],Correct,3,897
3,ZYZXZ,14,2,708,Correct,3,770
3,RZRVR,162,2,604,Correct,3,885
3,XRXRX,151,1,770,Correct,3,656
3,KUKFK,175,2,960,Correct,3,745
3,RKRKR,15,2,658,Incorrect,3,865
3,ZFZFZ,152,1,770,Correct,3,781
3,YZYVY,161,2,706,Correct,3,671
3,XPXNX,162,2,701,Correct,3,812
3,YRYRY,151,1,636,Correct,3,787
3,EPVPV,221,1,597,Correct,3,946
3,CRCEC,112,[2][3],[818][994],Correct,3,737
3,RFRCR,14,2,1251,Correct,3,799
3,CPCVC,162,2,665,Correct,3,904
3,RXRCR,163,2,724,Correct,3,882
3,VNVLV,164,2,527,Correct,3,872
3,ZXZXZ,151,1,612,Correct,3,724
3,ZCZCZ,152,1,681,Correct,3,695
3,PYPUP,186,2,696,Correct,3,727
3,YKYPY,16,2,664,Correct,3,702
3,YREXY,233,2,883,Correct,3,910
3,ZKZKZ,113,1,863,Correct,3,674
3,XLXNX,161,2,743,Correct,3,774
3,KFKRE,235,2,917,Correct,3,788
3,RXRLR,222,2,732,Correct,3,686
3,RERXR,121,[2][3],[834][994],Correct,3,843
4,J,5,3,10504,New Target,4,785
4,CYCVC,161,2,1163,Correct,4,651
4,RXRCR,162,2,518,Correct,4,775
4,FPFVF,163,2,655,Correct,4,710
4,LZLZL,151,1,691,Correct,4,721
4,PLPLP,152,1,545,Correct,4,751
4,NPNPN,153,1,548,Correct,4,861
4,XZXZX,161,1,501,Incorrect,4,819
4,CNCKC,162,2,809,Correct,4,801
4,PCPYJ,235,2,815,Correct,4,879
4,VYVYV,113,1,775,Correct,4,808
4,RLRLR,152,1,677,Correct,4,759
4,CJCJC,7,[1][3],[569][969],Correct,4,875
4,ZLZLZ,13,1,582,Correct,4,936
4,FZFZF,152,1,539,Correct,4,682
4,CFCFC,153,1,652,Correct,4,911
4,PZPZP,154,1,618,Correct,4,749
4,XEXEX,191,1,823,Correct,4,920
4,NVNFN,16,2,688,Correct,4,758
4,KYKYK,151,1,593,Correct,4,687
4,ZNZVZ,161,2,831,Correct,4,869
4,YVJXY,233,2,746,Correct,4,676
4,XFXFX,113,1,1095,Correct,4,819
4,XNXNX,152,1,607,Correct,4,921
4,FJFKF,81,[2][3],[1074][1250],Correct,4,788
4,CZCYC,14,2,714,Correct,4,665
4,ZXZCZ,162,2,546,Correct,4,881
4,RYRYJ,225,2,616,Incorrect,4,760
4,FPFZF,222,2,741,Correct,4,831
4,XRXRX,151,1,645,Correct,4,686
4,YPYEY,182,2,869,Correct,4,730
4,XRXRX,15,1,842,Correct,4,806
4,XZXPX,161,2,623,Correct,4,853
4,CJCJC,9,[1][3],[654][878],Correct,4,867
4,ZXZVZ,14,2,938,Correct,4,848
4,VKVKV,151,1,779,Correct,4,855
4,VEVNV,173,2,778,Correct,4,666
4,ZKZVZ,16,2,770,Correct,4,818
4,XVXJX,102,[2][3],[858][1065],Correct,4,854
4,RXRVR,14,2,809,Correct,4,712
4,LRLRL,151,1,644,Correct,4,768
4,YNJNY,223,1,722,Correct,4,808
4,NPNJN,222,2,862,Correct,4,803
4,ZEZEZ,194,1,1140,Correct,4,838
4,ZNZNZ,15,1,885,Correct,4,678
4,YZYZY,152,1,613,Correct,4,905
4,XYXYX,153,1,612,Correct,4,897
4,ZXZXZ,221,1,738,Correct,4,834
4,LYLZL,222,2,951,Correct,4,946
4,CYCNC,162,2,745,Correct,4,840
4,XEXEX,195,1,737,Correct,4,880
4,CVCXC,16,2,825,Correct,4,866
4,ZPZXZ,162,2,736,Correct,4,822
4,FZFZF,151,1,651,Correct,4,826
4,RXRJR,112,[2][3],[832][1008],Correct,4,793
4,PRPFP,14,2,704,Correct,4,950
4,PKPEP,186,2,877,Correct,4,822
4,XZXPX,16,2,710,Correct,4,701
4,JCZVZ,231,2,913,Correct,4,861
4,RXRLR,222,2,582,Correct,4,863
4,VZVZV,151,1,675,Correct,4,918
4,XJXJX,12,[1][3],[864][1008],Correct,4,901
5,I,5,3,14527,New Target,5,925
5,PCPCP,151,1,825,Correct,5,846
5,XYXYX,152,1,607,Correct,5,843
5,VXVXV,153,1,750,Correct,5,833
5,XVXVX,154,2,549,Incorrect,5,885
5,ZRZXZ,161,2,789,Correct,5,820
5,FPFZF,162,2,686,Correct,5,843
5,ZYZYZ,151,1,745,Correct,5,859
5,RVRZR,161,2,693,Correct,5,830
5,CICIC,7,[1][3],[672][864],Correct,5,779
5,XLXLX,13,1,769,Correct,5,845
5,YVYVY,152,1,714,Correct,5,842
5,CJCJC,191,1,689,Correct,5,927
5,FNFCF,16,2,715,Correct,5,906
5,PVPRP,162,2,633,Correct,5,724
5,FZFZF,151,1,563,Correct,5,941
5,NVIVN,223,1,912,Correct,5,918
5,CVCIC,82,[2][3],[1176][1304],Correct,5,684
5,ZXZXZ,13,1,761,Correct,5,753
5,FCFZF,161,2,789,Correct,5,817
5,IXRXR,221,1,825,Correct,5,927
5,ZPZNZ,222,2,627,Correct,5,812
5,VZVZV,151,1,593,Correct,5,838
5,YRYNY,161,2,626,Correct,5,817
5,VNVPV,162,2,652,Correct,5,921
5,RVRJR,182,2,987,Correct,5,847
5,VRVRV,15,1,731,Correct,5,861
5,VIVIV,9,[1][3],[720][912],Correct,5,814
5,CXCVC,14,2,559,Correct,5,937
5,PZPZP,151,1,756,Correct,5,756
5,IXVKV,231,2,641,Correct,5,723
5,YJYCY,173,2,879,Incorrect,5,828
5,VYVYV,15,1,816,Correct,5,921
5,YVYVY,152,1,696,Correct,5,844
5,NVNVN,153,1,592,Correct,5,926
5,XYXVX,161,2,647,Correct,5,675
5,NJNCN,174,2,836,Correct,5,913
5,NXNYN,16,2,816,Correct,5,668
5,VXVCV,162,2,621,Correct,5,664
5,ZKZKZ,151,1,972,Correct,5,793
5,XRXYX,161,2,718,Correct,5,826
5,ZCZXZ,162,2,555,Correct,5,751
5,KVKYI,235,2,587,Correct,5,837
5,CNCNC,113,1,536,Correct,5,928
5,RIRIR,10,[1][3],[933][1140],Correct,5,806
5,VYVXV,14,2,607,Correct,5,850
5,FXIRF,233,2,711,Correct,5,949
5,PFPFP,113,1,937,Correct,5,665
5,VPVPV,152,1,578,Correct,5,688
5,ZJZJZ,195,1,757,Correct,5,819
5,ZVZNZ,16,2,701,Correct,5,898
5,YVYXY,162,2,945,Correct,5,658
5,PRPRP,151,1,994,Correct,5,890
5,YPYPY,152,1,585,Correct,5,676
5,ZIZPZ,111,[2][3],[875][1083],Correct,5,715
5,NKNXN,14,2,1045,Correct,5,859
5,RZRXR,162,2,613,Correct,5,783
5,RXRXR,151,1,728,Correct,5,816
5,ZJZJZ,196,1,746,Correct,5,651
5,CVCVI,225,1,877,Incorrect,5,677
5,NKNKN,113,1,856,Correct,5,657
5,NRNZN,161,2,766,Correct,5,851
5,CNCNC,151,1,617,Correct,5,831
5,RFRIR,122,[2][3],[900][1060],Correct,5,789
6,B,5,3,2158,New Target,6,668
6,YKYZY,161,2,855,Correct,6,678
6,VCVRV,162,2,510,Correct,6,858
6,XVXVX,151,1,628,Correct,6,722
6,KZKRK,161,2,704,Correct,6,857
6,ZVZXZ,162,2,521,Correct,6,936
6,RCRNR,163,2,618,Correct,6,861
6,CXCRC,164,2,544,Correct,6,666
6,VNBCV,233,2,620,Correct,6,931
6,CXCVC,222,2,540,Correct,6,825
6,RFRFR,151,2,852,Incorrect,6,723
6,XPXRX,161,1,554,Incorrect,6,836
6,RYRBR,72,[2][3],[678][1365],Correct,6,714
6,ZKZKZ,13,1,856,Correct,6,936
6,FIFRF,171,2,926,Correct,6,868
6,VZVLV,16,2,622,Correct,6,917
6,RPRVR,162,2,633,Correct,6,923
6,YBYBY,8,[1][3],[746][906],Correct,6,713
6,PYPVP,14,2,940,Correct,6,690
6,NININ,192,1,1134,Correct,6,894
6,RNRNR,15,1,639,Correct,6,679
6,NXNVN,161,2,736,Correct,6,791
6,RNRNR,151,1,607,Correct,6,729
6,FRFVF,161,2,724,Correct,6,659
6,YVYFB,235,2,797,Incorrect,6,895
6,ZRZXZ,222,2,684,Correct,6,670
6,VNVIV,193,2,1092,Incorrect,6,908
6,PXPNP,16,2,928,Correct,6,923
6,ZXZPZ,162,2,683,Correct,6,676
6,VBVBV,9,[1][3],[825][1001],Correct,6,895
6,CXCXC,13,1,739,Correct,6,665
6,PCPFP,161,2,1108,Correct,6,658
6,KNKNK,151,1,1122,Correct,6,783
6,XIXIX,194,1,847,Correct,6,785
6,CYCYC,15,1,529,Correct,6,943
6,FVFYF,161,2,843,Correct,6,683
6,YNYRY,162,2,687,Correct,6,848
6,BVPXP,231,2,655,Correct,6,744
6,NXNXN,113,1,691,Correct,6,664
6,FRFRF,152,1,609,Correct,6,788
6,YVYVY,153,1,770,Correct,6,830
6,ZKZCZ,161,2,698,Correct,6,876
6,VIVXV,175,2,875,Correct,6,698
6,PRBRP,223,1,921,Correct,6,666
6,YZYBY,102,[2][3],[853][981],Correct,6,919
6,CXCVC,14,2,695,Correct,6,823
6,FYFYF,151,1,613,Correct,6,811
6,VKVXV,161,1,710,Incorrect,6,793
6,ZBZBZ,11,[1][3],[805][981],Correct,6,827
6,FPFNF,14,2,653,Correct,6,781
6,CXCXC,151,1,719,Correct,6,745
6,YCYCY,152,1,625,Correct,6,669
6,FPFPF,153,1,593,Correct,6,889
6,CVCVB,225,1,574,Correct,6,917
6,ZCZCZ,113,1,516,Correct,6,665
6,CZCNC,161,2,734,Correct,6,687
6,KIKFK,176,2,805,Correct,6,936
6,PXPXP,15,1,754,Correct,6,736
6,RYRYR,152,1,623,Correct,6,743
6,ZRZCZ,161,2,683,Correct,6,899
6,RVRVR,151,1,588,Correct,6,768
6,XYXNX,161,2,686,Correct,6,788
6,BVKVK,221,1,826,Correct,6,841
6,CBCBC,12,[1][3],[835][1059],Correct,6,883
7,W,5,3,2546,New Target,7,658
7,RKRKR,151,1,880,Correct,7,921
7,CVCRC,161,2,572,Correct,7,661
7,PKPKP,151,1,594,Correct,7,651
7,FPFPF,152,1,641,Correct,7,870
7,VRVPV,161,2,881,Correct,7,759
7,ZKZYZ,162,2,666,Correct,7,719
7,PVPCP,233,2,635,Correct,7,798
7,KVKVK,113,2,692,Incorrect,7,949
7,YXYVY,161,2,832,Correct,7,845
7,FNFNF,151,1,615,Correct,7,863
7,YWYWY,7,[1][3],[663][823],Correct,7,683
7,ZYZYZ,13,1,912,Correct,7,786
7,PYPYP,152,1,564,Correct,7,891
7,XRXRX,153,1,597,Correct,7,868
7,PXPXP,154,1,709,Correct,7,851
7,FCFBF,181,2,593,Correct,7,791
7,FVFVF,15,1,592,Correct,7,835
7,CYCZC,161,2,655,Correct,7,832
7,XZXVX,162,2,810,Correct,7,920
7,PFPFP,151,1,671,Correct,7,887
7,RVRLR,161,2,858,Correct,7,921
7,ZBZBZ,192,1,1034,Correct,7,672
7,VCVNV,16,2,756,Correct,7,938
7,NWNWN,8,[1][3],[840][984],Correct,7,811
7,XNXVX,14,2,983,Correct,7,829
7,CXCNC,162,2,617,Correct,7,823
7,YVYVW,225,1,973,Correct,7,684
7,VFVFV,113,1,789,Correct,7,655
7,VFWFV,223,1,947,Correct,7,684
7,CVCFC,222,2,807,Correct,7,778
7,YBYBY,193,1,1004,Correct,7,935
7,PYPYP,15,1,625,Correct,7,732
7,NKNWN,91,[2][3],[868][964],Correct,7,789
7,VNVNV,13,1,690,Correct,7,725
7,RVRVR,152,1,652,Correct,7,891
7,FVFBF,184,2,633,Incorrect,7,883
7,VZVKV,16,2,666,Correct,7,731
7,VPVCV,162,2,662,Correct,7,886
7,WYZCZ,231,2,740,Correct,7,869
7,PFPFP,113,1,946,Correct,7,704
7,PRPRP,152,1,663,Correct,7,828
7,NWNWN,10,[1][3],[809][953],Correct,7,841
7,VKVCV,14,2,592,Correct,7,861
7,WPYPY,221,1,646,Correct,7,656
7,VBVBV,195,1,901,Correct,7,795
7,ZKZYZ,16,2,620,Correct,7,723
7,XYXYX,151,1,653,Correct,7,801
7,FZFXF,161,2,681,Correct,7,880
7,XKXKX,151,1,856,Correct,7,754
7,XPXPX,152,1,517,Correct,7,691
7,FWFWF,11,[1][3],[654][894],Correct,7,830
7,FNFBF,186,2,602,Correct,7,771
7,ZVZYZ,16,2,604,Correct,7,736
7,FZFZF,151,1,779,Correct,7,787
7,NPNFW,235,2,746,Correct,7,692
7,PCPCP,113,1,545,Correct,7,908
7,NKNWN,122,[2][3],[896][1007],Correct,7,847
8,M,5,3,3287,New Target,8,729
8,VYVNV,161,2,1156,Correct,8,934
8,KLKNK,162,2,723,Correct,8,736
8,NRNRN,151,1,670,Correct,8,838
8,VNVFV,161,2,587,Correct,8,851
8,XNXNM,225,1,903,Correct,8,901
8,CXCVC,222,2,689,Correct,8,672
8,KRKZK,162,2,705,Correct,8,731
8,NMNFN,71,[2][3],[1004][1196],Correct,8,735
8,ZFZFZ,13,1,702,Correct,8,909
8,YPYCY,161,2,872,Correct,8,919
8,KCKCK,151,1,657,Correct,8,790
8,VNVNV,152,2,755,Incorrect,8,759
8,LXLXL,153,1,718,Correct,8,846
8,CLCLC,154,1,731,Correct,8,720
8,NYNYN,155,1,846,Correct,8,688
8,LCMYL,233,2,648,Correct,8,722
8,NCNCN,113,1,675,Correct,8,920
8,ZVZRZ,161,2,785,Correct,8,816
8,ZVZVZ,151,1,789,Correct,8,932
8,PZPVP,161,2,768,Correct,8,754
8,PWPNP,171,2,886,Correct,8,874
8,KLKCM,235,2,781,Correct,8,808
8,XMXMX,8,[1][3],[1052][1180],Correct,8,720
8,PRPXP,14,2,721,Correct,8,758
8,CVCYC,162,2,716,Correct,8,874
8,PXPMP,92,[2],[819],Incorrect,8,777
8,ZCZLZ,14,2,802,Correct,8,708
8,XWXWX,192,2,1038,Incorrect,8,719
8,ZCZLZ,16,2,653,Correct,8,869
8,MNCYC,231,2,890,Correct,8,819
8,ZXZXZ,113,1,749,Correct,8,922
8,YRYNY,161,2,772,Correct,8,939
8,ZLZPZ,162,2,731,Correct,8,868
8,VZVZV,151,1,599,Correct,8,786
8,MXPXP,221,1,698,Correct,8,714
8,VWVWV,193,1,889,Correct,8,763
8,PYPYP,16,1,617,Incorrect,8,909
8,XPXVX,162,2,1019,Correct,8,807
8,XLXLX,151,1,681,Correct,8,859
8,YMYMY,10,[1][3],[754][914],Correct,8,908
8,VYVYV,13,1,673,Correct,8,836
8,PWPZP,174,2,785,Correct,8,758
8,PYPKP,16,2,839,Correct,8,935
8,NPNXN,162,2,621,Correct,8,843
8,KVKVK,223,1,585,Correct,8,900
8,NVNFN,222,2,584,Correct,8,863
8,XNXNX,151,1,621,Correct,8,722
8,YZYMY,112,[2],[633],Incorrect,8,736
8,PFPFP,13,1,720,Correct,8,887
8,ZWZWZ,195,2,808,Incorrect,8,902
8,PCPZP,16,2,711,Correct,8,678
8,LRLPL,162,2,1024,Correct,8,912
8,CZCZC,151,1,596,Correct,8,689
8,NZNZN,152,1,633,Correct,8,663
8,CVCXC,161,2,660,Correct,8,929
8,XCXCX,151,1,678,Correct,8,761
8,YWYWY,196,1,1047,Correct,8,797
8,NLNLN,15,1,742,Correct,8,756
8,VNVNV,152,1,661,Correct,8,723
8,ZMZMZ,12,[1][3],[756][900],Correct,8,773
9,S,5,3,3088,New Target,9,808
9,NZNZN,151,1,1062,Correct,9,789
9,KVKZK,161,2,622,Correct,9,945
9,LZLZL,151,1,674,Correct,9,761
9,XLXLX,152,1,594,Correct,9,733
9,ZXZXZ,153,1,847,Correct,9,948
9,KNKZK,161,2,692,Correct,9,819
9,NRNYN,162,2,664,Correct,9,674
9,CLCVC,163,2,679,Correct,9,779
9,ZCZFZ,164,2,553,Correct,9,688
9,NSNSN,7,[1][3],[651][827],Correct,9,752
9,VZVZV,13,1,589,Correct,9,787
9,NVNCN,161,2,591,Correct,9,807
9,VMVMV,191,1,706,Correct,9,805
9,CVCXC,16,2,958,Correct,9,822
9,ZYZRZ,162,2,690,Correct,9,749
9,XNXZX,163,2,722,Correct,9,741
9,PXPXP,151,1,602,Correct,9,937
9,VCVSV,82,[2][3],[704][864],Correct,9,890
9,PRPCP,14,2,727,Correct,9,763
9,ZMZMZ,192,1,904,Incorrect,9,665
9,ZFZFZ,15,1,666,Correct,9,905
9,FCFCF,152,1,621,Correct,9,652
9,YLYZY,161,2,700,Correct,9,820
9,KNKVK,162,2,581,Correct,9,894
9,SFPCP,231,2,731,Correct,9,686
9,RPRPR,113,1,617,Correct,9,720
9,XMXMX,193,1,565,Correct,9,929
9,KFKFK,15,1,583,Correct,9,862
9,VSVSV,9,[1][3],[731][859],Correct,9,915
9,YVSVY,223,1,1105,Correct,9,950
9,VPVPV,113,1,557,Correct,9,777
9,XZXZX,152,1,844,Correct,9,887
9,KZKXK,161,2,775,Correct,9,692
9,RFRPR,162,2,900,Correct,9,788
9,NVNVS,225,1,916,Correct,9,871
9,ZXZXZ,113,1,760,Correct,9,804
9,SRVRV,221,1,933,Correct,9,733
9,YCYCY,113,1,621,Correct,9,676
9,KMKZK,174,2,606,Correct,9,771
9,FZSVF,233,2,1197,Correct,9,840
9,VYVYV,113,1,582,Correct,9,831
9,LVLVL,152,1,585,Correct,9,786
9,YFYFY,153,1,573,Correct,9,723
9,NXNSN,102,[2][3],[926][1070],Correct,9,739
9,FNFCF,14,2,696,Correct,9,895
9,KVKVK,151,1,999,Correct,9,805
9,VZVCV,161,2,1037,Correct,9,705
9,ZYZMZ,185,2,973,Correct,9,849
9,VXVZV,16,2,753,Correct,9,824
9,VPVPV,151,1,845,Correct,9,793
9,RVRNS,235,2,1024,Correct,9,896
9,YZYZY,113,1,654,Correct,9,901
9,ZSZSZ,11,[1][3],[614][742],Correct,9,699
9,FRFRF,13,1,695,Correct,9,759
9,ZMZMZ,196,1,780,Correct,9,651
9,NZNXN,16,2,858,Correct,9,692
9,LSLFL,121,[1][3],[678][822],Incorrect,9,817
10,Q,5,3,19537,New Target,10,691
10,ZVZPZ,161,2,740,Correct,10,725
10,RZRZR,151,1,544,Correct,10,840
10,ZFZFZ,152,1,612,Correct,10,760
10,RZRZR,153,1,549,Correct,10,804
10,PZPXP,161,2,625,Correct,10,947
10,VFQPV,233,2,545,Correct,10,848
10,ZPZRZ,222,2,838,Correct,10,707
10,CYCVC,162,2,778,Correct,10,939
10,CPCPC,151,1,570,Correct,10,695
10,YZYQY,72,[2],[647],Incorrect,10,855
10,FVFXF,14,2,692,Correct,10,655
10,YNYNQ,225,1,685,Correct,10,923
10,ZYZYZ,113,1,874,Correct,10,827
10,FRFSF,181,2,818,Incorrect,10,761
10,XNXPX,16,2,663,Correct,10,929
10,NXNXN,151,1,864,Correct,10,919
10,PVPZP,161,2,883,Correct,10,891
10,XVXPX,162,2,540,Correct,10,771
10,FXFVF,163,2,596,Correct,10,650
10,NSNKN,172,2,900,Incorrect,10,816
10,VXVNV,16,2,613,Correct,10,946
10,XZXZX,151,1,673,Correct,10,888
10,VQVQV,8,[1][3],[647][823],Correct,10,834
10,ZYZPZ,14,2,849,Correct,10,808
10,PZPSP,183,2,586,Correct,10,688
10,YVYVY,15,1,782,Correct,10,751
10,NCNQN,92,[2][3],[739][1123],Correct,10,661
10,FCFVF,14,2,646,Correct,10,743
10,ZFZFZ,151,1,874,Correct,10,668
10,NSNSN,194,1,599,Correct,10,673
10,YPYFY,16,2,956,Correct,10,713
10,ZKZKZ,151,1,686,Correct,10,858
10,QZRCR,231,2,925,Correct,10,721
10,YPYVY,222,2,654,Correct,10,949
10,ZNZNZ,151,1,679,Correct,10,910
10,VQVQV,10,[1][3],[628][756],Correct,10,878
10,RVRZR,14,2,809,Correct,10,708
10,KRKSK,185,2,610,Correct,10,798
10,NPNPN,15,1,655,Correct,10,913
10,YPYPY,152,1,653,Correct,10,798
10,VCVYV,161,2,801,Correct,10,679
10,FPFNF,162,2,556,Correct,10,768
10,QVXVX,221,1,766,Correct,10,860
10,ZVZRZ,222,2,687,Correct,10,665
10,LFLFL,151,1,703,Correct,10,706
10,VLVLV,152,1,816,Correct,10,721
10,KXQXK,223,1,664,Correct,10,819
10,YQYQY,11,[1][3],[771][915],Correct,10,943
10,YCYCY,13,2,897,Incorrect,10,722
10,PZPYP,161,2,1145,Correct,10,734
10,LPLFL,162,2,866,Correct,10,921
10,VSVSV,196,1,569,Correct,10,724
10,VFVYQ,235,2,1054,Correct,10,740
10,CZCXC,222,2,707,Correct,10,653
10,PVPCP,162,2,639,Correct,10,839
10,CXCXC,151,1,801,Correct,10,737
10,NZNZN,152,1,660,Correct,10,915
10,YPYCY,161,2,838,Correct,10,707
10,ZQZQZ,12,[1][3],[700][876],Correct,10,827
11,T,5,3,2282,New Target,11,675
11,KFKFK,151,1,941,Correct,11,793
11,LZLZL,152,1,578,Correct,11,753
11,PFPVP,161,2,615,Correct,11,727
11,FRFPF,162,2,956,Correct,11,718
11,FZFZF,151,1,606,Correct,11,826
11,VTVTV,7,[1][3],[647][807],Correct,11,709
11,KYKCK,14,2,659,Correct,11,764
11,VPVPV,151,1,508,Correct,11,914
11,XQXQX,191,1,956,Correct,11,941
11,PZPYP,16,2,738,Correct,11,773
11,KXKLK,162,2,619,Correct,11,879
11,TCNCN,221,2,828,Incorrect,11,829
11,PZPNP,222,2,737,Correct,11,882
11,RCRPR,162,2,679,Correct,11,926
11,PZPRT,235,2,899,Correct,11,882
11,XFXVX,222,2,599,Correct,11,864
11,LTLVL,81,[2][3],[1039][1166],Correct,11,782
11,ZCZPZ,14,2,680,Correct,11,909
11,NCNQN,182,2,759,Correct,11,809
11,XZXNX,16,2,642,Correct,11,803
11,ZPZPZ,151,1,865,Correct,11,840
11,CFCFC,152,1,633,Correct,11,757
11,VXTRV,233,2,990,Correct,11,685
11,CFCVC,222,2,654,Correct,11,822
11,PYPYP,151,1,798,Correct,11,781
11,FQFYF,173,2,608,Correct,11,949
11,CNCFC,16,2,707,Correct,11,764
11,PTPTP,9,[1][3],[680][808],Correct,11,828
11,ZCZCZ,13,1,831,Correct,11,865
11,KZKZK,152,1,626,Correct,11,940
11,RLRVR,161,2,609,Correct,11,884
11,ZRZKZ,162,2,735,Correct,11,895
11,KLKLT,225,1,968,Correct,11,901
11,ZQZQZ,194,1,848,Correct,11,656
11,VZVZV,15,1,532,Correct,11,935
11,RVRZR,161,2,746,Correct,11,715
11,ZPZCZ,162,2,705,Correct,11,881
11,VYVYV,151,1,656,Correct,11,738
11,RVRVR,152,1,704,Correct,11,816
11,PTPTP,10,[1][3],[701][877],Correct,11,779
11,PXPXP,13,1,668,Correct,11,833
11,KCKCK,152,1,586,Correct,11,859
11,YVYVY,153,1,559,Correct,11,732
11,CYCYC,154,1,484,Correct,11,770
11,XCXCX,155,1,540,Correct,11,693
11,CYCQC,185,2,644,Correct,11,693
11,KCKNK,16,2,596,Correct,11,807
11,VPVPV,151,1,584,Correct,11,678
11,TXFZF,231,2,825,Correct,11,836
11,NYNVN,222,2,717,Correct,11,868
11,VQVXV,176,2,764,Correct,11,748
11,ZRZRZ,15,1,739,Correct,11,835
11,VTVZV,111,[2][3],[913][1041],Correct,11,873
11,PXPVP,14,2,1108,Correct,11,896
11,FVFVF,151,1,759,Correct,11,764
11,VRVLV,161,2,711,Correct,11,675
11,YCYCY,151,1,616,Correct,11,669
11,XZTZX,223,1,555,Correct,11,776
11,VTVTV,12,[1][3],[809][1049],Correct,11,771
12,O,5,3,2970,New Target,12,720
12,VXVLV,161,2,881,Correct,12,695
12,KVKCK,162,2,604,Correct,12,717
12,VLVLV,151,1,615,Correct,12,938
12,ZCZVZ,161,2,648,Correct,12,741
12,KFKFK,151,1,641,Correct,12,910
12,XKXKX,152,1,812,Correct,12,880
12,YXYXY,153,1,597,Correct,12,790
12,FVFVF,154,1,709,Correct,12,877
12,PVPOP,72,[2][3],[612][932],Correct,12,926
12,ZXZYZ,14,2,880,Correct,12,707
12,PXPVP,162,2,743,Correct,12,770
12,ZTZTZ,191,1,878,Correct,12,917
12,CVCKC,16,2,1094,Correct,12,817
12,CKCKC,151,1,687,Correct,12,947
12,NPNPN,152,1,601,Correct,12,883
12,ZRZNZ,161,2,606,Correct,12,745
12,OZCZC,221,1,881,Correct,12,711
12,LFLFL,113,1,645,Correct,12,884
12,CXCXC,152,1,680,Correct,12,758
12,KPKPK,153,1,580,Correct,12,816
12,FRFKF,161,2,732,Correct,12,697
12,FOFOF,8,[1][3],[896][992],Correct,12,943
12,ZFZFZ,13,1,668,Correct,12,889
12,LKLZO,235,2,906,Correct,12,800
12,KLKZK,222,2,863,Correct,12,813
12,YXYCY,162,2,661,Correct,12,817
12,LOLOL,9,[1][3],[696][904],Correct,12,925
12,XLXLX,13,1,716,Correct,12,782
12,XVXVX,152,1,908,Correct,12,690
12,FTFTF,192,1,871,Correct,12,661
12,OXNZN,231,2,718,Correct,12,777
12,CZCZC,113,1,773,Correct,12,901
12,LZLZL,152,1,612,Correct,12,651
12,VLVPV,161,2,789,Correct,12,832
12,VYVYO,225,1,896,Correct,12,827
12,XKXKX,113,1,855,Correct,12,787
12,RTRTR,193,1,779,Correct,12,848
12,KVKCK,16,2,612,Correct,12,841
12,ROROR,101,[1][3],[792][936],Correct,12,797
12,PRPRP,13,1,728,Correct,12,700
12,LYLVL,161,2,905,Correct,12,715
12,PLPLP,151,1,749,Correct,12,867
12,CTCTC,194,1,494,Correct,12,705
12,XZXYX,16,2,950,Correct,12,726
12,NKNKN,151,1,715,Correct,12,740
12,VLVZV,161,2,824,Correct,12,750
12,YOYOY,11,[1][3],[660][884],Correct,12,852
12,PZOZP,223,1,1034,Correct,12,851
12,FYFYF,113,1,654,Correct,12,756
12,ZXZVZ,161,2,645,Correct,12,924
12,VKVZV,162,2,806,Correct,12,792
12,ZTZTZ,195,1,1037,Correct,12,888
12,LKLZL,16,2,1019,Correct,12,859
12,KCKVK,162,2,733,Correct,12,781
12,PXPKP,163,2,841,Correct,12,810
12,KCOZK,233,2,725,Correct,12,672
12,FKFKF,113,1,611,Correct,12,827
12,CTCRC,176,2,674,Correct,12,857
12,NXNXN,15,1,706,Correct,12,707
12,KXKVK,161,2,930,Correct,12,806
12,CPCOC,122,[2][3],[1066][1194],Correct,12,934
13,H,5,3,1240,New Target,13,857
13,VFVNV,151,2,796,Incorrect,13,806
13,YVYVY,152,1,583,Correct,13,779
13,XVXVX,153,1,692,Correct,13,896
13,NRNXN,161,2,750,Correct,13,930
13,PZPKP,162,2,510,Correct,13,690
13,HLVLV,221,2,885,Incorrect,13,774
13,CXCZC,222,2,624,Correct,13,674
13,LHLYL,71,[2][3],[814][973],Correct,13,744
13,YKYFY,14,2,1038,Correct,13,877
13,YOYRY,171,2,1097,Correct,13,901
13,ZKZYZ,16,2,597,Correct,13,813
13,RZRZR,151,1,631,Correct,13,776
13,NFNYN,161,2,569,Correct,13,761
13,KVKFK,162,2,684,Correct,13,758
13,XFXYX,163,2,792,Correct,13,862
13,LKLVL,164,2,757,Correct,13,692
13,NLNLN,151,1,636,Correct,13,866
13,XCXOX,182,2,1399,Correct,13,931
13,FXFXF,15,1,668,Correct,13,734
13,VHVHV,8,[1][3],[678][838],Correct,13,756
13,PVPVP,13,1,706,Correct,13,661
13,CRCXC,161,2,688,Correct,13,737
13,NXNXN,151,1,800,Correct,13,738
13,XRXRX,152,1,683,Correct,13,717
13,YFYXY,161,2,602,Correct,13,713
13,ZOZOZ,193,1,1020,Correct,13,793
13,RZRZR,15,1,539,Correct,13,821
13,FKFKF,152,1,916,Correct,13,658
13,PFPFP,153,1,902,Correct,13,797
13,XYXHX,92,[2][3],[617][1113],Correct,13,901
13,RZRKR,14,2,780,Correct,13,837
13,FLFLH,225,2,667,Incorrect,13,658
13,KRKRK,113,1,814,Correct,13,700
13,ZVZNZ,161,2,649,Correct,13,699
13,ZOZOZ,194,1,859,Correct,13,741
13,FZFZF,15,1,697,Correct,13,679
13,FHFKF,101,[2][3],[927][1071],Correct,13,839
13,ZXHLZ,233,2,1006,Correct,13,769
13,FKFXF,222,1,612,Incorrect,13,680
13,CFCYC,162,2,978,Correct,13,919
13,ZXZVZ,163,2,850,Correct,13,890
13,KCKOK,185,2,665,Correct,13,818
13,ZXZVH,235,2,798,Correct,13,727
13,CKCKC,113,1,715,Correct,13,723
13,ZXZCZ,161,2,786,Correct,13,894
13,YVYVY,151,1,633,Correct,13,890
13,RVHVR,223,1,1053,Correct,13,701
13,ZRZRZ,113,1,713,Correct,13,898
13,ZHZHZ,11,[1][3],[765][941],Correct,13,904
13,VZVZV,13,1,685,Correct,13,828
13,HZVRV,231,2,796,Correct,13,799
13,FVFVF,113,1,609,Correct,13,902
13,RNRCR,161,2,770,Correct,13,775
13,COCOC,196,1,932,Correct,13,673
13,VNVXV,16,2,1094,Correct,13,840
13,XHXHX,12,[2][1],[1101][1389],Incorrect,13,782
14,G,5,3,1099,New Target,14,817
14,FZFZF,151,1,796,Correct,14,884
14,RPRVR,161,2,981,Correct,14,824
14,XCXCX,151,1,596,Correct,14,879
14,YXYXY,152,1,666,Correct,14,691
14,KZKZK,153,1,730,Correct,14,775
14,RYRKR,161,2,721,Correct,14,896
14,FYFNF,162,2,669,Correct,14,802
14,VKVKV,151,1,664,Correct,14,856
14,KPGPK,223,2,1031,Incorrect,14,776
14,YNYNY,113,1,651,Correct,14,718
14,VYVYV,152,1,604,Correct,14,742
14,YCYXY,161,2,670,Correct,14,720
14,LKLGL,72,[2][3],[801][961],Correct,14,734
14,VXVXV,13,1,891,Correct,14,736
14,KCKVK,161,2,599,Correct,14,687
14,YKYKY,151,1,951,Correct,14,805
14,RHRXR,171,2,780,Correct,14,814
14,FVFCF,16,2,647,Correct,14,713
14,YXYGY,82,[2][3],[778][970],Correct,14,949
14,CLCLC,13,1,849,Correct,14,714
14,ZXZCZ,161,2,676,Correct,14,905
14,VLVFV,162,2,625,Correct,14,788
14,CPCPG,225,1,951,Correct,14,694
14,KHKNK,172,2,1417,Correct,14,818
14,ZKZVZ,16,2,687,Correct,14,688
14,YKYLY,162,2,588,Correct,14,860
14,CNCNC,151,1,852,Correct,14,673
14,PGPGP,9,[1][3],[1198][1342],Correct,14,875
14,VPVPV,13,1,580,Correct,14,878
14,FXGRF,233,2,977,Correct,14,945
14,CYCVC,222,2,787,Correct,14,861
14,FNFNF,151,1,682,Correct,14,947
14,KFKCK,161,2,614,Correct,14,837
14,ZFZHZ,183,2,636,Correct,14,665
14,NXNXN,15,1,951,Correct,14,932
14,FNFNF,152,1,617,Correct,14,874
14,LXLNG,235,2,694,Correct,14,845
14,XKXVX,222,2,868,Correct,14,777
14,ZHZHZ,194,1,967,Correct,14,941
14,PFPFP,15,1,663,Correct,14,854
14,ZYZYZ,152,1,570,Correct,14,697
14,XPXVX,161,2,886,Correct,14,948
14,YCYCY,151,1,585,Correct,14,942
14,RGRGR,10,[1][3],[780][988],Correct,14,780
14,VRVRV,13,1,584,Correct,14,798
14,PKPNP,161,2,934,Correct,14,923
14,XGXGX,11,[1][3],[615][807],Correct,14,848
14,GZYVY,231,2,842,Correct,14,828
14,VCVNV,222,2,727,Correct,14,660
14,VHVHV,195,1,857,Correct,14,750
14,LXLNL,16,2,584,Correct,14,949
14,GKPKP,221,1,780,Correct,14,665
14,XRXPX,222,2,808,Correct,14,708
14,XNXNX,151,2,716,Incorrect,14,908
14,KHKNK,176,2,743,Incorrect,14,822
14,RZRZR,15,1,613,Correct,14,774
14,CGCFC,121,[2][3],[759][935],Correct,14,700
15,A,5,3,1270,New Target,15,943
15,XRXFX,161,2,924,Correct,15,838
15,RXRKR,162,2,892,Correct,15,909
15,YRYRY,151,1,552,Correct,15,673
15,XPXPX,152,1,555,Correct,15,841
15,RPRPR,153,1,554,Correct,15,875
15,NCNCN,154,1,587,Correct,15,866
15,RXRZR,161,2,616,Correct,15,912
15,NANAN,7,[1][3],[949][1045],Correct,15,816
15,KCKYK,14,2,608,Correct,15,788
15,XKXFX,162,2,771,Correct,15,726
15,ZLZKZ,163,2,576,Correct,15,739
15,VCVZV,164,2,658,Correct,15,862
15,XCXVX,165,2,515,Correct,15,778
15,LKLZA,235,2,897,Correct,15,947
15,NCNCN,113,1,615,Correct,15,762
15,YGYGY,191,1,1035,Correct,15,716
15,VLVLV,15,1,970,Correct,15,835
15,XRXRX,152,1,663,Correct,15,932
15,KAKPK,81,[2][3],[1005][1149],Correct,15,769
15,YZAZY,233,1,1106,Incorrect,15,725
15,CFCFC,113,1,641,Correct,15,768
15,VNVLV,161,2,847,Correct,15,792
15,KPKVK,162,2,700,Correct,15,666
15,NCNRN,163,2,617,Correct,15,862
15,FGFGF,192,1,676,Correct,15,888
15,RCRYR,16,2,627,Correct,15,787
15,KRKCK,162,2,621,Correct,15,945
15,CRCRC,151,1,601,Correct,15,893
15,XPAPX,223,1,787,Correct,15,947
15,LPLXL,222,2,665,Correct,15,931
15,CGCVC,173,2,1301,Correct,15,836
15,FKFZF,16,2,574,Correct,15,710
15,CACAC,9,[1][3],[588][796],Correct,15,905
15,XCXCX,13,1,624,Correct,15,729
15,AXRXR,221,1,629,Correct,15,652
15,NKNRN,222,2,651,Correct,15,670
15,KNKFK,162,2,685,Correct,15,684
15,KAKAK,10,[1][3],[588][764],Correct,15,796
15,ZCZRZ,14,2,670,Correct,15,786
15,RPRPR,151,1,616,Correct,15,849
15,NCNCN,152,1,515,Correct,15,907
15,RYRGR,184,2,652,Correct,15,710
15,VPVPV,15,1,655,Correct,15,674
15,RCRCA,225,1,612,Correct,15,678
15,KXKPK,222,2,789,Correct,15,801
15,NPNPN,151,1,571,Correct,15,947
15,YCYCY,152,1,590,Correct,15,764
15,PXPAP,112,[2][3],[705][897],Correct,15,777
15,ZCZNZ,14,2,652,Correct,15,907
15,KYKGK,185,2,989,Correct,15,785
15,ANLPL,231,2,720,Correct,15,842
15,CXCPC,222,2,511,Correct,15,764
15,YRYRY,151,1,711,Correct,15,732
15,LGLGL,196,1,678,Correct,15,781
15,VYVLV,16,2,822,Correct,15,724
15,KVKVK,151,1,1077,Correct,15,673
15,RKRKR,152,1,919,Correct,15,727
15,VXVXV,153,1,571,Correct,15,859
15,XAXAX,12,[1][3],[612][772],Correct,15,872
