Trial No,Stimulus,Trigger,Response,Response Time(ms),Correct,Block,Fixation Duration
Practice
OT Practice
1,SKSKS,15,1,1152,Correct,0,658
1,DLDUD,16,2,781,Correct,0,888
1,PDPGP,16,2,928,Correct,0,938
1,MWMWM,15,1,997,Correct,0,826
1,FTFTF,15,2,641,False,0,785
1,AXAMA,16,2,897,Correct,0,683
1,RYRGR,16,2,758,Correct,0,869
1,DODOD,15,1,672,Correct,0,924
1,QTQAQ,16,2,728,Correct,0,811
1,YEYEY,15,1,991,Correct,0,870
AT Practice
1,TKTKT,15,1,629,Correct,0,661
1,SLSUS,16,2,705,Correct,0,938
1,VBVGV,7,1,529,False,0,719
1,XWXBX,7,3,906,Correct,0,782
1,ATATA,15,1,711,Correct,0,678
1,HXBMH,16,3,639,False,0,842
1,TBTBT,7,3,621,Correct,0,931
1,UOUOU,15,1,803,Correct,0,700
1,BTWAW,16,2,1281,Correct,0,903
1,RBRER,7,3,615,Correct,0,803
Trials
1,D,5,3,26490,New Target,1,931
1,BYBYB,151,1,1169,Correct,1,771
1,FBFBF,152,1,1020,Correct,1,872
1,RKRKR,153,1,822,Correct,1,773
1,QSQNQ,161,2,792,Correct,1,652
1,CTCFC,162,2,737,Correct,1,875
1,PDPNP,71,3,688,Correct,1,691
1,OPOFO,14,1,1010,Incorrect,1,893
1,HLHNH,162,2,808,Correct,1,855
1,MFMFM,151,1,734,Correct,1,709
1,BTBTB,152,1,758,Correct,1,684
1,MCMPD,235,2,692,Correct,1,729
1,BMBFB,222,2,653,Correct,1,877
1,NTNZN,162,2,673,Correct,1,653
1,MXMRM,163,2,959,Correct,1,756
1,APABA,164,2,688,Correct,1,846
1,FMDMF,223,2,931,Incorrect,1,767
1,QPQPQ,111,1,749,Correct,1,706
1,VQVMV,161,2,906,Correct,1,867
1,RERPR,162,2,572,Correct,1,708
1,KVKVK,151,1,801,Correct,1,845
1,AKAHA,161,2,668,Correct,1,728
1,VDVDV,8,3,602,Correct,1,778
1,DUGUG,221,1,811,Correct,1,771
1,AFAFA,111,1,641,Correct,1,904
1,GYGYG,152,1,781,Correct,1,842
1,VXVSV,161,2,1000,Correct,1,782
1,DOWGW,231,2,1191,Correct,1,677
1,QYQYQ,111,1,613,Correct,1,705
1,ODONO,91,3,626,Correct,1,655
1,MSMSM,13,1,927,Correct,1,663
1,GYGYG,152,1,787,Correct,1,936
1,UMUMU,153,1,664,Correct,1,874
1,BZBZB,154,1,756,Correct,1,887
1,NTNBN,161,2,708,Correct,1,671
1,GNDYG,233,2,623,Correct,1,653
1,OCOSO,222,2,646,Correct,1,871
1,BHBFB,162,2,825,Correct,1,924
1,QCQBQ,163,2,614,Correct,1,761
1,LQLQL,151,1,730,Correct,1,763
1,ZDZDZ,10,3,620,Correct,1,750
1,QNQZQ,14,2,839,Correct,1,730
1,CSCYC,162,2,558,Correct,1,894
1,RCRLR,163,2,577,Correct,1,776
1,FRFRF,151,1,563,Correct,1,923
1,WFWFW,152,1,614,Correct,1,920
1,QOQLQ,161,2,777,Correct,1,726
1,AWAQA,162,2,775,Correct,1,921
1,EAEAE,151,1,1028,Correct,1,918
1,AGAUA,161,2,597,Correct,1,704
1,YMYMY,151,1,616,Correct,1,799
1,XQXQX,152,1,697,Correct,1,856
1,SHSGS,161,2,589,Correct,1,828
1,PDPDP,11,3,660,Correct,1,842
1,ZGZGZ,13,1,691,Correct,1,861
1,OXOXO,152,1,851,Correct,1,784
1,LYLYL,153,2,670,Incorrect,1,661
1,NKNKD,225,,,Incorrect,1,666
1,GNGNG,111,1,712,Correct,1,659
1,OYOBO,161,2,641,Correct,1,661
1,SOSOS,151,1,660,Correct,1,903
1,VHVHV,152,1,649,Correct,1,807
1,OKOXO,161,2,637,Correct,1,864
1,EZEZE,151,1,705,Correct,1,920
1,LDLDL,12,3,477,Correct,1,859
2,U,5,3,4445,New Target,2,707
2,BVBEB,161,2,681,Correct,2,675
2,FBFBF,151,1,624,Correct,2,755
2,RFRFR,152,1,674,Correct,2,887
2,NBNKN,161,2,631,Correct,2,838
2,MKMNM,162,2,1155,Correct,2,663
2,QXQXQ,151,1,626,Correct,2,735
2,MQMYM,161,2,557,Correct,2,882
2,TGTPT,162,2,527,Correct,2,867
2,XOXOX,151,1,580,Correct,2,741
2,CUCUC,7,3,633,Correct,2,818
2,RFRFR,13,1,619,Correct,2,734
2,VYVSV,161,2,493,Correct,2,721
2,BEBAB,162,2,544,Correct,2,935
2,GKGQG,163,2,550,Correct,2,949
2,SCSCS,151,2,620,Incorrect,2,909
2,CTCUC,82,2,641,Incorrect,2,708
2,RCRCR,13,1,731,Correct,2,941
2,BOBXB,161,2,651,Correct,2,674
2,FMFAF,162,2,734,Correct,2,686
2,VSVDV,181,2,673,Correct,2,802
2,PWPWP,15,1,591,Correct,2,761
2,UQCKC,231,2,782,Correct,2,897
2,OCOCO,151,2,892,Incorrect,2,682
2,TNTNT,152,1,619,Correct,2,758
2,QCQGQ,161,2,716,Correct,2,804
2,WVWVW,151,1,731,Correct,2,798
2,TQTQT,152,1,571,Correct,2,684
2,FOFOF,225,1,522,Correct,2,858
2,WVWFW,161,2,629,Correct,2,671
2,SWSWS,151,1,565,Correct,2,807
2,FYFCF,161,2,670,Correct,2,733
2,SUSWS,91,3,624,Correct,2,755
2,CACHC,14,2,600,Correct,2,676
2,VDVKV,172,2,699,Correct,2,789
2,YCYCY,15,2,686,Incorrect,2,820
2,NMNTN,161,2,875,Correct,2,944
2,XOUKX,233,2,595,Correct,2,777
2,BPBPB,151,1,868,Correct,2,788
2,MRMRM,152,1,689,Correct,2,851
2,XMXMX,153,1,705,Correct,2,827
2,AUAHA,101,3,627,Correct,2,894
2,XKXEU,235,2,685,Correct,2,682
2,TFTFT,151,1,563,Correct,2,686
2,MOMDM,183,2,712,Correct,2,872
2,WYWMW,16,2,705,Correct,2,896
2,AZUZA,223,1,619,Correct,2,941
2,KEKHK,161,2,667,Correct,2,811
2,LALAL,151,3,526,Incorrect,2,746
2,CWCDC,184,2,781,Incorrect,2,688
2,SGSTS,16,2,771,Correct,2,886
2,PXPXP,151,1,756,Correct,2,777
2,GRGYG,161,2,594,Correct,2,936
2,PUPOP,111,3,742,Correct,2,703
2,RNRNR,14,1,761,Correct,2,748
2,MDMDM,195,1,727,Correct,2,949
2,KTKTK,15,1,546,Correct,2,823
2,OROKO,161,2,1023,Correct,2,945
2,UNANA,221,1,1326,Correct,2,918
2,TATAT,151,1,575,Correct,2,662
2,AWAWA,152,1,950,Incorrect,2,712
2,CTCDC,186,2,699,Incorrect,2,817
2,FCFCF,15,1,607,Correct,2,840
2,ZMZMZ,152,1,561,Correct,2,814
2,BUBUB,12,3,659,Correct,2,799
3,E,5,3,5027,New Target,3,694
3,YZYZY,151,1,527,Correct,3,823
3,VFVNV,161,2,693,Correct,3,845
3,KAKAK,151,1,596,Correct,3,904
3,TKTKT,152,1,621,Correct,3,840
3,WHWTW,161,2,620,Correct,3,919
3,QEQFQ,71,1,492,Incorrect,3,784
3,XNXNX,13,1,713,Correct,3,682
3,TXTXT,152,1,656,Correct,3,936
3,GLGNG,161,2,560,Correct,3,916
3,CUCTC,171,2,856,Correct,3,701
3,FAFQF,16,2,725,Correct,3,769
3,ZLZLZ,151,1,915,Correct,3,700
3,YZYZY,152,1,562,Correct,3,893
3,CYCYC,153,1,671,Correct,3,676
3,HUHUH,192,1,637,Correct,3,840
3,OSORO,16,2,872,Correct,3,893
3,YOYOY,151,1,560,Correct,3,737
3,CECEC,8,3,713,Correct,3,738
3,VNENV,223,1,1137,Correct,3,742
3,KQKFK,222,2,632,Correct,3,696
3,XLXLE,225,1,722,Correct,3,772
3,QUQUQ,193,1,586,Correct,3,919
3,SWSLS,16,2,516,Correct,3,744
3,NBNPN,162,2,807,Correct,3,894
3,SGSGS,151,2,758,Incorrect,3,906
3,FBFBF,152,1,645,Correct,3,690
3,PFPFP,153,1,556,Correct,3,724
3,AGASA,161,2,903,Correct,3,653
3,KEKEK,9,3,788,Correct,3,737
3,CWCOC,14,2,660,Correct,3,825
3,HXHXH,151,1,654,Correct,3,735
3,NUNZN,174,2,1092,Correct,3,743
3,QMQVQ,16,2,833,Correct,3,879
3,SQSQS,151,1,684,Correct,3,771
3,ERNFN,231,2,887,Incorrect,3,883
3,AQANA,222,2,594,Correct,3,814
3,OBOEO,102,3,675,Correct,3,802
3,SYSXS,14,2,644,Correct,3,880
3,QBQHQ,162,2,602,Correct,3,757
3,XQXQX,151,1,803,Correct,3,688
3,KUKFK,175,2,669,Correct,3,854
3,RKRKR,15,1,795,Correct,3,908
3,GFGFG,152,1,634,Correct,3,907
3,YBYVY,161,2,535,Correct,3,926
3,SPSTS,162,2,649,Correct,3,804
3,AQAQA,151,1,657,Correct,3,789
3,EPVPV,221,1,745,Correct,3,764
3,CQCEC,112,3,538,Correct,3,758
3,RFRCR,14,2,676,Correct,3,653
3,CPCVC,162,2,545,Correct,3,796
3,RXRCR,163,2,570,Correct,3,808
3,TNTLT,164,2,569,Correct,3,925
3,BSBSB,151,1,617,Correct,3,945
3,ZBZBZ,152,1,863,Correct,3,748
3,OYOUO,186,2,686,Correct,3,747
3,AKAOA,16,2,579,Correct,3,656
3,YQEWY,233,2,623,Correct,3,752
3,ZMZMZ,111,1,552,Correct,3,653
3,SWSTS,161,2,627,Correct,3,711
3,MFMQE,235,2,655,Correct,3,703
3,RSRLR,222,2,481,Correct,3,818
3,QEQWQ,121,3,894,Correct,3,780
4,K,5,3,6389,New Target,4,850
4,CACHC,161,2,853,Correct,4,799
4,RWRCR,162,2,595,Correct,4,751
4,FOFVF,163,2,601,Correct,4,677
4,LGLGL,151,1,684,Correct,4,756
4,PLPLP,152,1,671,Correct,4,888
4,NPNPN,153,1,635,Correct,4,866
4,SGSZS,161,2,617,Correct,4,901
4,DNDMD,162,2,815,Correct,4,813
4,OCOAK,235,2,652,Correct,4,772
4,VYVYV,111,1,650,Correct,4,923
4,RLRLR,152,1,670,Correct,4,705
4,DKDKD,7,3,742,Correct,4,720
4,ZLZLZ,13,1,649,Correct,4,674
4,FZFZF,152,1,627,Correct,4,674
4,CFCFC,153,1,528,Correct,4,899
4,OZOZO,154,1,527,Correct,4,661
4,XEXEX,191,1,820,Correct,4,773
4,NVNFN,16,2,620,Correct,4,864
4,AYAYA,151,1,592,Correct,4,803
4,BNBVB,161,2,725,Correct,4,729
4,AHKXA,233,2,1389,Correct,4,941
4,WFWFW,111,1,682,Correct,4,735
4,SNSNS,152,1,678,Correct,4,678
4,FKFMF,81,3,1006,Correct,4,658
4,DZDYD,14,2,752,Correct,4,903
4,GXGDG,162,2,1091,Correct,4,830
4,AYAYK,225,2,749,Incorrect,4,948
4,FPFGF,222,2,605,Correct,4,904
4,WRWRW,151,1,711,Correct,4,661
4,YPYEY,182,2,680,Correct,4,833
4,SQSQS,15,1,619,Correct,4,691
4,WZWPW,161,2,684,Correct,4,810
4,CKCKC,9,3,714,Correct,4,753
4,BWBVB,14,2,745,Correct,4,915
4,HMHMH,151,1,781,Correct,4,694
4,VEVNV,173,2,943,Correct,4,757
4,GMGVG,16,2,700,Correct,4,924
4,XHXKX,102,3,695,Correct,4,876
4,QXQRQ,14,2,764,Correct,4,650
4,LQLQL,151,1,722,Correct,4,884
4,ALELA,223,1,638,Correct,4,922
4,TPTKT,222,3,710,Incorrect,4,795
4,GEGPG,174,2,691,Correct,4,862
4,ZNZNZ,15,1,805,Correct,4,721
4,YZYZY,152,1,575,Correct,4,925
4,SYSYS,153,1,683,Correct,4,917
4,ZSZSZ,221,1,635,Correct,4,949
4,LALGL,222,2,639,Correct,4,730
4,CYCTC,162,2,628,Correct,4,750
4,WEWEW,195,1,637,Correct,4,760
4,CHCSC,16,2,598,Correct,4,751
4,GWGXG,162,2,602,Correct,4,840
4,FGFGF,151,1,605,Correct,4,838
4,QWQKQ,112,3,746,Correct,4,693
4,OQOFO,14,2,718,Correct,4,659
4,PMPEP,186,2,677,Correct,4,927
4,WBWPW,16,2,747,Correct,4,789
4,KCDHD,231,2,756,Correct,4,910
4,RSRWR,222,2,509,Correct,4,704
4,HGHGH,151,1,1043,Correct,4,765
4,SKSKS,12,3,552,Correct,4,706
5,L,5,3,3765,New Target,5,847
5,PDPDP,151,1,799,Correct,5,804
5,WAWAW,152,1,597,Correct,5,885
5,HWHWH,153,1,816,Correct,5,776
5,SHSHS,154,1,582,Correct,5,662
5,BRBWB,161,2,659,Correct,5,710
5,FPFBF,162,2,632,Correct,5,650
5,GAGAG,151,1,772,Correct,5,681
5,QVQGQ,161,2,687,Correct,5,852
5,CLCLC,7,3,1156,Correct,5,845
5,XWXWX,13,1,864,Correct,5,894
5,AUAUA,152,2,1053,Incorrect,5,776
5,CKCKC,191,1,1306,Correct,5,824
5,FNFCF,16,2,606,Correct,5,819
5,UHUQU,162,2,707,Correct,5,713
5,FZFZF,151,1,556,Correct,5,720
5,THLHT,223,1,687,Correct,5,801
5,CUCLC,82,3,1375,Correct,5,911
5,BSBSB,13,1,597,Correct,5,911
5,FDFBF,161,2,796,Correct,5,790
5,LXRXR,221,1,779,Correct,5,765
5,ZOZNZ,222,2,676,Correct,5,654
5,UZUZU,151,1,565,Correct,5,934
5,AQATA,161,2,954,Correct,5,691
5,UNUPU,162,2,896,Correct,5,920
5,RVRKR,182,2,663,Correct,5,859
5,URURU,15,1,654,Correct,5,694
5,VLVLV,9,3,591,Correct,5,769
5,DXDVD,14,2,584,Correct,5,664
5,PZPZP,151,1,691,Correct,5,778
5,LXUMU,231,2,547,Correct,5,681
5,AKADA,173,2,1148,Incorrect,5,692
5,HYHYH,15,1,776,Correct,5,929
5,AVAVA,152,2,619,Incorrect,5,652
5,TUTUT,153,1,937,Correct,5,914
5,XYXWX,161,2,619,Correct,5,938
5,TKTDT,174,2,826,Correct,5,785
5,NXNYN,16,1,911,Incorrect,5,663
5,USUCU,162,2,649,Correct,5,845
5,ZMZMZ,151,1,611,Correct,5,681
5,WRWAW,161,2,674,Correct,5,925
5,GWGXG,162,2,690,Correct,5,766
5,MUMYL,235,2,1098,Correct,5,937
5,CNCNC,111,1,701,Correct,5,820
5,RLRLR,10,3,774,Correct,5,909
5,UAUWU,14,2,1096,Correct,5,720
5,FXLRF,233,2,1506,Correct,5,886
5,PFPFP,111,1,671,Correct,5,887
5,HPHPH,152,1,821,Correct,5,733
5,GKGKG,195,1,848,Correct,5,788
5,ZUZTZ,16,2,835,Correct,5,836
5,AVASA,162,2,716,Correct,5,911
5,PRPRP,151,1,896,Correct,5,838
5,YPYPY,152,1,580,Correct,5,836
5,ZLZOZ,111,2,712,Incorrect,5,768
5,WMWSW,14,2,762,Correct,5,795
5,RZRXR,162,2,764,Correct,5,759
5,QWQWQ,151,1,649,Correct,5,949
5,ZKZKZ,196,1,986,Correct,5,929
5,CVCVL,225,1,885,Incorrect,5,719
5,NMNMN,111,1,870,Correct,5,700
5,TRTGT,161,2,692,Correct,5,743
5,CTCTC,151,1,608,Correct,5,797
5,RKRLR,122,3,775,Correct,5,840
6,B,5,3,3088,New Target,6,880
6,YMYGY,161,2,962,Correct,6,702
6,HUHRH,162,2,599,Correct,6,945
6,WHWHW,151,1,982,Correct,6,807
6,MGMRM,161,2,1184,Correct,6,738
6,ZVZWZ,162,2,745,Correct,6,937
6,RCRTR,163,2,543,Correct,6,752
6,DSDRD,164,2,624,Correct,6,865
6,VTBDV,233,2,827,Correct,6,913
6,DSDHD,222,2,1036,Correct,6,939
6,QEQEQ,151,1,767,Correct,6,774
6,XOXQX,161,2,764,Correct,6,727
6,RARBR,72,2,608,Incorrect,6,748
6,GMGMG,13,1,686,Correct,6,944
6,ELERE,171,2,869,Correct,6,655
6,HZHUH,16,2,889,Correct,6,859
6,RHRVR,162,2,795,Correct,6,930
6,YBYBY,8,3,471,Correct,6,810
6,PYPVP,14,2,773,Correct,6,779
6,TLTLT,192,1,1218,Correct,6,930
6,QTQTQ,15,1,562,Correct,6,785
6,NXNVN,161,2,594,Correct,6,911
6,QNQNQ,151,1,735,Correct,6,718
6,FUFHF,161,2,825,Correct,6,656
6,YVYFB,235,2,753,Incorrect,6,843
6,WQWSW,222,2,643,Correct,6,814
6,HNHLH,193,2,722,Incorrect,6,862
6,OSOTO,16,2,661,Correct,6,695
6,GWGOG,162,2,587,Correct,6,790
6,UBUBU,9,3,782,Correct,6,800
6,CWCWC,13,1,647,Correct,6,871
6,OCOEO,161,2,601,Correct,6,746
6,MNMNM,151,1,825,Correct,6,832
6,XHXLX,184,2,616,Correct,6,801
6,AYAYA,15,1,783,Correct,6,790
6,FUFAF,161,2,885,Correct,6,948
6,ANAQA,162,2,616,Correct,6,850
6,BUPWP,231,2,937,Correct,6,863
6,WSWSW,111,1,1135,Correct,6,946
6,FRFRF,152,1,706,Correct,6,801
6,AUAUA,153,1,608,Correct,6,866
6,GMGCG,161,2,660,Correct,6,841
6,HLHWH,175,2,689,Correct,6,652
6,PQBQP,223,1,853,Correct,6,722
6,AZABA,102,3,762,Correct,6,917
6,CWCVC,14,2,561,Correct,6,690
6,FAFAF,151,1,725,Correct,6,943
6,VMVSV,161,2,797,Correct,6,742
6,GBGBG,11,3,682,Correct,6,801
6,FOFNF,14,2,642,Correct,6,759
6,DSDSD,151,1,693,Correct,6,758
6,YDYDY,152,1,579,Correct,6,913
6,FOFOF,153,1,682,Correct,6,824
6,CHCHB,225,1,637,Correct,6,650
6,ZCZCZ,111,1,658,Correct,6,737
6,DZDGD,161,2,627,Correct,6,696
6,MLMEM,176,2,960,Correct,6,666
6,PXPXP,15,1,606,Correct,6,898
6,QYQYQ,152,1,591,Correct,6,862
6,GRGCG,161,2,640,Correct,6,927
6,QVQVQ,151,1,888,Correct,6,798
6,XYXNX,161,2,625,Correct,6,872
6,BHMHM,221,1,1028,Correct,6,688
6,CBCBC,12,3,658,Correct,6,670
7,W,5,3,2816,New Target,7,882
7,QKQKQ,151,1,1005,Correct,7,716
7,DUDQD,161,2,850,Correct,7,664
7,OKOKO,151,1,683,Correct,7,744
7,EOEOE,152,1,674,Correct,7,918
7,URUPU,161,2,1099,Correct,7,914
7,GMGAG,162,2,662,Correct,7,812
7,HVWDH,233,2,625,Correct,7,727
7,MHMHM,111,1,905,Correct,7,812
7,YXYVY,161,2,911,Correct,7,936
7,FNFNF,151,1,570,Correct,7,894
7,AWAWA,7,3,579,Correct,7,718
7,ZAZAZ,13,1,614,Correct,7,766
7,OYOYO,152,1,524,Correct,7,810
7,SQSQS,153,1,567,Correct,7,734
7,OSOSO,154,1,459,Correct,7,941
7,FCFBF,181,2,489,Correct,7,700
7,EUEUE,15,1,969,Correct,7,685
7,CYCGC,161,2,671,Correct,7,807
7,SZSUS,162,2,602,Correct,7,864
7,OFOFO,151,1,544,Correct,7,776
7,RVRUR,161,2,550,Correct,7,722
7,ZBZBZ,192,1,478,Correct,7,823
7,UCUTU,16,2,658,Correct,7,914
7,NWNWN,8,3,592,Correct,7,947
7,XNXUX,14,2,547,Correct,7,870
7,CXCNC,162,2,639,Correct,7,744
7,AUAUW,225,1,1055,Correct,7,824
7,HEHEH,111,1,610,Correct,7,797
7,UFWFU,223,2,730,Incorrect,7,741
7,HVHEH,222,2,951,Correct,7,780
7,YBYBY,193,1,893,Correct,7,915
7,OYOYO,15,1,869,Correct,7,870
7,TMTWT,91,3,693,Correct,7,700
7,HTHTH,13,1,585,Correct,7,843
7,UHUHU,152,1,907,Correct,7,900
7,EVEBE,184,2,566,Incorrect,7,897
7,HZHMH,16,2,679,Correct,7,935
7,VHVCV,162,2,810,Correct,7,737
7,WAGDG,231,2,1160,Correct,7,654
7,PFPFP,111,1,849,Correct,7,928
7,OQOQO,152,1,853,Correct,7,764
7,TWTWT,10,1,494,Incorrect,7,724
7,VKVDV,14,2,891,Correct,7,821
7,WPAPA,221,1,1173,Correct,7,902
7,HBHBH,195,1,912,Correct,7,918
7,ZMZAZ,16,2,653,Correct,7,655
7,SYSYS,151,1,1025,Correct,7,667
7,FZFXF,161,2,632,Correct,7,747
7,SMSMS,151,1,567,Correct,7,846
7,XOXOX,152,1,638,Correct,7,696
7,FWFWF,11,3,610,Correct,7,845
7,ENEBE,186,1,791,Incorrect,7,793
7,ZVZGZ,16,2,523,Correct,7,666
7,EZEZE,151,1,592,Correct,7,905
7,TOTEW,235,2,1140,Correct,7,949
7,PDPDP,111,1,666,Correct,7,914
7,TKTWT,122,3,776,Correct,7,755
