Trial No,Stimulus,Trigger,Response,Response Time(ms),Correct,Block,Fixation Duration
Practice
OT Practice
1,SKSKS,15,1,880,Correct,0,861
1,DLDUD,16,2,604,Correct,0,668
1,PDPGP,16,2,676,Correct,0,739
1,MWMWM,15,1,888,Correct,0,941
1,FTFTF,15,1,807,Correct,0,891
1,AXAMA,16,2,705,Correct,0,744
1,RYRGR,16,2,747,Correct,0,743
1,DODOD,15,1,599,Correct,0,681
1,QTQAQ,16,2,643,Correct,0,903
1,YEYEY,15,1,750,Correct,0,667
AT Practice
1,TKTKT,15,1,673,Correct,0,898
1,SLSUS,16,2,662,Correct,0,936
1,VBVGV,7,3,909,Correct,0,889
1,XWXBX,7,3,803,Correct,0,656
1,ATATA,15,1,604,Correct,0,939
1,HXBMH,16,2,997,Correct,0,947
1,TBTBT,7,3,836,Correct,0,766
1,UOUOU,15,1,702,Correct,0,862
1,BTWAW,16,2,983,Correct,0,894
1,RBRER,7,3,857,Correct,0,808
Trials
1,D,5,3,645,New Target,1,772
1,BYBYB,151,,,Incorrect,1,840
1,FBFBF,152,,,Incorrect,1,699
1,RKRKR,153,,,Incorrect,1,780
1,QSQNQ,161,,,Incorrect,1,823
1,CTCFC,162,,,Incorrect,1,763
1,PDPNP,71,,,Incorrect,1,913
1,OPOFO,14,,,Incorrect,1,696
1,HLHNH,162,,,Incorrect,1,853
1,MFMFM,151,,,Incorrect,1,921
1,BTBTB,152,,,Incorrect,1,870
1,MCMPD,235,,,Incorrect,1,796
1,BMBFB,222,,,Incorrect,1,736
1,NTNZN,162,,,Incorrect,1,701
1,MXMRM,163,,,Incorrect,1,756
1,APABA,164,,,Incorrect,1,919
1,FMDMF,223,,,Incorrect,1,931
1,QPQPQ,111,,,Incorrect,1,890
1,VQVMV,161,,,Incorrect,1,667
1,RERPR,162,,,Incorrect,1,718
1,KVKVK,151,,,Incorrect,1,748
1,AKAHA,161,,,Incorrect,1,663
1,VDVDV,8,,,Incorrect,1,885
1,DUGUG,221,,,Incorrect,1,841
1,AFAFA,111,,,Incorrect,1,724
1,GYGYG,152,,,Incorrect,1,671
1,VXVSV,161,,,Incorrect,1,838
1,DOWGW,231,,,Incorrect,1,880
1,QYQYQ,111,,,Incorrect,1,929
1,ODONO,91,,,Incorrect,1,762
1,MSMSM,13,,,Incorrect,1,826
1,GYGYG,152,,,Incorrect,1,677
1,UMUMU,153,,,Incorrect,1,885
1,BZBZB,154,,,Incorrect,1,748
1,NTNBN,161,,,Incorrect,1,816
1,GNDYG,233,,,Incorrect,1,882
1,OCOSO,222,,,Incorrect,1,765
1,BHBFB,162,,,Incorrect,1,800
1,QCQBQ,163,,,Incorrect,1,814
1,LQLQL,151,,,Incorrect,1,736
1,ZDZDZ,10,,,Incorrect,1,739
1,QNQZQ,14,,,Incorrect,1,653
1,CSCYC,162,,,Incorrect,1,943
1,RCRLR,163,,,Incorrect,1,870
1,FRFRF,151,,,Incorrect,1,892
1,WFWFW,152,,,Incorrect,1,900
1,QOQLQ,161,,,Incorrect,1,879
1,AWAQA,162,,,Incorrect,1,654
1,EAEAE,151,,,Incorrect,1,798
1,AGAUA,161,,,Incorrect,1,825
1,YMYMY,151,,,Incorrect,1,708
1,XQXQX,152,,,Incorrect,1,941
1,SHSGS,161,,,Incorrect,1,670
1,PDPDP,11,,,Incorrect,1,652
1,ZGZGZ,13,,,Incorrect,1,661
1,OXOXO,152,,,Incorrect,1,785
1,LYLYL,153,,,Incorrect,1,672
1,NKNKD,225,,,Incorrect,1,696
1,GNGNG,111,,,Incorrect,1,923
1,OYOBO,161,,,Incorrect,1,712
1,SOSOS,151,,,Incorrect,1,835
1,VHVHV,152,,,Incorrect,1,863
1,OKOXO,161,,,Incorrect,1,715
1,EZEZE,151,,,Incorrect,1,790
1,LDLDL,12,,,Incorrect,1,935
2,U,5,3,1219,New Target,2,833
2,BVBEB,161,,,Incorrect,2,879
2,FBFBF,151,,,Incorrect,2,914
2,RFRFR,152,,,Incorrect,2,940
2,NBNKN,161,,,Incorrect,2,682
2,MKMNM,162,,,Incorrect,2,853
2,QXQXQ,151,,,Incorrect,2,917
2,MQMYM,161,,,Incorrect,2,944
2,TGTPT,162,,,Incorrect,2,731
2,XOXOX,151,,,Incorrect,2,837
2,CUCUC,7,,,Incorrect,2,910
2,RFRFR,13,,,Incorrect,2,804
2,VYVSV,161,,,Incorrect,2,920
2,BEBAB,162,,,Incorrect,2,673
2,GKGQG,163,,,Incorrect,2,670
2,SCSCS,151,,,Incorrect,2,695
2,CTCUC,82,,,Incorrect,2,713
2,RCRCR,13,,,Incorrect,2,785
2,BOBXB,161,,,Incorrect,2,838
2,FMFAF,162,,,Incorrect,2,726
2,VSVDV,181,,,Incorrect,2,671
2,PWPWP,15,,,Incorrect,2,821
2,UQCKC,231,,,Incorrect,2,739
2,OCOCO,151,,,Incorrect,2,912
2,TNTNT,152,,,Incorrect,2,744
2,QCQGQ,161,,,Incorrect,2,941
2,WVWVW,151,,,Incorrect,2,844
2,TQTQT,152,,,Incorrect,2,834
2,FOFOF,225,,,Incorrect,2,732
2,WVWFW,161,,,Incorrect,2,671
2,SWSWS,151,,,Incorrect,2,750
2,FYFCF,161,,,Incorrect,2,929
2,SUSWS,91,,,Incorrect,2,941
2,CACHC,14,,,Incorrect,2,950
2,VDVKV,172,,,Incorrect,2,801
2,YCYCY,15,,,Incorrect,2,790
2,NMNTN,161,,,Incorrect,2,844
2,XOUKX,233,,,Incorrect,2,832
2,BPBPB,151,,,Incorrect,2,872
2,MRMRM,152,,,Incorrect,2,893
2,XMXMX,153,,,Incorrect,2,818
2,AUAHA,101,,,Incorrect,2,811
2,XKXEU,235,,,Incorrect,2,731
2,TFTFT,151,,,Incorrect,2,858
2,MOMDM,183,,,Incorrect,2,767
2,WYWMW,16,,,Incorrect,2,897
2,AZUZA,223,,,Incorrect,2,677
2,KEKHK,161,,,Incorrect,2,823
2,LALAL,151,,,Incorrect,2,801
2,CWCDC,184,,,Incorrect,2,858
2,SGSTS,16,,,Incorrect,2,786
2,PXPXP,151,,,Incorrect,2,709
2,GRGYG,161,,,Incorrect,2,799
2,PUPOP,111,,,Incorrect,2,708
2,RNRNR,14,,,Incorrect,2,792
2,MDMDM,195,,,Incorrect,2,655
2,KTKTK,15,,,Incorrect,2,769
2,OROKO,161,,,Incorrect,2,684
2,UNANA,221,,,Incorrect,2,761
2,TATAT,151,,,Incorrect,2,940
2,AWAWA,152,,,Incorrect,2,941
2,CTCDC,186,,,Incorrect,2,655
2,FCFCF,15,,,Incorrect,2,757
2,ZMZMZ,152,,,Incorrect,2,949
2,BUBUB,12,,,Incorrect,2,663
3,E,5,3,3316,New Target,3,694
3,YZYZY,151,,,Incorrect,3,809
3,VFVNV,161,,,Incorrect,3,657
3,KAKAK,151,,,Incorrect,3,658
3,TKTKT,152,,,Incorrect,3,652
3,WHWTW,161,,,Incorrect,3,781
3,QEQFQ,71,,,Incorrect,3,938
3,XNXNX,13,,,Incorrect,3,713
3,TXTXT,152,,,Incorrect,3,855
3,GLGNG,161,,,Incorrect,3,736
3,CUCTC,171,,,Incorrect,3,748
3,FAFQF,16,,,Incorrect,3,767
3,ZLZLZ,151,,,Incorrect,3,764
3,YZYZY,152,,,Incorrect,3,822
3,CYCYC,153,,,Incorrect,3,772
3,HUHUH,192,,,Incorrect,3,869
3,OSORO,16,,,Incorrect,3,718
3,YOYOY,151,,,Incorrect,3,893
3,CECEC,8,,,Incorrect,3,887
3,VNENV,223,,,Incorrect,3,657
3,KQKFK,222,,,Incorrect,3,894
3,XLXLE,225,,,Incorrect,3,671
3,QUQUQ,193,,,Incorrect,3,697
3,SWSLS,16,,,Incorrect,3,919
3,NBNPN,162,,,Incorrect,3,664
3,SGSGS,151,,,Incorrect,3,846
3,FBFBF,152,,,Incorrect,3,910
3,PFPFP,153,,,Incorrect,3,886
3,AGASA,161,,,Incorrect,3,847
3,KEKEK,9,,,Incorrect,3,801
3,CWCOC,14,,,Incorrect,3,796
3,HXHXH,151,,,Incorrect,3,779
3,NUNZN,174,,,Incorrect,3,836
3,QMQVQ,16,,,Incorrect,3,660
3,SQSQS,151,,,Incorrect,3,891
3,ERNFN,231,,,Incorrect,3,725
3,AQANA,222,,,Incorrect,3,913
3,OBOEO,102,,,Incorrect,3,812
3,SYSXS,14,,,Incorrect,3,827
3,QBQHQ,162,,,Incorrect,3,667
3,XQXQX,151,,,Incorrect,3,867
3,KUKFK,175,,,Incorrect,3,901
3,RKRKR,15,,,Incorrect,3,699
3,GFGFG,152,,,Incorrect,3,805
3,YBYVY,161,,,Incorrect,3,846
3,SPSTS,162,,,Incorrect,3,806
3,AQAQA,151,,,Incorrect,3,656
3,EPVPV,221,,,Incorrect,3,904
3,CQCEC,112,,,Incorrect,3,693
3,RFRCR,14,,,Incorrect,3,813
3,CPCVC,162,,,Incorrect,3,781
3,RXRCR,163,,,Incorrect,3,865
3,TNTLT,164,,,Incorrect,3,701
3,BSBSB,151,,,Incorrect,3,736
3,ZBZBZ,152,,,Incorrect,3,744
3,OYOUO,186,,,Incorrect,3,918
3,AKAOA,16,,,Incorrect,3,912
3,YQEWY,233,,,Incorrect,3,853
3,ZMZMZ,111,,,Incorrect,3,707
3,SWSTS,161,,,Incorrect,3,876
3,MFMQE,235,,,Incorrect,3,728
3,RSRLR,222,,,Incorrect,3,893
3,QEQWQ,121,,,Incorrect,3,874
4,K,5,3,373,New Target,4,863
4,CACHC,161,,,Incorrect,4,810
4,RWRCR,162,,,Incorrect,4,912
4,FOFVF,163,,,Incorrect,4,864
4,LGLGL,151,,,Incorrect,4,697
4,PLPLP,152,,,Incorrect,4,927
4,NPNPN,153,,,Incorrect,4,707
4,SGSZS,161,,,Incorrect,4,698
4,DNDMD,162,,,Incorrect,4,845
4,OCOAK,235,,,Incorrect,4,749
4,VYVYV,111,,,Incorrect,4,865
4,RLRLR,152,,,Incorrect,4,717
4,DKDKD,7,,,Incorrect,4,861
4,ZLZLZ,13,,,Incorrect,4,704
4,FZFZF,152,,,Incorrect,4,788
4,CFCFC,153,,,Incorrect,4,771
4,OZOZO,154,,,Incorrect,4,929
4,XEXEX,191,,,Incorrect,4,698
4,NVNFN,16,,,Incorrect,4,892
4,AYAYA,151,,,Incorrect,4,882
4,BNBVB,161,,,Incorrect,4,777
4,AHKXA,233,,,Incorrect,4,784
4,WFWFW,111,,,Incorrect,4,879
4,SNSNS,152,,,Incorrect,4,834
4,FKFMF,81,,,Incorrect,4,795
4,DZDYD,14,,,Incorrect,4,947
4,GXGDG,162,,,Incorrect,4,662
4,AYAYK,225,,,Incorrect,4,679
4,FPFGF,222,,,Incorrect,4,813
4,WRWRW,151,,,Incorrect,4,674
4,YPYEY,182,,,Incorrect,4,729
4,SQSQS,15,,,Incorrect,4,819
4,WZWPW,161,,,Incorrect,4,690
4,CKCKC,9,,,Incorrect,4,826
4,BWBVB,14,,,Incorrect,4,900
4,HMHMH,151,,,Incorrect,4,845
4,VEVNV,173,,,Incorrect,4,897
4,GMGVG,16,,,Incorrect,4,656
4,XHXKX,102,,,Incorrect,4,721
4,QXQRQ,14,,,Incorrect,4,663
4,LQLQL,151,,,Incorrect,4,800
4,ALELA,223,,,Incorrect,4,676
4,TPTKT,222,,,Incorrect,4,781
4,GEGPG,174,,,Incorrect,4,744
4,ZNZNZ,15,,,Incorrect,4,789
4,YZYZY,152,,,Incorrect,4,827
4,SYSYS,153,,,Incorrect,4,828
4,ZSZSZ,221,,,Incorrect,4,682
4,LALGL,222,,,Incorrect,4,753
4,CYCTC,162,,,Incorrect,4,780
4,WEWEW,195,,,Incorrect,4,834
4,CHCSC,16,,,Incorrect,4,858
4,GWGXG,162,,,Incorrect,4,698
4,FGFGF,151,,,Incorrect,4,856
4,QWQKQ,112,,,Incorrect,4,891
4,OQOFO,14,,,Incorrect,4,840
4,PMPEP,186,,,Incorrect,4,799
4,WBWPW,16,,,Incorrect,4,944
4,KCDHD,231,,,Incorrect,4,921
4,RSRWR,222,,,Incorrect,4,881
4,HGHGH,151,,,Incorrect,4,893
4,SKSKS,12,,,Incorrect,4,853
5,L,5,3,1439,New Target,5,847
5,PDPDP,151,,,Incorrect,5,862
5,WAWAW,152,,,Incorrect,5,719
5,HWHWH,153,,,Incorrect,5,890
5,SHSHS,154,,,Incorrect,5,748
5,BRBWB,161,,,Incorrect,5,759
5,FPFBF,162,,,Incorrect,5,877
5,GAGAG,151,,,Incorrect,5,748
5,QVQGQ,161,,,Incorrect,5,890
5,CLCLC,7,,,Incorrect,5,787
5,XWXWX,13,,,Incorrect,5,913
5,AUAUA,152,,,Incorrect,5,760
5,CKCKC,191,,,Incorrect,5,855
5,FNFCF,16,,,Incorrect,5,723
5,UHUQU,162,,,Incorrect,5,915
5,FZFZF,151,,,Incorrect,5,700
5,THLHT,223,,,Incorrect,5,853
5,CUCLC,82,,,Incorrect,5,798
5,BSBSB,13,,,Incorrect,5,715
5,FDFBF,161,,,Incorrect,5,659
5,LXRXR,221,,,Incorrect,5,881
5,ZOZNZ,222,,,Incorrect,5,692
5,UZUZU,151,,,Incorrect,5,730
5,AQATA,161,,,Incorrect,5,931
5,UNUPU,162,,,Incorrect,5,798
5,RVRKR,182,,,Incorrect,5,705
5,URURU,15,,,Incorrect,5,864
5,VLVLV,9,,,Incorrect,5,908
5,DXDVD,14,,,Incorrect,5,651
5,PZPZP,151,,,Incorrect,5,876
5,LXUMU,231,,,Incorrect,5,874
5,AKADA,173,,,Incorrect,5,889
5,HYHYH,15,,,Incorrect,5,774
5,AVAVA,152,,,Incorrect,5,815
5,TUTUT,153,,,Incorrect,5,716
5,XYXWX,161,,,Incorrect,5,829
5,TKTDT,174,,,Incorrect,5,689
5,NXNYN,16,,,Incorrect,5,805
5,USUCU,162,,,Incorrect,5,753
5,ZMZMZ,151,,,Incorrect,5,680
5,WRWAW,161,,,Incorrect,5,844
5,GWGXG,162,,,Incorrect,5,682
5,MUMYL,235,,,Incorrect,5,939
5,CNCNC,111,,,Incorrect,5,919
5,RLRLR,10,,,Incorrect,5,871
5,UAUWU,14,,,Incorrect,5,799
5,FXLRF,233,,,Incorrect,5,768
5,PFPFP,111,,,Incorrect,5,822
5,HPHPH,152,,,Incorrect,5,702
5,GKGKG,195,,,Incorrect,5,906
5,ZUZTZ,16,,,Incorrect,5,691
5,AVASA,162,,,Incorrect,5,846
5,PRPRP,151,,,Incorrect,5,927
5,YPYPY,152,,,Incorrect,5,916
5,ZLZOZ,111,,,Incorrect,5,948
5,WMWSW,14,,,Incorrect,5,836
5,RZRXR,162,,,Incorrect,5,838
5,QWQWQ,151,,,Incorrect,5,864
5,ZKZKZ,196,,,Incorrect,5,918
5,CVCVL,225,,,Incorrect,5,685
5,NMNMN,111,,,Incorrect,5,871
5,TRTGT,161,,,Incorrect,5,781
5,CTCTC,151,,,Incorrect,5,860
5,RKRLR,122,,,Incorrect,5,935
6,B,5,3,1057,New Target,6,718
6,YMYGY,161,,,Incorrect,6,808
6,HUHRH,162,,,Incorrect,6,830
6,WHWHW,151,,,Incorrect,6,944
6,MGMRM,161,,,Incorrect,6,932
6,ZVZWZ,162,,,Incorrect,6,936
6,RCRTR,163,,,Incorrect,6,800
6,DSDRD,164,,,Incorrect,6,887
6,VTBDV,233,,,Incorrect,6,680
6,DSDHD,222,,,Incorrect,6,902
6,QEQEQ,151,,,Incorrect,6,792
6,XOXQX,161,,,Incorrect,6,866
6,RARBR,72,,,Incorrect,6,926
6,GMGMG,13,,,Incorrect,6,757
6,ELERE,171,,,Incorrect,6,823
6,HZHUH,16,,,Incorrect,6,743
6,RHRVR,162,,,Incorrect,6,805
6,YBYBY,8,,,Incorrect,6,950
6,PYPVP,14,,,Incorrect,6,805
6,TLTLT,192,,,Incorrect,6,736
6,QTQTQ,15,,,Incorrect,6,795
6,NXNVN,161,,,Incorrect,6,938
6,QNQNQ,151,,,Incorrect,6,781
6,FUFHF,161,,,Incorrect,6,938
6,YVYFB,235,,,Incorrect,6,899
6,WQWSW,222,,,Incorrect,6,905
6,HNHLH,193,,,Incorrect,6,820
6,OSOTO,16,,,Incorrect,6,690
6,GWGOG,162,,,Incorrect,6,849
6,UBUBU,9,,,Incorrect,6,921
6,CWCWC,13,,,Incorrect,6,924
6,OCOEO,161,,,Incorrect,6,852
6,MNMNM,151,,,Incorrect,6,929
6,XHXLX,184,,,Incorrect,6,738
6,AYAYA,15,,,Incorrect,6,842
6,FUFAF,161,,,Incorrect,6,791
6,ANAQA,162,,,Incorrect,6,676
6,BUPWP,231,,,Incorrect,6,749
6,WSWSW,111,,,Incorrect,6,861
6,FRFRF,152,,,Incorrect,6,912
6,AUAUA,153,,,Incorrect,6,776
6,GMGCG,161,,,Incorrect,6,836
6,HLHWH,175,,,Incorrect,6,850
6,PQBQP,223,,,Incorrect,6,743
6,AZABA,102,,,Incorrect,6,893
6,CWCVC,14,,,Incorrect,6,726
6,FAFAF,151,,,Incorrect,6,923
6,VMVSV,161,,,Incorrect,6,705
6,GBGBG,11,,,Incorrect,6,901
6,FOFNF,14,,,Incorrect,6,670
6,DSDSD,151,,,Incorrect,6,862
6,YDYDY,152,,,Incorrect,6,684
6,FOFOF,153,,,Incorrect,6,669
6,CHCHB,225,,,Incorrect,6,817
6,ZCZCZ,111,,,Incorrect,6,767
6,DZDGD,161,,,Incorrect,6,663
6,MLMEM,176,,,Incorrect,6,723
6,PXPXP,15,,,Incorrect,6,810
6,QYQYQ,152,,,Incorrect,6,895
6,GRGCG,161,,,Incorrect,6,842
6,QVQVQ,151,,,Incorrect,6,861
6,XYXNX,161,,,Incorrect,6,818
6,BHMHM,221,,,Incorrect,6,783
6,CBCBC,12,,,Incorrect,6,924
7,W,5,3,1251,New Target,7,885
7,QKQKQ,151,,,Incorrect,7,928
7,DUDQD,161,,,Incorrect,7,791
7,OKOKO,151,,,Incorrect,7,752
7,EOEOE,152,,,Incorrect,7,937
7,URUPU,161,,,Incorrect,7,792
7,GMGAG,162,,,Incorrect,7,774
7,HVWDH,233,,,Incorrect,7,805
7,MHMHM,111,,,Incorrect,7,657
7,YXYVY,161,,,Incorrect,7,789
7,FNFNF,151,,,Incorrect,7,900
7,AWAWA,7,,,Incorrect,7,704
7,ZAZAZ,13,,,Incorrect,7,759
7,OYOYO,152,,,Incorrect,7,926
7,SQSQS,153,,,Incorrect,7,877
7,OSOSO,154,,,Incorrect,7,920
7,FCFBF,181,,,Incorrect,7,809
7,EUEUE,15,,,Incorrect,7,802
7,CYCGC,161,,,Incorrect,7,757
7,SZSUS,162,,,Incorrect,7,848
7,OFOFO,151,,,Incorrect,7,835
7,RVRUR,161,,,Incorrect,7,843
7,ZBZBZ,192,,,Incorrect,7,759
7,UCUTU,16,,,Incorrect,7,677
7,NWNWN,8,,,Incorrect,7,696
7,XNXUX,14,,,Incorrect,7,851
7,CXCNC,162,,,Incorrect,7,868
7,AUAUW,225,,,Incorrect,7,793
7,HEHEH,111,,,Incorrect,7,845
7,UFWFU,223,,,Incorrect,7,883
7,HVHEH,222,,,Incorrect,7,796
7,YBYBY,193,,,Incorrect,7,682
7,OYOYO,15,,,Incorrect,7,878
7,TMTWT,91,,,Incorrect,7,770
7,HTHTH,13,,,Incorrect,7,826
7,UHUHU,152,,,Incorrect,7,815
7,EVEBE,184,,,Incorrect,7,925
7,HZHMH,16,,,Incorrect,7,694
7,VHVCV,162,,,Incorrect,7,764
7,WAGDG,231,,,Incorrect,7,832
7,PFPFP,111,,,Incorrect,7,762
7,OQOQO,152,,,Incorrect,7,762
7,TWTWT,10,,,Incorrect,7,887
7,VKVDV,14,,,Incorrect,7,921
7,WPAPA,221,,,Incorrect,7,857
7,HBHBH,195,,,Incorrect,7,862
7,ZMZAZ,16,,,Incorrect,7,743
7,SYSYS,151,,,Incorrect,7,866
7,FZFXF,161,,,Incorrect,7,939
7,SMSMS,151,,,Incorrect,7,801
7,XOXOX,152,,,Incorrect,7,720
7,FWFWF,11,,,Incorrect,7,741
7,ENEBE,186,,,Incorrect,7,684
7,ZVZGZ,16,,,Incorrect,7,674
7,EZEZE,151,,,Incorrect,7,741
7,TOTEW,235,,,Incorrect,7,874
7,PDPDP,111,,,Incorrect,7,847
7,TKTWT,122,,,Incorrect,7,886
