Trial No,Stimulus,Trigger,Response,Response Time(ms),Correct,Block,Fixation Duration
Practice
Trials
1,X,5,22,2400,New Target,1,755
1,CKCKC,151,1,1516,Correct,1,664
1,BEBCB,181,2,1307,Correct,1,755
1,OGOLO,162,2,854,Correct,1,842
1,NQNLN,163,2,864,Correct,1,929
1,THTHT,151,1,630,Correct,1,833
1,MTMUM,171,2,1153,Correct,1,758
1,QPQWQ,162,2,984,Correct,1,941
1,HXHXH,7,3,1179,Correct,1,795
1,BHBKB,171,2,1529,Incorrect,1,710
1,WOWOW,151,1,731,Correct,1,734
1,EBEBE,152,,,Incorrect,1,660
1,P,6,13,6017,New Target,1,698
1,GUGUG,151,1,1046,Correct,1,934
1,CBXBC,223,,,Incorrect,1,656
1,VLVLV,151,1,1376,Correct,1,737
1,XCDMD,231,,,Incorrect,1,662
1,QZQDQ,181,2,1101,Correct,1,746
1,WKWPW,82,3,1503,Correct,1,852
2,F,6,17,4424,New Target,2,914
2,VOVOV,151,1,838,Correct,2,780
2,YUYVY,181,2,1491,Correct,2,831
2,TPTPT,151,3,979,Incorrect,2,796
2,QRQKQ,161,2,1546,Correct,2,887
2,VGVZV,162,,,Incorrect,2,749
2,AMAVA,183,2,960,Correct,2,893
2,BFBFB,9,1,1080,Incorrect,2,831
2,QMQMQ,152,2,1182,Incorrect,2,662
2,LVLBL,161,3,828,Incorrect,2,772
2,POPOP,151,1,828,Correct,2,681
2,TPTPT,192,,,Incorrect,2,876
2,WOWOW,153,1,1348,Correct,2,710
2,EWEWE,194,1,1259,Correct,2,849
2,KNKYK,161,2,988,Correct,2,950
2,LKLKL,191,2,726,Incorrect,2,691
2,KFKTK,101,2,1362,Incorrect,2,898
2,UCUWU,162,1,984,Incorrect,2,685
2,PUPUP,191,1,602,Correct,2,906
2,DYDYD,152,1,1126,Correct,2,657
2,OLOPO,161,2,1220,Correct,2,792
2,TXTXT,121,2,1055,Correct,2,691
3,C,5,23,6037,New Target,3,818
3,ZMZMZ,151,1,967,Correct,3,655
3,BZBFB,171,2,1051,Incorrect,3,950
3,TBTKT,172,2,1096,Incorrect,3,922
3,GPGHG,163,2,1027,Correct,3,824
3,LTLTL,151,1,837,Correct,3,736
3,CXDPD,231,2,1106,Incorrect,3,708
3,BTBTB,151,1,1036,Incorrect,3,912
3,FBFLF,171,2,1152,Incorrect,3,711
3,QXQXQ,151,1,1066,Correct,3,826
3,GQGQG,192,1,1300,Correct,3,757
3,WCWCW,7,3,734,Correct,3,916
3,YMYMY,151,1,1213,Correct,3,913
3,PSPSP,152,1,745,Correct,3,847
3,VHVGV,161,2,712,Correct,3,800
3,KXCXK,223,1,1257,Correct,3,721
3,HKHKH,191,1,898,Correct,3,910
3,OWOVO,161,2,988,Correct,3,658
3,AOAQA,172,2,1249,Incorrect,3,772
3,VCVUV,81,3,1116,Correct,3,795
4,R,6,7,1895,New Target,4,757
4,PGPTP,161,,,Incorrect,4,697
4,HSHYH,162,2,1352,Correct,4,878
4,EKEKE,151,1,954,Correct,4,893
4,FXFXF,152,2,1498,Incorrect,4,938
4,NFNFN,193,1,1591,Correct,4,657
4,ORORO,9,1,1397,Incorrect,4,675
4,AYAZA,161,2,856,Incorrect,4,810
4,LTLTL,151,1,897,Correct,4,716
4,FVFXF,161,2,842,Correct,4,773
4,NSNSN,151,1,1115,Correct,4,937
4,FHFTF,161,2,852,Correct,4,939
4,QGQGQ,151,1,1010,Correct,4,676
4,BKBFB,161,2,1017,Correct,4,750
4,GWGBG,182,2,1323,Correct,4,850
4,NCNCN,111,1,717,Incorrect,4,732
5,M,5,27,3253,New Target,5,835
5,NUNDN,161,2,1431,Correct,5,793
5,ZLZLZ,151,2,1260,Incorrect,5,690
5,POPZP,181,2,752,Correct,5,700
5,RPRPR,191,1,854,Correct,5,946
5,QDQDM,225,1,1103,Correct,5,798
5,FQFQF,191,1,865,Correct,5,788
5,UFUFU,192,,,Incorrect,5,817
5,VOVZV,161,2,1072,Correct,5,718
5,BFBSB,162,1,1196,Incorrect,5,866
5,HTHDH,163,2,956,Correct,5,800
5,CECWC,164,,,Incorrect,5,918
5,FMFMF,7,2,1314,Incorrect,5,781
5,SOSOS,151,1,1271,Correct,5,791
5,ZWZRM,235,2,910,Incorrect,5,810
5,CSCQC,161,,,Incorrect,5,654
5,FLFLF,151,1,790,Correct,5,882
5,RXRAR,161,2,1045,Correct,5,833
5,UMUDU,81,2,1256,Incorrect,5,727
6,G,6,18,951227,New Target,6,653
6,AZAKA,161,2,1030,Correct,6,886
6,QFQFQ,151,2,1002,Incorrect,6,800
6,PTPTP,152,1,921,Correct,6,870
6,QSQSQ,153,1,965,Correct,6,708
6,BYBQB,181,2,957,Correct,6,828
6,LNLBL,182,2,1359,Correct,6,870
6,FOFOF,151,1,1062,Correct,6,732
6,RPRPR,152,1,1335,Correct,6,853
6,LGLGL,9,1,1330,Incorrect,6,686
6,KVKTK,161,2,1259,Correct,6,775
6,UKUBU,172,,,Incorrect,6,786
6,SMSMS,111,1,1244,Incorrect,6,667
6,RSRSR,192,1,954,Correct,6,770
6,WRWNW,171,,,Incorrect,6,878
6,PBPGP,102,2,1097,Incorrect,6,865
6,RLRLR,151,1,1143,Correct,6,794
6,UYUYU,152,1,953,Correct,6,889
6,RBRBR,153,1,1164,Correct,6,916
6,ESERE,181,2,878,Correct,6,659
6,LNLNL,151,1,1065,Correct,6,917
6,TSTMT,121,2,1037,Correct,6,716
7,S,5,15,5656,New Target,7,652
7,ZEZNZ,161,20,845,Incorrect,7,662
7,RWRAR,162,2,1462,Correct,7,696
7,DHDOD,163,2,773,Correct,7,871
7,RBRDR,184,2,1080,Correct,7,659
7,DMDND,165,2,841,Correct,7,736
7,BCBDB,186,2,1249,Correct,7,939
7,AZABA,187,,,Incorrect,7,659
7,MYMYM,151,,,Incorrect,7,806
7,FCFSF,72,2,1135,Incorrect,7,822
7,QRQMQ,161,2,1385,Correct,7,811
7,ANANA,151,1,816,Correct,7,727
7,QAQAQ,192,1,969,Correct,7,745
7,HEHEH,153,1,762,Correct,7,875
7,FHFHF,194,1,928,Correct,7,690
7,YBSEY,233,2,893,Correct,7,707
7,OQOQO,151,1,952,Correct,7,658
7,LCLVL,161,2,855,Correct,7,669
7,ESESE,8,3,876,Correct,7,875
8,P,6,13,1854,New Target,8,830
8,XAXAX,151,1,1009,Correct,8,721
8,FVFMF,161,2,1172,Correct,8,814
8,RWRWR,151,1,956,Correct,8,806
8,DRDOD,171,2,696,Incorrect,8,828
8,GUGUG,151,1,729,Correct,8,715
8,NANAN,152,1,851,Correct,8,702
8,ENEVE,171,2,858,Incorrect,8,764
8,AMASA,162,1,614,Incorrect,8,781
8,DEDED,151,1,717,Correct,8,837
8,ULULU,152,1,714,Correct,8,815
8,TQTPT,92,2,820,Incorrect,8,825
8,LCLTL,182,2,690,Correct,8,896
8,VSVSV,111,1,676,Incorrect,8,656
8,ABABA,152,1,1571,Correct,8,794
8,QLQTQ,161,2,794,Correct,8,925
8,VUVUV,151,1,840,Correct,8,826
8,WRWCW,161,2,934,Correct,8,680
8,EWEWE,191,1,762,Correct,8,913
8,FOFOF,152,1,720,Correct,8,872
8,BPBPB,103,3,1384,Correct,8,668
8,ZQZQZ,154,1,1122,Correct,8,766
8,OSOLO,121,2,966,Correct,8,812
9,H,5,19,1112,New Target,9,754
9,MYMYM,151,1,884,Correct,9,739
9,QLQNQ,161,2,809,Correct,9,903
9,PQPQP,191,1,1191,Correct,9,802
9,HRYSY,231,2,815,Correct,9,900
9,CDCDC,151,1,957,Correct,9,835
9,ONONO,152,,,Incorrect,9,804
9,TQTBT,161,2,906,Correct,9,806
9,RNRTR,182,2,990,Correct,9,920
9,PXPKP,163,,,Incorrect,9,774
9,MHMHM,7,1,830,Incorrect,9,879
9,APANA,161,2,1062,Correct,9,790
9,UOUOU,151,1,1133,Correct,9,703
9,TLTCT,161,2,829,Correct,9,904
9,KVKZH,235,2,876,Correct,9,861
9,ASALA,161,2,1012,Correct,9,835
9,BPBAB,182,2,1231,Correct,9,766
9,NZNZN,151,1,728,Correct,9,754
9,BHBRB,81,2,984,Incorrect,9,653
10,E,6,6,3116,New Target,10,922
10,CQCQC,151,20,1558,Incorrect,10,809
10,XCXDX,171,2,993,Incorrect,10,654
10,TMTMT,151,1,1176,Correct,10,862
10,ZRZRZ,152,1,1260,Correct,10,686
10,SZSZS,193,1,850,Correct,10,865
10,OSOYO,171,,,Incorrect,10,830
10,XZXZX,151,1,1048,Correct,10,678
10,RERER,9,3,1017,Correct,10,766
10,BRBRB,193,1,1055,Correct,10,776
10,QHQHQ,114,1,1046,Incorrect,10,880
