Trial No,Stimulus,Trigger,Response,Response Time(ms),Correct,Block,Fixation Duration
Practice
Trials
1,Z,5,3,2548,New Target,1,652
1,FVFVF,151,,,Incorrect,1,927
1,DQDQD,152,,,Incorrect,1,900
1,ZUPRP,231,,,Incorrect,1,799
1,QYQYQ,151,,,Incorrect,1,862
1,HQHQH,192,,,Incorrect,1,738
1,CBZPC,233,,,Incorrect,1,845
1,YCYCY,191,,,Incorrect,1,757
1,MDMDM,152,,,Incorrect,1,687
1,RMRMR,193,,,Incorrect,1,676
1,MDMWM,161,,,Incorrect,1,738
1,BQBKB,162,,,Incorrect,1,710
1,GDGDZ,225,,,Incorrect,1,670
1,KNKNK,151,,,Incorrect,1,944
1,YVYVY,152,,,Incorrect,1,734
1,MZMRM,71,,,Incorrect,1,753
1,LHLHL,151,,,Incorrect,1,849
1,DYDYD,152,,,Incorrect,1,778
1,TDTDT,193,,,Incorrect,1,902
1,NFNFN,154,,,Incorrect,1,795
1,XBXBX,155,,,Incorrect,1,707
1,UXUCU,171,,,Incorrect,1,786
1,EOEWE,162,,,Incorrect,1,854
1,RNRNR,151,,,Incorrect,1,913
1,DZDYD,81,,,Incorrect,1,719
1,TDTDT,191,,,Incorrect,1,888
1,BPBQB,161,,,Incorrect,1,780
1,ZFGFG,221,,,Incorrect,1,816
1,QOQOQ,151,,,Incorrect,1,761
1,PVZKP,233,,,Incorrect,1,695
1,HDHOH,161,,,Incorrect,1,817
1,UHUQU,172,,,Incorrect,1,903
1,FXFUF,183,,,Incorrect,1,897
1,VFVOV,174,,,Incorrect,1,939
1,XZXTX,91,,,Incorrect,1,707
1,QOQOZ,225,,,Incorrect,1,944
1,MQMWM,171,,,Incorrect,1,918
1,AUAUA,151,,,Incorrect,1,879
1,ZXGHG,231,,,Incorrect,1,740
1,WQWOW,161,,,Incorrect,1,800
1,GSGRZ,235,,,Incorrect,1,785
1,UZUVU,101,,,Incorrect,1,835
1,EHEUE,182,,,Incorrect,1,822
1,NENEN,191,,,Incorrect,1,886
1,AMAYA,161,,,Incorrect,1,891
1,SBSDS,162,,,Incorrect,1,899
1,MTMTM,151,,,Incorrect,1,828
1,YWYKY,161,,,Incorrect,1,742
1,EYEHE,172,,,Incorrect,1,744
1,UEUEU,191,,,Incorrect,1,702
1,MHMUM,181,,,Incorrect,1,882
1,EVEVE,151,,,Incorrect,1,734
1,YCYEY,181,,,Incorrect,1,661
1,VSVDV,162,,,Incorrect,1,707
1,KVKVK,191,,,Incorrect,1,697
1,HBHBH,152,,,Incorrect,1,702
1,QZQNQ,111,,,Incorrect,1,847
1,AMAXA,162,,,Incorrect,1,668
1,GTGFG,163,,,Incorrect,1,716
1,MXZHM,233,,,Incorrect,1,732
2,W,5,3,2035,New Target,2,806
2,CNCNC,151,,,Incorrect,2,673
2,RMRDR,161,,,Incorrect,2,936
2,NYNYN,151,,,Incorrect,2,768
2,BABTB,161,,,Incorrect,2,906
2,QLQLW,225,,,Incorrect,2,904
2,EQEQE,191,,,Incorrect,2,674
2,YMYMY,152,,,Incorrect,2,751
2,CVCTC,161,,,Incorrect,2,856
2,MZMZM,31,,,Incorrect,2,782
2,QMQMQ,191,,,Incorrect,2,801
2,RWRCR,71,,,Incorrect,2,780
2,UTUQU,161,,,Incorrect,2,898
2,SGSGS,151,,,Incorrect,2,796
2,FSFUF,171,,,Incorrect,2,834
2,CDWDC,223,,,Incorrect,2,693
2,SESES,151,,,Incorrect,2,811
2,QYQHQ,161,,,Incorrect,2,668
2,ARARA,151,,,Incorrect,2,905
2,XZXZX,32,,,Incorrect,2,702
2,YXYPY,171,,,Incorrect,2,776
2,LKLYL,182,,,Incorrect,2,870
2,CLCOC,173,,,Incorrect,2,830
2,NCNCN,191,,,Incorrect,2,699
2,EWETE,81,,,Incorrect,2,800
2,HXHOH,161,,,Incorrect,2,744
2,EVEAE,162,,,Incorrect,2,845
2,WPHPH,221,,,Incorrect,2,676
2,MRMSM,161,,,Incorrect,2,936
2,LMLDL,172,,,Incorrect,2,663
2,CVCLC,183,,,Incorrect,2,705
2,LHLHL,151,,,Incorrect,2,670
2,SLSLS,192,,,Incorrect,2,855
2,GZGZG,33,,,Incorrect,2,681
2,DGDGD,191,,,Incorrect,2,901
2,BWBOB,91,,,Incorrect,2,892
2,TATBT,182,,,Incorrect,2,723
2,SLSLS,151,,,Incorrect,2,928
2,GXGNW,235,,,Incorrect,2,886
2,LCLGL,181,,,Incorrect,2,718
2,NLNLN,191,,,Incorrect,2,803
2,TOTAT,161,,,Incorrect,2,941
2,FQFQF,151,,,Incorrect,2,791
2,AYAYA,152,,,Incorrect,2,651
2,XFXPX,161,,,Incorrect,2,941
2,TWTST,102,,,Incorrect,2,869
2,HUHDH,163,,,Incorrect,2,935
2,EZEZE,34,,,Incorrect,2,676
2,KFKFK,151,,,Incorrect,2,712
2,PCWGP,233,,,Incorrect,2,757
2,NENRN,161,,,Incorrect,2,785
2,WSBOB,231,,,Incorrect,2,705
2,YEYGY,161,,,Incorrect,2,799
2,UYUYU,191,,,Incorrect,2,711
2,RWRKR,111,,,Incorrect,2,799
2,MHMHM,151,,,Incorrect,2,938
2,OMOMO,192,,,Incorrect,2,790
2,QZQZQ,35,,,Incorrect,2,775
2,TPWPT,223,,,Incorrect,2,707
2,XYXYX,151,,,Incorrect,2,766
3,K,5,3,2194,New Target,3,790
3,DADAD,151,,,Incorrect,3,658
3,XTXTX,152,,,Incorrect,3,853
3,OXOEO,171,,,Incorrect,3,657
3,XQXSK,235,,,Incorrect,3,775
3,HMHGH,161,,,Incorrect,3,710
3,KESVS,231,,,Incorrect,3,932
3,NQNQN,151,,,Incorrect,3,786
3,EUESK,235,,,Incorrect,3,904
3,GWGWG,31,,,Incorrect,3,684
3,FGFOF,171,,,Incorrect,3,671
3,LKLKL,7,,,Incorrect,3,725
3,NLNLN,191,,,Incorrect,3,920
3,UTUTU,152,,,Incorrect,3,689
3,KQOQO,221,,,Incorrect,3,715
3,AVAGA,161,,,Incorrect,3,923
3,CACPC,172,,,Incorrect,3,860
3,HTKTH,223,,,Incorrect,3,808
3,DSDQD,161,,,Incorrect,3,704
3,CDCDC,191,,,Incorrect,3,839
3,VYVCV,181,,,Incorrect,3,903
3,GVGVG,191,,,Incorrect,3,835
3,UPUPU,152,,,Incorrect,3,717
3,OUOUO,193,,,Incorrect,3,719
3,TKTKT,8,,,Incorrect,3,779
3,BTBTB,191,,,Incorrect,3,784
3,AWAWA,32,,,Incorrect,3,849
3,XFXEX,161,,,Incorrect,3,694
3,OTONO,162,,,Incorrect,3,833
3,QOQOQ,191,,,Incorrect,3,878
3,PNPDP,161,,,Incorrect,3,690
3,EQEVE,162,,,Incorrect,3,698
3,XSXSX,151,,,Incorrect,3,658
3,VHVHK,225,,,Incorrect,3,861
3,AKAKA,9,,,Incorrect,3,731
3,MSMSM,152,,,Incorrect,3,920
3,UXUMU,181,,,Incorrect,3,730
3,PWPWP,33,,,Incorrect,3,780
3,CXCXC,151,,,Incorrect,3,860
3,EKEKE,102,,,Incorrect,3,894
3,CGCEC,181,,,Incorrect,3,728
3,NCNMN,172,,,Incorrect,3,794
3,DGDGD,151,,,Incorrect,3,758
3,AXAXA,152,,,Incorrect,3,814
3,QHQHQ,153,,,Incorrect,3,864
3,KXFXF,221,,,Incorrect,3,901
3,YWYWY,34,,,Incorrect,3,864
3,ULULU,151,,,Incorrect,3,782
3,HSKQH,233,,,Incorrect,3,874
3,ENENE,151,,,Incorrect,3,684
3,BEBEB,192,,,Incorrect,3,736
3,NRNGN,161,,,Incorrect,3,939
3,DSDBD,162,,,Incorrect,3,896
3,AKAKA,111,,,Incorrect,3,878
3,TVTMT,161,,,Incorrect,3,855
3,STSNS,172,,,Incorrect,3,823
3,GWGWG,35,,,Incorrect,3,664
