Trial No,Stimulus,Trigger,Response,Response Time(ms),Correct,Block,Fixation Duration
Practice
Trials
1,D,5,3,503,New Target,1,904
1,BYBYB,151,,,Incorrect,1,849
1,FBFBF,152,,,Incorrect,1,737
1,RKRKR,153,,,Incorrect,1,789
1,QSQNQ,161,,,Incorrect,1,735
1,CTCFC,162,,,Incorrect,1,902
1,PDPNP,71,,,Incorrect,1,715
1,OPOFO,14,,,Incorrect,1,840
1,HLHNH,162,,,Incorrect,1,675
1,MFMFM,151,,,Incorrect,1,711
1,BTBTB,152,,,Incorrect,1,834
1,MCMPD,235,,,Incorrect,1,749
1,BMBFB,222,,,Incorrect,1,899
1,NTNZN,162,,,Incorrect,1,794
1,MXMRM,163,,,Incorrect,1,825
1,APABA,164,,,Incorrect,1,701
1,FMDMF,223,,,Incorrect,1,854
1,QPQPQ,111,,,Incorrect,1,905
1,VQVMV,161,,,Incorrect,1,744
1,RERPR,162,,,Incorrect,1,681
1,KVKVK,151,,,Incorrect,1,780
1,AKAHA,161,,,Incorrect,1,738
1,VDVDV,8,,,Incorrect,1,884
1,DUGUG,221,,,Incorrect,1,812
1,AFAFA,111,,,Incorrect,1,794
1,GYGYG,152,,,Incorrect,1,926
1,VXVSV,161,,,Incorrect,1,661
1,DOWGW,231,,,Incorrect,1,801
1,QYQYQ,111,,,Incorrect,1,749
1,ODONO,91,,,Incorrect,1,787
1,MSMSM,13,,,Incorrect,1,664
1,GYGYG,152,,,Incorrect,1,663
1,UMUMU,153,,,Incorrect,1,880
1,BZBZB,154,,,Incorrect,1,683
1,NTNBN,161,,,Incorrect,1,783
1,GNDYG,233,,,Incorrect,1,804
1,OCOSO,222,,,Incorrect,1,874
1,BHBFB,162,,,Incorrect,1,705
1,QCQBQ,163,,,Incorrect,1,893
1,LQLQL,151,,,Incorrect,1,667
1,ZDZDZ,10,,,Incorrect,1,938
1,QNQZQ,14,,,Incorrect,1,797
1,CSCYC,162,,,Incorrect,1,652
1,RCRLR,163,,,Incorrect,1,706
1,FRFRF,151,,,Incorrect,1,830
1,WFWFW,152,,,Incorrect,1,705
1,QOQLQ,161,,,Incorrect,1,737
1,AWAQA,162,,,Incorrect,1,773
1,EAEAE,151,,,Incorrect,1,663
1,AGAUA,161,,,Incorrect,1,774
1,YMYMY,151,,,Incorrect,1,949
1,XQXQX,152,,,Incorrect,1,694
1,SHSGS,161,,,Incorrect,1,908
1,PDPDP,11,,,Incorrect,1,754
1,ZGZGZ,13,,,Incorrect,1,729
1,OXOXO,152,,,Incorrect,1,912
1,LYLYL,153,,,Incorrect,1,812
1,NKNKD,225,,,Incorrect,1,730
1,GNGNG,111,,,Incorrect,1,655
1,OYOBO,161,,,Incorrect,1,710
1,SOSOS,151,,,Incorrect,1,908
1,VHVHV,152,,,Incorrect,1,664
1,OKOXO,161,,,Incorrect,1,885
1,EZEZE,151,,,Incorrect,1,915
1,LDLDL,12,,,Incorrect,1,884
2,U,5,3,2643,New Target,2,877
2,BVBEB,161,2,893,Correct,2,901
2,FBFBF,151,1,703,Correct,2,891
2,RFRFR,152,1,916,Correct,2,949
2,NBNKN,161,2,1589,Correct,2,893
2,MKMNM,162,2,983,Correct,2,833
2,QXQXQ,151,1,1039,Correct,2,754
2,MQMYM,161,2,970,Correct,2,674
2,TGTPT,162,2,1526,Correct,2,744
2,XOXOX,151,1,724,Correct,2,771
2,CUCUC,7,[1][3],[1193][1369],Correct,2,848
2,RFRFR,13,1,1441,Correct,2,861
2,VYVSV,161,2,1046,Correct,2,932
2,BEBAB,162,2,980,Correct,2,843
2,GKGQG,163,2,1101,Correct,2,796
2,SCSCS,151,1,913,Correct,2,827
2,CTCUC,82,[2][3],[1273][1417],Correct,2,935
2,RCRCR,13,1,1049,Correct,2,887
2,BOBXB,161,2,1181,Correct,2,726
2,FMFAF,162,2,1588,Correct,2,657
2,VSVDV,181,2,1439,Correct,2,858
2,PWPWP,15,1,700,Correct,2,650
2,UQCKC,231,2,1058,Correct,2,725
2,OCOCO,151,1,852,Correct,2,848
2,TNTNT,152,,,Incorrect,2,707
2,QCQGQ,161,2,1172,Correct,2,686
2,WVWVW,151,1,1294,Correct,2,659
2,TQTQT,152,1,876,Correct,2,673
2,FOFOF,225,1,778,Correct,2,730
2,WVWFW,161,2,1046,Correct,2,898
2,SWSWS,151,1,1460,Correct,2,845
2,FYFCF,161,2,855,Correct,2,923
2,SUSWS,91,[2][3],[960][1104],Correct,2,869
2,CACHC,14,2,909,Correct,2,914
2,VDVKV,172,2,970,Correct,2,768
2,YCYCY,15,1,653,Correct,2,915
2,NMNTN,161,2,991,Correct,2,893
2,XOUKX,233,2,782,Correct,2,922
2,BPBPB,151,1,1099,Correct,2,734
2,MRMRM,152,1,1168,Correct,2,704
2,XMXMX,153,2,803,Incorrect,2,818
2,AUAHA,101,[1],[1551],Incorrect,2,949
2,XKXEU,235,2,1232,Correct,2,793
2,TFTFT,151,1,1133,Correct,2,654
2,MOMDM,183,,,Incorrect,2,663
2,WYWMW,16,,,Incorrect,2,793
2,AZUZA,223,1,1020,Correct,2,937
2,KEKHK,161,2,1130,Correct,2,673
2,LALAL,151,1,990,Correct,2,659
2,CWCDC,184,2,1013,Incorrect,2,723
2,SGSTS,16,2,1020,Correct,2,852
2,PXPXP,151,1,972,Correct,2,873
2,GRGYG,161,2,893,Correct,2,653
2,PUPOP,111,[2],[897],Incorrect,2,791
2,RNRNR,14,1,1279,Correct,2,764
2,MDMDM,195,1,770,Correct,2,948
2,KTKTK,15,1,1059,Correct,2,753
2,OROKO,161,2,949,Correct,2,853
2,UNANA,221,1,1547,Correct,2,835
2,TATAT,151,1,886,Correct,2,854
2,AWAWA,152,1,733,Incorrect,2,867
2,CTCDC,186,2,1136,Incorrect,2,843
2,FCFCF,15,1,652,Correct,2,775
2,ZMZMZ,152,1,866,Correct,2,722
2,BUBUB,12,[1][3],[1108][1284],Correct,2,903
3,E,5,3,1096,New Target,3,862
