Trial No,Stimulus,Trigger,Response,Response Time(ms),Correct,Block,Fixation Duration
Practice
OT Practice
1,SKSKS,15,1,821,Correct,0,699
1,DLDUD,16,2,730,Correct,0,801
1,PDPGP,16,2,928,Correct,0,836
1,MWMWM,15,1,721,Correct,0,797
1,FTFTF,15,1,804,Correct,0,910
1,AXAMA,16,2,798,Correct,0,696
1,RYRGR,16,2,826,Correct,0,652
1,DODOD,15,1,703,Correct,0,789
1,QTQAQ,16,2,740,Correct,0,884
1,YEYEY,15,1,640,Correct,0,678
2,GYGDG,16,2,953,Correct,0,784
2,SWSWS,15,1,578,Correct,0,942
2,HLHUH,16,2,671,Correct,0,898
2,DEDED,15,1,650,Correct,0,743
2,ZPZOZ,16,2,633,Correct,0,694
2,ATATA,15,1,696,Correct,0,716
2,QOQOQ,15,1,782,Correct,0,932
2,FPFGF,16,2,691,Correct,0,858
2,TRTET,16,2,704,Correct,0,734
2,DQDQD,15,1,836,Correct,0,893
4,PLPLP,15,1,677,Correct,0,890
4,ATAIA,16,2,622,Correct,0,838
4,SKSGS,16,2,601,Correct,0,798
4,ZYZYZ,15,1,758,Correct,0,834
4,QSQSQ,15,1,573,Correct,0,843
4,TZTDT,16,2,726,Correct,0,950
4,JYJGJ,16,2,610,Correct,0,742
4,DYDYD,15,1,655,Correct,0,751
4,LTLCL,16,2,699,Correct,0,795
4,FQFEF,16,2,698,Correct,0,707
AT Practice
1,TKTKT,15,1,1174,Correct,0,853
1,SLSUS,16,2,648,Correct,0,942
1,VZVGV,7,3,864,Correct,0,839
1,XWXZX,7,3,640,Correct,0,914
1,ATATA,15,1,793,Correct,0,889
1,HXZMH,16,2,1116,Correct,0,943
1,TZTZT,7,3,831,Correct,0,923
1,UOUOU,15,1,734,Correct,0,940
1,ZTWAW,16,2,938,Correct,0,730
1,RZRER,7,3,830,Correct,0,770
2,JYJDJ,16,2,938,Correct,0,690
2,DWDWD,15,1,825,Correct,0,834
2,GNGNG,7,3,935,Correct,0,921
2,NEZEZ,16,1,1453,Correct,0,672
2,RNROR,7,2,879,False,0,654
2,QTQNQ,7,3,1328,Correct,0,796
2,HOHON,15,1,1410,Correct,0,810
2,KPKGK,16,2,1117,Correct,0,896
2,DRDED,16,2,1307,Correct,0,704
2,LNLNL,7,3,782,Correct,0,745
4,GLGLG,15,1,1446,Correct,0,750
4,DTDID,16,2,771,Correct,0,787
4,SMSGS,16,2,763,Correct,0,827
4,ZFZYZ,7,3,705,Correct,0,826
4,TSTFT,7,3,1077,Correct,0,939
4,OFOFO,7,3,955,Correct,0,934
4,WYFGW,16,2,1213,Correct,0,726
4,WYWYW,15,1,881,Correct,0,836
4,MFMCM,7,3,1079,Correct,0,660
4,HQHEH,16,2,1030,Correct,0,768
Trials
1,D,5,3,1671,New Target,1,744
1,ZNZYZ,161,2,1155,Correct,1,828
1,FZFZF,151,1,1034,Correct,1,902
1,RKRKR,152,1,779,Correct,1,791
1,RXRNR,161,2,850,Correct,1,874
1,CNCFC,162,2,850,Correct,1,918
1,PDPDP,7,3,890,Correct,1,836
1,CPCFC,14,2,766,Correct,1,803
1,VLVNV,162,2,730,Correct,1,730
1,KFKFK,151,1,961,Correct,1,914
1,ZNZNZ,152,1,830,Correct,1,935
1,KCKPD,235,2,875,Correct,1,691
1,ZKZFZ,222,2,771,Correct,1,767
1,NRNZN,162,2,767,Correct,1,774
1,KXKRK,163,2,631,Correct,1,893
1,YPYZY,164,2,685,Correct,1,671
1,FKDKF,223,1,925,Correct,1,709
1,RPRPR,113,1,932,Correct,1,797
1,VRVKV,161,2,681,Correct,1,768
1,RFRPR,162,2,828,Correct,1,705
1,KVKVK,151,1,1105,Correct,1,915
1,YKYVY,161,2,978,Correct,1,704
1,VDVDV,8,3,754,Correct,1,860
1,DVZVZ,221,1,1195,Correct,1,895
1,YFYFY,113,1,864,Correct,1,950
1,ZYZYZ,152,1,775,Correct,1,835
1,VLVXV,161,2,871,Correct,1,655
1,DPXZX,231,2,801,Correct,1,757
1,RYRYR,113,1,743,Correct,1,901
1,PDPNP,91,3,821,Correct,1,793
1,KXKXK,13,1,1135,Correct,1,729
1,ZYZYZ,152,1,705,Correct,1,687
1,VKVKV,153,1,1241,Correct,1,905
1,YZYZY,154,1,735,Correct,1,938
1,NLNZN,161,2,1099,Correct,1,754
1,ZNDYZ,233,2,1221,Correct,1,896
1,PCPXP,222,2,718,Correct,1,827
1,ZVZFZ,162,2,732,Correct,1,793
1,RCRZR,163,2,718,Correct,1,661
1,LRLRL,151,1,726,Correct,1,938
1,ZDZDZ,10,3,673,Correct,1,856
1,RNRZR,14,2,803,Correct,1,743
1,CXCYC,162,2,876,Correct,1,763
1,RCRLR,163,2,695,Correct,1,746
1,FRFRF,151,1,758,Correct,1,747
1,XFXFX,152,1,828,Correct,1,932
1,RPRLR,161,2,738,Correct,1,904
1,YXYRY,162,2,701,Correct,1,832
1,FYFYF,151,1,689,Correct,1,655
1,YZYVY,161,2,770,Correct,1,739
1,YKYKY,151,1,777,Correct,1,873
1,XRXRX,152,1,580,Correct,1,735
1,XVXZX,161,2,711,Correct,1,837
1,PDPDP,11,1,678,Incorrect,1,722
1,ZFZFZ,13,1,1138,Correct,1,807
1,PXPXP,152,1,778,Correct,1,913
1,LYLYL,153,1,657,Correct,1,880
1,NKNKD,225,1,834,Correct,1,766
1,ZNZNZ,113,1,629,Correct,1,904
1,PYPZP,161,2,759,Correct,1,715
1,XPXPX,151,1,637,Correct,1,914
1,VLVLV,152,1,666,Correct,1,832
1,PKPXP,161,2,1005,Correct,1,705
1,FZFZF,151,1,669,Correct,1,869
1,LDLDL,12,3,604,Correct,1,719
2,U,5,3,1842,New Target,2,799
2,ZVZFZ,161,2,800,Correct,2,759
2,FZFZF,151,1,710,Correct,2,830
2,RFRFR,152,1,756,Correct,2,809
2,NZNKN,161,2,829,Correct,2,813
2,FZFNF,162,2,770,Correct,2,945
2,RXRXR,151,1,815,Correct,2,792
2,KRKYK,161,2,728,Correct,2,809
2,NZNPN,162,2,722,Correct,2,819
2,XPXPX,151,1,798,Correct,2,830
2,CUCUC,7,3,816,Correct,2,949
2,RFRFR,13,1,732,Correct,2,650
2,VYVXV,161,2,804,Correct,2,895
2,VDVDV,191,2,1114,Incorrect,2,833
2,ZKZRZ,15,,,Incorrect,2,671
2,XCXCX,151,1,960,Correct,2,882
2,CNCUC,82,3,841,Correct,2,703
2,RCRCR,13,1,718,Correct,2,851
2,ZPZXZ,161,2,717,Correct,2,744
2,FKFYF,162,2,744,Correct,2,787
2,ZFZYZ,163,2,736,Correct,2,900
2,PXPXP,151,1,1019,Correct,2,810
2,URCKC,231,2,785,Correct,2,723
2,PCPCP,113,1,714,Correct,2,813
2,XNXNX,152,1,959,Correct,2,674
2,RCRZR,161,2,722,Correct,2,769
2,XVXVX,151,1,878,Correct,2,801
2,NRNRN,152,1,712,Correct,2,685
2,FPFPF,225,1,895,Correct,2,920
2,XVXFX,222,2,632,Correct,2,684
2,PRPRP,151,1,1144,Correct,2,788
2,FYFCF,161,2,608,Correct,2,928
2,XUXFX,91,3,895,Correct,2,894
2,CYCVC,14,2,834,Correct,2,810
2,VDVKV,172,2,839,Correct,2,890
2,YCYCY,15,1,754,Correct,2,754
2,NKNLN,161,2,839,Correct,2,929
2,XPUKX,233,2,1170,Correct,2,758
2,ZPZPZ,113,1,785,Correct,2,677
2,KRKRK,152,1,1049,Correct,2,821
2,XKXKX,153,1,810,Correct,2,752
2,YUYVY,101,3,783,Correct,2,915
2,XKXFU,235,2,824,Correct,2,806
2,NFNFN,113,1,863,Correct,2,883
2,KDKDK,193,1,997,Correct,2,877
2,XYXKX,16,2,762,Correct,2,680
2,YZUZY,223,1,1125,Correct,2,779
2,KFKVK,222,2,797,Correct,2,898
2,LYLYL,151,1,822,Correct,2,758
2,CXCDC,184,2,955,Incorrect,2,930
2,XZXNX,16,2,691,Correct,2,650
2,PXPXP,151,1,1006,Correct,2,870
2,ZRZYZ,161,1,977,Incorrect,2,724
2,PUPYP,111,2,1371,Incorrect,2,665
2,RNRNR,14,1,1146,Correct,2,881
2,KDKDK,195,1,689,Correct,2,920
2,KNKNK,15,1,708,Correct,2,651
2,PRPKP,161,2,873,Correct,2,949
2,UNYNY,221,1,910,Correct,2,828
2,NYNYN,113,1,996,Correct,2,797
2,YXYXY,152,1,844,Incorrect,2,662
2,RDRDR,196,1,952,Correct,2,692
2,FCFCF,15,1,602,Correct,2,832
2,ZKZKZ,152,1,783,Correct,2,735
2,ZUZUZ,12,3,908,Correct,2,744
3,E,5,3,1358,New Target,3,926
3,YZYZY,151,1,717,Correct,3,827
3,VFVNV,161,2,778,Correct,3,829
3,KYKYK,151,1,916,Correct,3,766
3,NKNKN,152,1,951,Correct,3,910
3,XVXNX,161,2,715,Correct,3,720
3,RERFR,71,3,1388,Correct,3,724
3,XNXNX,13,1,768,Correct,3,749
3,NXNXN,152,1,1066,Correct,3,790
3,ZLZNZ,161,2,812,Correct,3,738
3,CUCNC,171,2,872,Correct,3,693
3,FYFRF,16,2,830,Correct,3,844
3,ZLZLZ,151,1,871,Correct,3,757
3,YZYZY,152,1,946,Correct,3,659
3,CYCYC,153,1,649,Correct,3,710
3,VUVUV,192,1,837,Correct,3,943
3,PXPRP,16,2,751,Correct,3,767
3,YPYPY,151,1,613,Correct,3,935
3,CECEC,8,3,698,Correct,3,677
3,VNENV,223,2,796,Incorrect,3,656
3,KRKFK,222,2,1139,Correct,3,820
3,XLXLE,225,1,868,Correct,3,671
3,RFRUR,183,2,1240,Correct,3,894
3,XRXLX,16,2,705,Correct,3,822
3,NZNPN,162,2,716,Correct,3,814
3,XZXZX,151,1,684,Correct,3,680
3,FZFZF,152,1,726,Correct,3,901
3,PFPFP,153,1,877,Correct,3,929
3,YZYXY,161,2,806,Correct,3,729
3,KEKEK,9,3,804,Correct,3,675
3,CXCPC,14,2,685,Correct,3,855
3,VXVXV,151,1,733,Correct,3,770
3,NUNZN,174,2,1032,Correct,3,884
3,RKRVR,16,2,835,Correct,3,931
3,XRXRX,151,3,810,Incorrect,3,749
3,ERNFN,231,2,1332,Incorrect,3,732
3,YRYNY,222,2,861,Correct,3,750
3,PZPEP,102,3,1044,Correct,3,769
3,ZYZXZ,14,2,1256,Correct,3,757
3,RZRVR,162,2,812,Correct,3,892
3,XRXRX,151,1,746,Correct,3,679
3,KUKFK,175,2,1077,Correct,3,785
3,RKRKR,15,1,757,Correct,3,793
3,ZFZFZ,152,1,1147,Correct,3,926
3,YZYVY,161,2,697,Correct,3,706
3,XPXNX,162,2,644,Correct,3,881
3,YRYRY,151,1,723,Correct,3,825
3,EPVPV,221,1,1121,Correct,3,780
3,CRCEC,112,3,1423,Correct,3,686
3,RFRCR,14,2,1011,Correct,3,768
3,CPCVC,162,2,771,Correct,3,801
3,RXRCR,163,2,1202,Correct,3,668
3,VNVLV,164,,,Incorrect,3,850
3,ZXZXZ,151,1,882,Correct,3,890
3,ZCZCZ,152,1,870,Correct,3,866
3,PYPUP,186,,,Incorrect,3,715
3,YKYPY,16,2,985,Correct,3,784
3,YREXY,233,2,1080,Correct,3,923
3,ZKZKZ,113,1,899,Correct,3,905
3,XLXNX,161,2,884,Correct,3,887
3,KFKRE,235,2,937,Correct,3,813
3,RXRLR,222,2,665,Correct,3,903
3,RERXR,121,3,1002,Correct,3,761
4,J,5,3,1239,New Target,4,836
4,CYCVC,161,2,1250,Correct,4,831
4,RXRCR,162,2,644,Correct,4,932
4,FPFVF,163,2,885,Correct,4,777
4,LZLZL,151,1,859,Correct,4,772
4,PLPLP,152,1,590,Correct,4,879
4,NPNPN,153,1,644,Correct,4,655
4,XZXZX,161,1,618,Incorrect,4,652
4,CNCKC,162,2,765,Correct,4,775
4,PCPYJ,235,2,931,Correct,4,907
4,VYVYV,113,1,727,Correct,4,834
4,RLRLR,152,1,721,Correct,4,818
4,CJCJC,7,3,783,Correct,4,715
4,ZLZLZ,13,1,823,Correct,4,814
4,FZFZF,152,1,690,Correct,4,719
4,CFCFC,153,1,577,Correct,4,698
4,PZPZP,154,1,576,Correct,4,872
4,XEXEX,191,1,660,Correct,4,752
4,NVNFN,16,2,898,Correct,4,804
4,KYKYK,151,1,930,Correct,4,934
4,ZNZVZ,161,2,1341,Correct,4,678
4,YVJXY,233,2,1186,Correct,4,847
4,XFXFX,113,1,680,Correct,4,851
4,XNXNX,152,1,886,Correct,4,812
4,FJFKF,81,3,921,Correct,4,917
4,CZCYC,14,2,836,Correct,4,668
4,ZXZCZ,162,2,751,Correct,4,719
4,RYRYJ,225,1,950,Correct,4,946
4,FPFZF,222,2,743,Correct,4,847
4,XRXRX,151,1,630,Correct,4,733
4,YPYEY,182,2,639,Correct,4,942
4,XRXRX,15,1,557,Correct,4,826
4,XZXPX,161,2,679,Correct,4,695
4,CJCJC,9,3,622,Correct,4,907
4,ZXZVZ,14,2,602,Correct,4,937
4,VKVKV,151,1,775,Correct,4,865
4,VEVNV,173,2,719,Correct,4,871
4,ZKZVZ,16,2,827,Correct,4,804
4,XVXJX,102,3,1091,Correct,4,805
4,RXRVR,14,2,942,Correct,4,733
4,LRLRL,151,3,946,Incorrect,4,653
4,YNJNY,223,1,1115,Correct,4,869
4,NPNJN,222,3,837,Incorrect,4,742
4,ZEZEZ,194,1,796,Correct,4,687
4,ZNZNZ,15,1,790,Correct,4,667
4,YZYZY,152,1,638,Correct,4,758
4,XYXYX,153,1,757,Correct,4,876
4,ZXZXZ,221,1,654,Correct,4,727
4,LYLZL,222,2,765,Correct,4,679
4,CYCNC,162,2,763,Correct,4,919
4,XEXEX,195,1,548,Correct,4,682
4,CVCXC,16,2,623,Correct,4,858
4,ZPZXZ,162,2,572,Correct,4,846
4,FZFZF,151,1,689,Correct,4,921
4,RXRJR,112,3,693,Correct,4,926
4,PRPFP,14,2,698,Correct,4,862
4,PKPEP,186,2,779,Correct,4,933
4,XZXPX,16,2,584,Correct,4,665
4,JCZVZ,231,2,593,Correct,4,887
4,RXRLR,222,2,745,Correct,4,874
4,VZVZV,151,1,770,Correct,4,748
4,XJXJX,12,3,758,Correct,4,847
5,I,5,3,901,New Target,5,723
5,PCPCP,151,3,1052,Incorrect,5,931
5,XYXYX,152,1,696,Correct,5,749
5,VXVXV,153,1,796,Correct,5,939
5,XVXVX,154,1,639,Correct,5,873
5,ZRZXZ,161,2,680,Correct,5,712
5,FPFZF,162,2,1020,Correct,5,911
5,ZYZYZ,151,1,573,Correct,5,721
5,RVRZR,161,2,654,Correct,5,683
5,CICIC,7,3,747,Correct,5,724
5,XLXLX,13,1,750,Correct,5,887
5,YVYVY,152,1,713,Correct,5,663
5,CJCJC,191,2,1084,Incorrect,5,880
5,FNFCF,16,2,790,Correct,5,864
5,PVPRP,162,2,691,Correct,5,885
5,FZFZF,151,1,1210,Correct,5,840
5,NVIVN,223,1,798,Correct,5,909
5,CVCIC,82,3,850,Correct,5,793
5,ZXZXZ,13,1,693,Correct,5,865
5,FCFZF,161,2,793,Correct,5,890
5,IXRXR,221,1,930,Correct,5,650
5,ZPZNZ,222,2,734,Correct,5,901
5,VZVZV,151,1,627,Correct,5,860
5,YRYNY,161,2,779,Correct,5,812
5,VNVPV,162,2,701,Correct,5,907
5,RVRJR,182,2,882,Correct,5,881
5,VRVRV,15,1,599,Correct,5,673
5,VIVIV,9,3,820,Correct,5,785
5,CXCVC,14,2,623,Correct,5,700
5,PZPZP,151,1,667,Correct,5,713
5,IXVKV,231,2,1068,Correct,5,938
5,YJYCY,173,2,645,Incorrect,5,841
5,VYVYV,15,1,724,Correct,5,718
5,YVYVY,152,1,704,Correct,5,655
5,NVNVN,153,2,859,Incorrect,5,653
5,XYXVX,161,2,963,Correct,5,669
5,NJNCN,174,2,882,Correct,5,792
5,NXNYN,16,2,1201,Correct,5,798
5,VXVCV,162,2,709,Correct,5,882
5,ZKZKZ,151,1,659,Correct,5,653
5,XRXYX,161,2,652,Correct,5,852
5,ZCZXZ,162,2,618,Correct,5,689
5,KVKYI,235,2,1030,Correct,5,843
5,CNCNC,113,1,641,Correct,5,784
5,RIRIR,10,3,768,Correct,5,723
5,VYVXV,14,2,678,Correct,5,682
5,FXIRF,233,2,729,Correct,5,945
5,PFPFP,113,1,826,Correct,5,940
5,VPVPV,152,1,679,Correct,5,904
5,ZJZJZ,195,1,1238,Correct,5,653
5,ZVZNZ,16,2,893,Correct,5,772
5,YVYXY,162,2,976,Correct,5,676
5,PRPRP,151,1,721,Correct,5,696
5,YPYPY,152,1,694,Correct,5,847
5,ZIZPZ,111,3,819,Correct,5,675
5,NKNXN,14,2,819,Correct,5,788
5,RZRXR,162,2,676,Correct,5,934
5,RXRXR,151,1,702,Correct,5,829
5,ZJZJZ,196,2,1079,Incorrect,5,731
5,CVCVI,225,1,996,Incorrect,5,725
5,NKNKN,113,1,962,Correct,5,819
5,NRNZN,161,2,786,Correct,5,675
5,CNCNC,151,1,777,Correct,5,820
5,RFRIR,122,3,862,Correct,5,729
6,B,5,3,901,New Target,6,710
6,YKYZY,161,2,889,Correct,6,710
6,VCVRV,162,2,717,Correct,6,718
6,XVXVX,151,1,816,Correct,6,898
6,KZKRK,161,2,826,Correct,6,651
6,ZVZXZ,162,2,739,Correct,6,664
6,RCRNR,163,2,835,Correct,6,938
6,CXCRC,164,2,723,Correct,6,881
6,VNBCV,233,2,717,Correct,6,776
6,CXCVC,222,2,706,Correct,6,863
6,RFRFR,151,1,838,Correct,6,914
6,XPXRX,161,2,921,Correct,6,822
6,RYRBR,72,3,892,Correct,6,737
6,ZKZKZ,13,1,811,Correct,6,923
6,FIFRF,171,2,851,Correct,6,686
6,VZVLV,16,2,729,Correct,6,701
6,RPRVR,162,2,703,Correct,6,754
6,YBYBY,8,3,665,Correct,6,678
6,PYPVP,14,2,896,Correct,6,916
6,NININ,192,1,1051,Correct,6,874
6,RNRNR,15,1,919,Correct,6,894
6,NXNVN,161,2,741,Correct,6,801
6,RNRNR,151,1,698,Correct,6,846
6,FRFVF,161,2,917,Correct,6,737
6,YVYFB,235,2,792,Incorrect,6,711
6,ZRZXZ,222,2,682,Correct,6,811
6,VNVIV,193,2,740,Incorrect,6,720
6,PXPNP,16,2,654,Correct,6,754
6,ZXZPZ,162,2,635,Correct,6,790
6,VBVBV,9,3,740,Correct,6,817
6,CXCXC,13,1,751,Correct,6,677
6,PCPFP,161,2,593,Correct,6,930
6,KNKNK,151,1,1248,Correct,6,666
6,XIXIX,194,1,960,Correct,6,878
6,CYCYC,15,1,856,Correct,6,919
6,FVFYF,161,2,913,Correct,6,721
6,YNYRY,162,2,743,Correct,6,673
6,BVPXP,231,2,674,Correct,6,663
6,NXNXN,113,1,867,Correct,6,656
6,FRFRF,152,1,1197,Correct,6,914
6,YVYVY,153,1,692,Correct,6,753
6,ZKZCZ,161,2,631,Correct,6,932
6,VIVXV,175,2,711,Correct,6,734
6,PRBRP,223,1,1003,Correct,6,839
6,YZYBY,102,3,792,Correct,6,813
6,CXCVC,14,2,732,Correct,6,807
6,FYFYF,151,1,688,Correct,6,877
6,VKVXV,161,2,824,Correct,6,812
6,ZBZBZ,11,3,703,Correct,6,728
6,FPFNF,14,2,830,Correct,6,706
6,CXCXC,151,1,683,Correct,6,924
6,YCYCY,152,1,679,Correct,6,690
6,FPFPF,153,1,687,Correct,6,870
6,CVCVB,225,1,904,Correct,6,795
6,ZCZCZ,113,1,630,Correct,6,841
6,CZCNC,161,2,964,Correct,6,811
6,KIKFK,176,2,863,Correct,6,798
6,PXPXP,15,1,772,Correct,6,803
6,RYRYR,152,1,691,Correct,6,925
6,ZRZCZ,161,2,712,Correct,6,907
6,RVRVR,151,1,674,Correct,6,828
6,XYXNX,161,2,652,Correct,6,778
6,BVKVK,221,1,683,Correct,6,685
6,CBCBC,12,3,793,Correct,6,669
7,W,5,3,1287,New Target,7,779
7,RKRKR,151,1,733,Correct,7,778
7,CVCRC,161,2,709,Correct,7,769
7,PKPKP,151,1,694,Correct,7,936
7,FPFPF,152,1,654,Correct,7,857
7,VRVPV,161,2,939,Correct,7,742
7,ZKZYZ,162,2,747,Correct,7,745
7,PVPCP,233,2,690,Correct,7,727
7,KVKVK,113,1,971,Correct,7,790
7,YXYVY,161,2,1098,Correct,7,809
7,FNFNF,151,1,593,Correct,7,858
7,YWYWY,7,3,873,Correct,7,905
7,ZYZYZ,13,1,767,Correct,7,671
7,PYPYP,152,1,609,Correct,7,946
7,XRXRX,153,1,684,Correct,7,846
7,PXPXP,154,1,535,Correct,7,656
7,FCFBF,181,2,635,Correct,7,654
7,FVFVF,15,1,627,Correct,7,864
7,CYCZC,161,2,627,Correct,7,714
7,XZXVX,162,2,673,Correct,7,663
7,PFPFP,151,1,631,Correct,7,923
7,RVRLR,161,2,613,Correct,7,801
7,ZBZBZ,192,1,1018,Correct,7,913
7,VCVNV,16,2,677,Correct,7,838
7,NWNWN,8,3,652,Correct,7,764
7,XNXVX,14,2,999,Correct,7,786
7,CXCNC,162,2,688,Correct,7,932
7,YVYVW,225,1,1151,Correct,7,724
7,VFVFV,113,1,840,Correct,7,780
7,VFWFV,223,2,708,Incorrect,7,947
7,CVCFC,222,2,738,Correct,7,668
7,YBYBY,193,1,744,Correct,7,849
7,PYPYP,15,1,771,Correct,7,729
7,NKNWN,91,3,872,Correct,7,811
7,VNVNV,13,1,759,Correct,7,868
7,RVRVR,152,1,841,Correct,7,885
7,FVFBF,184,2,704,Incorrect,7,674
7,VZVKV,16,2,677,Correct,7,848
7,VPVCV,162,2,697,Correct,7,939
7,WYZCZ,231,2,746,Correct,7,658
7,PFPFP,113,1,702,Correct,7,856
7,PRPRP,152,1,957,Correct,7,688
7,NWNWN,10,3,634,Correct,7,779
7,VKVCV,14,2,596,Correct,7,841
7,WPYPY,221,1,815,Correct,7,837
7,VBVBV,195,1,807,Correct,7,688
7,ZKZYZ,16,2,648,Correct,7,926
7,XYXYX,151,1,896,Correct,7,912
7,FZFXF,161,2,640,Correct,7,910
7,XKXKX,151,1,723,Correct,7,892
7,XPXPX,152,1,638,Correct,7,757
7,FWFWF,11,3,808,Correct,7,903
7,FNFBF,186,2,673,Correct,7,676
7,ZVZYZ,16,2,799,Correct,7,678
7,FZFZF,151,1,646,Correct,7,708
7,NPNFW,235,2,662,Correct,7,656
7,PCPCP,113,1,577,Correct,7,693
7,NKNWN,122,3,730,Correct,7,906
8,M,5,3,956,New Target,8,837
8,VYVNV,161,2,901,Correct,8,838
8,KLKNK,162,2,774,Correct,8,743
8,NRNRN,151,1,753,Correct,8,686
8,VNVFV,161,2,888,Correct,8,750
8,XNXNM,225,1,1561,Correct,8,807
8,CXCVC,222,2,767,Correct,8,790
8,KRKZK,162,2,627,Correct,8,793
8,NMNFN,71,3,1166,Correct,8,894
8,ZFZFZ,13,1,597,Correct,8,781
8,YPYCY,161,2,607,Correct,8,843
8,KCKCK,151,1,617,Correct,8,885
8,VNVNV,152,1,992,Correct,8,864
8,LXLXL,153,1,928,Correct,8,730
8,CLCLC,154,1,597,Correct,8,666
8,NYNYN,155,1,765,Correct,8,800
8,LCMYL,233,2,896,Correct,8,836
8,NCNCN,113,1,669,Correct,8,922
8,ZVZRZ,161,2,741,Correct,8,878
8,ZVZVZ,151,1,702,Correct,8,789
8,PZPVP,161,2,730,Correct,8,721
8,PWPNP,171,2,964,Correct,8,728
8,KLKCM,235,2,1232,Correct,8,813
8,XMXMX,8,3,776,Correct,8,681
8,PRPXP,14,2,760,Correct,8,880
8,CVCYC,162,2,590,Correct,8,752
8,PXPMP,92,2,728,Incorrect,8,865
8,ZCZLZ,14,2,668,Correct,8,904
8,XWXWX,192,1,1041,Correct,8,894
8,ZCZLZ,16,2,860,Correct,8,895
8,MNCYC,231,2,1152,Correct,8,746
8,ZXZXZ,113,1,674,Correct,8,946
8,YRYNY,161,2,666,Correct,8,814
8,ZLZPZ,162,2,728,Correct,8,690
8,VZVZV,151,1,660,Correct,8,715
8,MXPXP,221,1,971,Correct,8,815
8,VWVWV,193,1,826,Correct,8,838
8,PYPYP,16,1,638,Incorrect,8,727
8,XPXVX,162,2,744,Correct,8,811
8,XLXLX,151,1,659,Correct,8,718
8,YMYMY,10,3,667,Correct,8,746
8,VYVYV,13,1,789,Correct,8,697
8,PWPZP,174,2,807,Correct,8,862
8,PYPKP,16,2,748,Correct,8,790
8,NPNXN,162,2,732,Correct,8,899
8,KVKVK,223,1,803,Correct,8,811
8,NVNFN,222,2,713,Correct,8,696
8,XNXNX,151,1,619,Correct,8,884
8,YZYMY,112,3,780,Correct,8,702
8,PFPFP,13,1,651,Correct,8,894
8,ZWZWZ,195,1,649,Correct,8,737
8,PCPZP,16,2,690,Correct,8,858
8,LRLPL,162,2,998,Correct,8,824
8,CZCZC,151,1,592,Correct,8,880
8,NZNZN,152,1,738,Correct,8,656
8,CVCXC,161,2,746,Correct,8,699
8,XCXCX,151,1,573,Correct,8,916
8,YWYWY,196,1,776,Correct,8,875
8,NLNLN,15,1,647,Correct,8,921
8,VNVNV,152,1,788,Correct,8,702
8,ZMZMZ,12,3,693,Correct,8,876
9,S,5,3,1098,New Target,9,674
9,NZNZN,151,1,812,Correct,9,804
9,KVKZK,161,2,798,Correct,9,892
9,LZLZL,151,1,516,Correct,9,742
9,XLXLX,152,1,680,Correct,9,717
9,ZXZXZ,153,1,782,Correct,9,856
9,KNKZK,161,2,735,Correct,9,862
9,NRNYN,162,2,869,Correct,9,783
9,CLCVC,163,2,999,Correct,9,818
9,ZCZFZ,164,2,734,Correct,9,907
9,NSNSN,7,3,810,Correct,9,717
9,VZVZV,13,1,666,Correct,9,860
9,NVNCN,161,2,721,Correct,9,901
9,VMVMV,191,1,694,Correct,9,841
9,CVCXC,16,2,827,Correct,9,846
9,ZYZRZ,162,2,637,Correct,9,809
9,XNXZX,163,2,693,Correct,9,778
9,PXPXP,151,1,783,Correct,9,744
9,VCVSV,82,3,807,Correct,9,658
9,PRPCP,14,2,622,Correct,9,721
9,ZMZMZ,192,1,730,Incorrect,9,815
9,ZFZFZ,15,1,832,Correct,9,820
9,FCFCF,152,1,663,Correct,9,681
9,YLYZY,161,2,676,Correct,9,790
9,KNKVK,162,2,762,Correct,9,924
9,SFPCP,231,2,1025,Correct,9,740
9,RPRPR,113,1,907,Correct,9,825
9,XMXMX,193,1,585,Correct,9,874
9,KFKFK,15,1,868,Correct,9,807
9,VSVSV,9,3,676,Correct,9,776
9,YVSVY,223,1,1148,Correct,9,897
9,VPVPV,113,1,566,Correct,9,755
9,XZXZX,152,1,600,Correct,9,669
9,KZKXK,161,2,954,Correct,9,674
9,RFRPR,162,2,1066,Correct,9,737
9,NVNVS,225,1,1139,Correct,9,833
9,ZXZXZ,113,1,661,Correct,9,922
9,SRVRV,221,1,975,Correct,9,778
9,YCYCY,113,1,490,Correct,9,825
9,KMKZK,174,1,1402,Incorrect,9,839
9,FZSVF,233,2,820,Correct,9,855
9,VYVYV,113,1,821,Correct,9,896
9,LVLVL,152,1,699,Correct,9,691
9,YFYFY,153,1,613,Correct,9,757
9,NXNSN,102,3,765,Correct,9,881
9,FNFCF,14,2,866,Correct,9,918
9,KVKVK,151,1,770,Correct,9,866
9,VZVCV,161,2,842,Correct,9,701
9,ZYZMZ,185,2,709,Correct,9,668
9,VXVZV,16,2,681,Correct,9,846
9,VPVPV,151,1,575,Correct,9,875
9,RVRNS,235,2,1052,Correct,9,823
9,YZYZY,113,1,744,Correct,9,748
9,ZSZSZ,11,3,699,Correct,9,925
9,FRFRF,13,1,996,Correct,9,778
9,ZMZMZ,196,1,733,Correct,9,913
9,NZNXN,16,2,661,Correct,9,751
9,LSLFL,121,3,720,Correct,9,804
10,Q,5,3,1083,New Target,10,696
10,ZVZPZ,161,2,942,Correct,10,860
10,RZRZR,151,1,607,Correct,10,722
10,ZFZFZ,152,1,747,Correct,10,838
10,RZRZR,153,1,624,Correct,10,915
10,PZPXP,161,2,746,Correct,10,721
10,VFQPV,233,2,1072,Correct,10,908
10,ZPZRZ,222,2,779,Correct,10,740
10,CYCVC,162,2,943,Correct,10,850
10,CPCPC,151,1,953,Correct,10,890
10,YZYQY,72,3,566,Correct,10,748
10,FVFXF,14,2,656,Correct,10,888
10,YNYNQ,225,1,829,Correct,10,749
10,ZYZYZ,113,1,657,Correct,10,800
10,FRFSF,181,2,712,Incorrect,10,757
10,XNXPX,16,2,701,Correct,10,875
10,NXNXN,151,1,811,Correct,10,695
10,PVPZP,161,2,707,Correct,10,705
10,XVXPX,162,2,756,Correct,10,942
10,FXFVF,163,2,748,Correct,10,720
10,NSNKN,172,2,770,Incorrect,10,778
10,VXVNV,16,2,803,Correct,10,940
10,XZXZX,151,1,610,Correct,10,839
10,VQVQV,8,3,909,Correct,10,822
10,ZYZPZ,14,2,638,Correct,10,795
10,PZPSP,183,2,880,Correct,10,677
10,YVYVY,15,1,748,Correct,10,883
10,NCNQN,92,3,755,Correct,10,750
10,FCFVF,14,2,724,Correct,10,929
10,ZFZFZ,151,1,857,Correct,10,854
10,NSNSN,194,1,648,Correct,10,758
10,YPYFY,16,2,676,Correct,10,815
10,ZKZKZ,151,1,849,Correct,10,738
10,QZRCR,231,2,848,Correct,10,920
10,YPYVY,222,2,673,Correct,10,783
10,ZNZNZ,151,1,764,Correct,10,818
10,VQVQV,10,3,722,Correct,10,754
10,RVRZR,14,2,742,Correct,10,876
10,KRKSK,185,2,657,Correct,10,698
10,NPNPN,15,1,652,Correct,10,729
10,YPYPY,152,3,664,Incorrect,10,723
10,VCVYV,161,2,721,Correct,10,842
10,FPFNF,162,2,758,Correct,10,851
10,QVXVX,221,1,1142,Correct,10,859
10,ZVZRZ,222,2,670,Correct,10,804
10,LFLFL,151,1,706,Correct,10,942
10,VLVLV,152,1,747,Correct,10,790
10,KXQXK,223,1,982,Correct,10,770
10,YQYQY,11,3,549,Correct,10,687
10,YCYCY,13,1,650,Correct,10,662
10,PZPYP,161,2,805,Correct,10,765
10,LPLFL,162,2,741,Correct,10,901
10,VSVSV,196,1,750,Correct,10,725
10,VFVYQ,235,2,928,Correct,10,916
10,CZCXC,222,2,722,Correct,10,774
10,PVPCP,162,2,660,Correct,10,877
10,CXCXC,151,1,573,Correct,10,923
10,NZNZN,152,1,697,Correct,10,827
10,YPYCY,161,2,668,Correct,10,899
10,ZQZQZ,12,3,657,Correct,10,896
11,T,5,3,1173,New Target,11,762
11,KFKFK,151,1,792,Correct,11,675
11,LZLZL,152,1,570,Correct,11,809
11,PFPVP,161,2,757,Correct,11,867
11,FRFPF,162,2,793,Correct,11,848
11,FZFZF,151,1,686,Correct,11,708
11,VTVTV,7,3,843,Correct,11,688
11,KYKCK,14,2,618,Correct,11,723
11,VPVPV,151,1,649,Correct,11,945
11,XQXQX,191,1,1079,Correct,11,929
11,PZPYP,16,2,929,Correct,11,663
11,KXKLK,162,2,1035,Correct,11,796
11,TCNCN,221,1,718,Correct,11,784
11,PZPNP,222,2,816,Correct,11,895
11,RCRPR,162,2,1132,Correct,11,691
11,PZPRT,235,2,958,Correct,11,939
11,XFXVX,222,2,1248,Correct,11,750
11,LTLVL,81,3,1005,Correct,11,946
11,ZCZPZ,14,2,629,Correct,11,911
11,NCNQN,182,2,715,Correct,11,913
11,XZXNX,16,2,624,Correct,11,863
11,ZPZPZ,151,1,782,Correct,11,736
11,CFCFC,152,1,690,Correct,11,856
11,VXTRV,233,2,669,Correct,11,760
11,CFCVC,222,2,614,Correct,11,859
11,PYPYP,151,1,767,Correct,11,763
11,FQFYF,173,2,630,Correct,11,693
11,CNCFC,16,2,709,Correct,11,694
11,PTPTP,9,3,607,Correct,11,725
11,ZCZCZ,13,1,590,Correct,11,759
11,KZKZK,152,1,704,Correct,11,675
11,RLRVR,161,2,565,Correct,11,759
11,ZRZKZ,162,2,740,Correct,11,826
11,KLKLT,225,1,851,Correct,11,938
11,ZQZQZ,194,1,537,Correct,11,726
11,VZVZV,15,1,518,Correct,11,809
11,RVRZR,161,2,693,Correct,11,800
11,ZPZCZ,162,2,751,Correct,11,822
11,VYVYV,151,1,616,Correct,11,692
11,RVRVR,152,1,724,Correct,11,721
11,PTPTP,10,3,684,Correct,11,777
11,PXPXP,13,1,673,Correct,11,940
11,KCKCK,152,1,571,Correct,11,724
11,YVYVY,153,1,635,Correct,11,707
11,CYCYC,154,1,688,Correct,11,905
11,XCXCX,155,1,581,Correct,11,919
11,CYCQC,185,2,768,Correct,11,888
11,KCKNK,16,2,675,Correct,11,806
11,VPVPV,151,1,1001,Correct,11,867
11,TXFZF,231,2,743,Correct,11,804
11,NYNVN,222,2,618,Correct,11,862
11,VQVXV,176,2,527,Correct,11,884
11,ZRZRZ,15,1,640,Correct,11,830
11,VTVZV,111,3,699,Correct,11,851
11,PXPVP,14,2,1373,Correct,11,863
11,FVFVF,151,1,610,Correct,11,654
11,VRVLV,161,2,642,Correct,11,694
11,YCYCY,151,1,633,Correct,11,879
11,XZTZX,223,1,849,Correct,11,794
11,VTVTV,12,3,615,Correct,11,768
12,O,5,3,1303,New Target,12,784
12,VXVLV,161,2,720,Correct,12,681
12,KVKCK,162,2,754,Correct,12,863
12,VLVLV,151,1,620,Correct,12,657
12,ZCZVZ,161,2,651,Correct,12,725
12,KFKFK,151,1,871,Correct,12,757
12,XKXKX,152,1,796,Correct,12,800
12,YXYXY,153,1,688,Correct,12,736
12,FVFVF,154,1,634,Correct,12,792
12,PVPOP,72,3,600,Correct,12,719
12,ZXZYZ,14,2,798,Correct,12,943
12,PXPVP,162,2,734,Correct,12,913
12,ZTZTZ,191,1,978,Correct,12,876
12,CVCKC,16,2,749,Correct,12,883
12,CKCKC,151,1,575,Correct,12,937
12,NPNPN,152,1,686,Correct,12,788
12,ZRZNZ,161,2,685,Correct,12,940
12,OZCZC,221,1,994,Correct,12,919
12,LFLFL,113,1,624,Correct,12,902
12,CXCXC,152,1,632,Correct,12,753
12,KPKPK,153,1,626,Correct,12,786
12,FRFKF,161,2,671,Correct,12,721
12,FOFOF,8,3,1013,Correct,12,853
12,ZFZFZ,13,1,675,Correct,12,792
12,LKLZO,235,2,699,Correct,12,883
12,KLKZK,222,2,710,Correct,12,675
12,YXYCY,162,2,673,Correct,12,798
12,LOLOL,9,3,622,Correct,12,674
12,XLXLX,13,1,682,Correct,12,732
12,XVXVX,152,1,613,Correct,12,787
12,FTFTF,192,1,595,Correct,12,732
12,OXNZN,231,2,701,Correct,12,932
12,CZCZC,113,1,560,Correct,12,884
12,LZLZL,152,1,552,Correct,12,811
12,VLVPV,161,2,665,Correct,12,806
12,VYVYO,225,1,703,Correct,12,864
12,XKXKX,113,1,781,Correct,12,672
12,RTRTR,193,1,566,Correct,12,758
12,KVKCK,16,2,725,Correct,12,731
12,ROROR,101,3,680,Correct,12,910
12,PRPRP,13,1,750,Correct,12,904
12,LYLVL,161,2,854,Correct,12,781
12,PLPLP,151,1,731,Correct,12,701
12,CTCTC,194,1,683,Correct,12,934
12,XZXYX,16,2,643,Correct,12,839
12,NKNKN,151,1,890,Correct,12,918
12,VLVZV,161,2,638,Correct,12,656
12,YOYOY,11,3,573,Correct,12,654
12,PZOZP,223,2,735,Incorrect,12,707
12,FYFYF,113,1,835,Correct,12,908
12,ZXZVZ,161,2,1321,Correct,12,691
12,VKVZV,162,2,1059,Correct,12,930
12,ZTZTZ,195,1,874,Correct,12,900
12,LKLZL,16,2,865,Correct,12,734
12,KCKVK,162,2,760,Correct,12,659
12,PXPKP,163,2,881,Correct,12,746
12,KCOZK,233,2,670,Correct,12,907
12,FKFKF,113,1,689,Correct,12,949
12,CTCRC,176,2,596,Correct,12,878
12,NXNXN,15,1,757,Correct,12,680
12,KXKVK,161,2,982,Correct,12,943
12,CPCOC,122,2,755,Incorrect,12,822
13,H,5,3,913,New Target,13,899
13,VFVNV,151,2,978,Incorrect,13,706
13,YVYVY,152,1,785,Correct,13,760
13,XVXVX,153,1,584,Correct,13,737
13,NRNXN,161,2,708,Correct,13,820
13,PZPKP,162,2,753,Correct,13,657
13,HLVLV,221,1,1196,Correct,13,771
13,CXCZC,222,2,657,Correct,13,757
13,LHLYL,71,3,1130,Correct,13,870
13,YKYFY,14,2,1106,Correct,13,718
13,YOYRY,171,2,808,Correct,13,889
13,ZKZYZ,16,2,1083,Correct,13,827
13,RZRZR,151,1,753,Correct,13,878
13,NFNYN,161,2,971,Correct,13,716
13,KVKFK,162,2,755,Correct,13,942
13,XFXYX,163,2,694,Correct,13,946
13,LKLVL,164,2,591,Correct,13,695
13,NLNLN,151,1,778,Correct,13,784
13,XCXOX,182,2,653,Correct,13,797
13,FXFXF,15,1,727,Correct,13,829
13,VHVHV,8,3,713,Correct,13,898
13,PVPVP,13,1,778,Correct,13,662
13,CRCXC,161,2,813,Correct,13,739
13,NXNXN,151,1,887,Correct,13,742
13,XRXRX,152,1,696,Correct,13,765
13,YFYXY,161,2,783,Correct,13,843
13,ZOZOZ,193,1,804,Correct,13,770
13,RZRZR,15,1,580,Correct,13,870
13,FKFKF,152,1,741,Correct,13,698
13,PFPFP,153,1,698,Correct,13,814
13,XYXHX,92,3,751,Correct,13,864
13,RZRKR,14,2,828,Correct,13,651
13,FLFLH,225,1,845,Correct,13,825
13,KRKRK,113,1,859,Correct,13,917
13,ZVZNZ,161,2,883,Correct,13,665
13,ZOZOZ,194,1,504,Correct,13,705
13,FZFZF,15,1,528,Correct,13,690
13,FHFKF,101,3,801,Correct,13,736
13,ZXHLZ,233,2,706,Correct,13,804
13,FKFXF,222,2,1037,Correct,13,694
13,CFCYC,162,2,728,Correct,13,892
13,ZXZVZ,163,2,909,Correct,13,858
13,KCKOK,185,2,666,Correct,13,919
13,ZXZVH,235,2,668,Correct,13,654
13,CKCKC,113,2,559,Incorrect,13,929
13,ZXZCZ,161,2,701,Correct,13,846
13,YVYVY,151,1,644,Correct,13,873
13,RVHVR,223,1,816,Correct,13,793
13,ZRZRZ,113,1,865,Correct,13,795
13,ZHZHZ,11,3,658,Correct,13,765
13,VZVZV,13,1,637,Correct,13,701
13,HZVRV,231,2,588,Correct,13,665
13,FVFVF,113,1,619,Correct,13,730
13,RNRCR,161,2,672,Correct,13,921
13,COCOC,196,1,641,Correct,13,667
13,VNVXV,16,2,600,Correct,13,817
13,XHXHX,12,3,624,Correct,13,780
14,G,5,3,904,New Target,14,656
14,FZFZF,151,1,740,Correct,14,855
14,RPRVR,161,2,757,Correct,14,927
14,XCXCX,151,1,704,Correct,14,717
14,YXYXY,152,1,633,Correct,14,728
14,KZKZK,153,1,578,Correct,14,820
14,RYRKR,161,2,875,Correct,14,869
14,FYFNF,162,2,679,Correct,14,898
14,VKVKV,151,1,812,Correct,14,924
14,KPGPK,223,1,881,Correct,14,777
14,YNYNY,113,1,656,Correct,14,750
14,VYVYV,152,1,680,Correct,14,883
14,YCYXY,161,2,946,Correct,14,686
14,LKLGL,72,3,1308,Correct,14,924
14,VXVXV,13,1,718,Correct,14,780
14,KCKVK,161,2,672,Correct,14,923
14,YKYKY,151,1,645,Correct,14,906
14,RHRXR,171,2,805,Correct,14,698
14,FVFCF,16,2,790,Correct,14,859
14,YXYGY,82,3,602,Correct,14,741
14,CLCLC,13,1,641,Correct,14,886
14,ZXZCZ,161,2,646,Correct,14,901
14,VLVFV,162,2,593,Correct,14,903
14,CPCPG,225,1,859,Correct,14,823
14,KHKNK,172,2,953,Correct,14,928
14,ZKZVZ,16,2,859,Correct,14,683
14,YKYLY,162,2,610,Correct,14,703
14,CNCNC,151,1,609,Correct,14,788
14,PGPGP,9,3,676,Correct,14,918
14,VPVPV,13,1,557,Correct,14,842
14,FXGRF,233,2,1176,Correct,14,792
14,CYCVC,222,2,873,Correct,14,929
14,FNFNF,151,1,696,Correct,14,873
14,KFKCK,161,2,943,Correct,14,879
14,ZFZHZ,183,2,784,Correct,14,661
14,NXNXN,15,1,832,Correct,14,913
14,FNFNF,152,1,606,Correct,14,875
14,LXLNG,235,2,746,Correct,14,921
14,XKXVX,222,2,718,Correct,14,802
14,ZHZHZ,194,1,626,Correct,14,930
14,PFPFP,15,1,574,Correct,14,707
14,ZYZYZ,152,1,621,Correct,14,827
14,XPXVX,161,2,597,Correct,14,856
14,YCYCY,151,1,660,Correct,14,790
14,RGRGR,10,3,732,Correct,14,711
14,VRVRV,13,1,551,Correct,14,762
14,PKPNP,161,2,708,Correct,14,812
14,XGXGX,11,3,720,Correct,14,727
14,GZYVY,231,2,728,Correct,14,869
14,VCVNV,222,2,618,Correct,14,886
14,VHVHV,195,1,682,Correct,14,667
14,LXLNL,16,2,768,Correct,14,920
14,GKPKP,221,1,1088,Correct,14,868
14,XRXPX,222,2,812,Correct,14,765
14,XNXNX,151,1,675,Correct,14,683
14,KHKNK,176,2,780,Incorrect,14,857
14,RZRZR,15,1,676,Correct,14,792
14,CGCFC,121,2,987,Incorrect,14,847
15,A,5,3,1024,New Target,15,818
15,XRXFX,161,2,1182,Correct,15,744
15,RXRKR,162,2,1486,Correct,15,897
15,YRYRY,151,1,780,Correct,15,762
15,XPXPX,152,1,928,Correct,15,782
15,RPRPR,153,1,874,Correct,15,919
15,NCNCN,154,1,953,Correct,15,873
15,RXRZR,161,2,1463,Correct,15,788
15,NANAN,7,,,Incorrect,15,739
15,KCKYK,14,2,1506,Correct,15,688
15,XKXFX,162,2,1208,Correct,15,823
15,ZLZKZ,163,2,1076,Correct,15,669
15,VCVZV,164,2,1136,Correct,15,743
15,XCXVX,165,2,1412,Correct,15,920
15,LKLZA,235,,,Incorrect,15,917
15,NCNCN,113,1,963,Correct,15,801
15,YGYGY,191,1,961,Correct,15,896
15,VLVLV,15,1,659,Correct,15,651
15,XRXRX,152,1,569,Correct,15,855
15,KAKPK,81,3,755,Correct,15,937
15,YZAZY,233,1,659,Incorrect,15,873
15,CFCFC,113,1,562,Correct,15,659
15,VNVLV,161,2,716,Correct,15,876
15,KPKVK,162,2,847,Correct,15,945
15,NCNRN,163,2,588,Correct,15,942
15,FGFGF,192,1,748,Correct,15,724
15,RCRYR,16,2,674,Correct,15,755
15,KRKCK,162,2,651,Correct,15,840
15,CRCRC,151,1,824,Correct,15,708
15,XPAPX,223,1,1230,Correct,15,698
15,LPLXL,222,2,1027,Correct,15,735
15,CGCVC,173,2,1163,Correct,15,876
15,FKFZF,16,2,849,Correct,15,809
15,CACAC,9,3,768,Correct,15,901
15,XCXCX,13,1,613,Correct,15,771
15,AXRXR,221,1,752,Correct,15,793
15,NKNRN,222,2,745,Correct,15,719
15,KNKFK,162,2,762,Correct,15,948
15,KAKAK,10,3,737,Correct,15,831
15,ZCZRZ,14,2,610,Correct,15,862
15,RPRPR,151,1,1117,Correct,15,738
15,NCNCN,152,1,697,Correct,15,729
15,RYRGR,184,2,593,Correct,15,794
15,VPVPV,15,1,510,Correct,15,723
15,RCRCA,225,1,748,Correct,15,936
15,KXKPK,222,2,783,Correct,15,941
15,NPNPN,151,1,629,Correct,15,661
15,YCYCY,152,1,545,Correct,15,829
15,PXPAP,112,3,816,Correct,15,732
15,ZCZNZ,14,2,755,Correct,15,804
15,KYKGK,185,2,585,Correct,15,724
15,ANLPL,231,2,1240,Correct,15,763
15,CXCPC,222,2,760,Correct,15,872
15,YRYRY,151,1,825,Correct,15,863
15,LGLGL,196,1,1450,Correct,15,868
15,VYVLV,16,2,631,Correct,15,833
15,KVKVK,151,1,805,Correct,15,737
15,RKRKR,152,1,603,Correct,15,776
15,VXVXV,153,1,712,Correct,15,767
15,XAXAX,12,3,580,Correct,15,660
