Trial No,Stimulus,Trigger,Response,Response Time(ms),Correct,Block,Fixation Duration
Practice
OT Practice
1,SKSKS,15,,,False,0,940
1,DLDUD,16,,,False,0,728
1,PDPGP,16,2,1088,Correct,0,834
1,MWMWM,15,1,1085,Correct,0,793
1,FTFTF,15,1,791,Correct,0,826
1,AXAMA,16,2,817,Correct,0,724
1,RYRGR,16,2,835,Correct,0,868
1,DODOD,15,1,760,Correct,0,813
1,QTQAQ,16,2,978,Correct,0,724
1,YEYEY,15,1,677,Correct,0,692
2,GYGDG,16,2,950,Correct,0,783
2,SWSWS,15,1,711,Correct,0,802
2,HLHUH,16,2,997,Correct,0,653
2,DEDED,15,1,673,Correct,0,851
2,ZPZOZ,16,2,713,Correct,0,836
2,ATATA,15,1,480,Correct,0,858
2,QOQOQ,15,1,959,Correct,0,877
2,FPFGF,16,2,828,Correct,0,928
2,TRTET,16,1,626,False,0,812
2,DQDQD,15,1,767,Correct,0,859
AT Practice
1,TKTKT,15,1,1450,Correct,0,744
1,SLSUS,16,2,916,Correct,0,845
1,VZVGV,7,3,593,Correct,0,906
1,XWXZX,7,3,851,Correct,0,689
1,ATATA,15,1,787,Correct,0,913
1,HXZMH,16,2,1417,Correct,0,776
1,TZTZT,7,3,813,Correct,0,674
1,UOUOU,15,1,669,Correct,0,925
1,ZTWAW,16,,,False,0,822
1,RZRER,7,3,1099,Correct,0,859
2,JYJDJ,16,2,1412,Correct,0,848
2,DWDWD,15,1,676,Correct,0,752
2,GNGNG,7,3,492,Correct,0,877
2,NEZEZ,16,1,1218,Correct,0,714
2,RNROR,7,3,954,Correct,0,772
2,QTQNQ,7,3,1015,Correct,0,854
2,HOHON,15,1,649,Correct,0,688
2,KPKGK,16,2,756,Correct,0,847
2,DRDED,16,2,875,Correct,0,844
2,LNLNL,7,3,650,Correct,0,900
4,GLGLG,15,1,1115,Correct,0,850
4,DTDID,16,2,928,Correct,0,891
4,SMSGS,16,3,584,False,0,663
4,ZFZYZ,7,3,713,Correct,0,747
4,TSTFT,7,3,841,Correct,0,652
4,OFOFO,7,3,641,Correct,0,694
4,WYFGW,16,2,1308,Correct,0,843
4,WYWYW,15,1,730,Correct,0,939
4,MFMCM,7,3,687,Correct,0,914
4,HQHEH,16,2,1162,Correct,0,814
Trials
1,D,5,3,2537,New Target,1,834
1,BNBYB,161,2,1177,Correct,1,683
1,FBFBF,151,1,1206,Correct,1,783
1,RKRKR,152,1,891,Correct,1,873
1,QSQNQ,161,2,963,Correct,1,785
1,CTCFC,162,2,727,Correct,1,774
1,PDPDP,7,3,479,Correct,1,920
1,OPOFO,14,2,1427,Correct,1,801
1,HLHNH,162,2,1012,Correct,1,821
1,MFMFM,151,1,1066,Correct,1,721
1,BTBTB,152,1,777,Correct,1,765
1,MCMPD,235,2,1043,Correct,1,800
1,BMBFB,222,2,915,Correct,1,771
1,NTNZN,162,2,867,Correct,1,949
1,MXMRM,163,2,606,Correct,1,701
1,APABA,164,2,801,Correct,1,753
1,FMDMF,223,1,884,Correct,1,938
1,QPQPQ,113,1,877,Correct,1,665
1,VQVMV,161,2,644,Correct,1,793
1,RERPR,162,2,1269,Correct,1,788
1,KVKVK,151,1,1114,Correct,1,930
1,AKAHA,161,2,706,Correct,1,931
1,VDVDV,8,3,812,Correct,1,902
1,DUGUG,221,1,868,Correct,1,842
1,AFAFA,113,1,904,Correct,1,903
1,GYGYG,152,1,834,Correct,1,678
1,VXVSV,161,2,597,Correct,1,885
1,DOWGW,231,2,747,Correct,1,668
1,QYQYQ,113,1,850,Correct,1,935
1,ODONO,91,3,793,Correct,1,812
1,MSMSM,13,1,931,Correct,1,837
1,GYGYG,152,1,781,Correct,1,673
1,UMUMU,153,1,742,Correct,1,811
1,BZBZB,154,1,864,Correct,1,855
1,NTNBN,161,2,790,Correct,1,839
1,GNDYG,233,2,668,Correct,1,882
1,OCOSO,222,2,1115,Correct,1,732
1,BHBFB,162,2,699,Correct,1,697
1,QCQBQ,163,2,659,Correct,1,939
1,LQLQL,151,1,1140,Correct,1,737
1,ZDZDZ,10,3,430,Correct,1,833
1,QNQZQ,14,2,807,Correct,1,700
1,CSCYC,162,2,595,Correct,1,676
1,RCRLR,163,2,688,Correct,1,940
1,FRFRF,151,1,782,Correct,1,793
1,WFWFW,152,1,666,Correct,1,702
1,QOQLQ,161,2,1029,Correct,1,889
1,AWAQA,162,2,593,Correct,1,910
1,EAEAE,151,1,695,Correct,1,682
1,AGAUA,161,2,898,Correct,1,899
1,YMYMY,151,1,611,Correct,1,920
1,XQXQX,152,1,744,Correct,1,743
1,SHSGS,161,2,823,Correct,1,777
1,PDPDP,11,1,655,Incorrect,1,770
1,ZGZGZ,13,1,891,Correct,1,838
1,OXOXO,152,1,606,Correct,1,842
1,LYLYL,153,1,590,Correct,1,833
1,NKNKD,225,1,602,Correct,1,934
1,GNGNG,113,1,521,Correct,1,874
1,OYOBO,161,2,604,Correct,1,850
1,SOSOS,151,1,829,Correct,1,795
1,VHVHV,152,1,692,Correct,1,837
1,OKOXO,161,2,722,Correct,1,824
1,EZEZE,151,1,1001,Correct,1,899
1,LDLDL,12,3,677,Correct,1,916
2,U,5,3,2137,New Target,2,779
2,BVBEB,161,2,893,Correct,2,767
2,FBFBF,151,1,810,Correct,2,658
2,RFRFR,152,1,898,Correct,2,770
2,NBNKN,161,2,681,Correct,2,724
2,MKMNM,162,2,826,Correct,2,736
2,QXQXQ,151,1,933,Correct,2,770
2,MQMYM,161,2,806,Correct,2,892
2,TGTPT,162,2,801,Correct,2,771
2,XOXOX,151,1,720,Correct,2,684
2,CUCUC,7,3,1117,Correct,2,823
2,RFRFR,13,1,763,Correct,2,805
2,VYVSV,161,2,568,Correct,2,741
2,VDVDV,191,1,1557,Correct,2,937
2,GKGQG,15,2,674,Correct,2,760
2,SCSCS,151,2,770,Incorrect,2,798
2,CTCUC,82,3,893,Correct,2,802
2,RCRCR,13,1,1123,Correct,2,792
2,BOBXB,161,2,691,Correct,2,763
2,FMFAF,162,2,816,Correct,2,783
2,BEBAB,163,2,581,Correct,2,931
2,PWPWP,151,1,659,Correct,2,883
2,UQCKC,231,2,765,Correct,2,934
2,OCOCO,113,1,939,Correct,2,730
2,TNTNT,152,1,653,Correct,2,873
2,QCQGQ,161,2,787,Correct,2,917
2,WVWVW,151,1,1217,Correct,2,729
2,TQTQT,152,1,734,Correct,2,749
2,FOFOF,225,1,695,Correct,2,883
2,WVWFW,222,2,631,Correct,2,738
2,SWSWS,151,1,668,Correct,2,726
2,FYFCF,161,2,548,Correct,2,913
2,SUSWS,91,3,802,Correct,2,872
2,CACHC,14,2,1309,Correct,2,780
2,VDVKV,172,2,873,Correct,2,686
2,YCYCY,15,1,924,Correct,2,884
2,NMNTN,161,2,715,Correct,2,947
2,XOUKX,233,2,953,Correct,2,775
2,BPBPB,113,1,703,Correct,2,780
2,MRMRM,152,1,763,Correct,2,770
2,XMXMX,153,1,756,Correct,2,910
2,AUAHA,101,3,625,Correct,2,811
2,XKXEU,235,2,1452,Correct,2,928
2,TFTFT,113,1,856,Correct,2,919
2,MDMDM,193,1,862,Correct,2,880
2,WYWMW,16,2,681,Correct,2,738
2,AZUZA,223,1,790,Correct,2,828
2,KEKHK,222,2,689,Correct,2,811
2,LALAL,151,1,719,Correct,2,769
2,CWCDC,184,2,799,Incorrect,2,652
2,SGSTS,16,1,679,Incorrect,2,806
2,PXPXP,151,1,973,Correct,2,657
2,GRGYG,161,2,608,Correct,2,807
2,PUPOP,111,3,884,Correct,2,722
2,RNRNR,14,1,810,Correct,2,826
2,KDKDK,195,1,771,Correct,2,816
2,KTKTK,15,1,716,Correct,2,822
2,OROKO,161,2,611,Correct,2,936
2,UNANA,221,1,803,Correct,2,804
2,TATAT,113,1,584,Correct,2,915
2,AWAWA,152,1,686,Incorrect,2,718
2,RDRDR,196,1,604,Correct,2,774
2,FCFCF,15,1,668,Correct,2,798
2,ZMZMZ,152,1,608,Correct,2,695
2,BUBUB,12,1,526,Incorrect,2,841
3,E,5,3,4252,New Target,3,712
3,YZYZY,151,1,791,Correct,3,888
3,VFVNV,161,2,659,Correct,3,790
3,KAKAK,151,1,547,Correct,3,740
3,TKTKT,152,1,507,Correct,3,688
3,WHWTW,161,2,630,Correct,3,664
3,QEQFQ,71,3,930,Correct,3,894
3,XNXNX,13,1,742,Correct,3,785
3,TXTXT,152,1,737,Correct,3,882
3,GLGNG,161,2,753,Correct,3,668
3,CUCTC,171,2,1401,Correct,3,883
3,FAFQF,16,2,701,Correct,3,754
3,ZLZLZ,151,1,629,Correct,3,922
3,YZYZY,152,1,576,Correct,3,915
3,CYCYC,153,2,545,Incorrect,3,829
3,HUHUH,192,,,Incorrect,3,727
3,OSORO,16,2,948,Correct,3,740
3,YOYOY,151,1,844,Correct,3,693
3,CECEC,8,3,614,Correct,3,740
3,VNENV,223,2,1002,Incorrect,3,738
3,KQKFK,222,2,631,Correct,3,867
3,XLXLE,225,1,711,Correct,3,759
3,QFQUQ,183,2,646,Correct,3,783
3,SWSLS,16,2,825,Correct,3,709
3,NBNPN,162,2,707,Correct,3,750
3,SGSGS,151,1,801,Correct,3,735
3,FBFBF,152,1,614,Correct,3,929
3,PFPFP,153,1,1035,Correct,3,658
3,AGASA,161,2,681,Correct,3,808
3,KEKEK,9,3,566,Correct,3,846
3,CWCOC,14,2,978,Correct,3,932
3,HXHXH,151,1,794,Correct,3,657
3,NUNZN,174,2,858,Correct,3,659
3,QMQVQ,16,2,766,Correct,3,908
3,SQSQS,151,1,827,Correct,3,723
3,ERNFN,231,,,Incorrect,3,676
3,AQANA,222,2,722,Correct,3,780
3,OBOEO,102,3,1022,Correct,3,833
3,SYSXS,14,2,779,Correct,3,946
3,QBQHQ,162,2,599,Correct,3,759
3,XQXQX,151,1,788,Correct,3,910
3,KUKFK,175,2,668,Correct,3,882
3,RKRKR,15,1,763,Correct,3,818
3,GFGFG,152,1,774,Correct,3,747
3,YBYVY,161,2,603,Correct,3,927
3,SPSTS,162,2,631,Correct,3,946
3,AQAQA,151,1,746,Correct,3,756
3,EPVPV,221,1,913,Correct,3,896
3,CQCEC,112,3,937,Correct,3,717
3,RFRCR,14,2,794,Correct,3,911
3,CPCVC,162,2,662,Correct,3,712
3,RXRCR,163,2,610,Correct,3,882
3,TNTLT,164,2,593,Correct,3,864
3,BSBSB,151,1,697,Correct,3,674
3,ZBZBZ,152,1,621,Correct,3,668
3,OYOUO,186,2,622,Correct,3,787
3,AKAOA,16,2,542,Correct,3,823
3,YQEWY,233,2,667,Correct,3,929
3,ZMZMZ,113,1,603,Correct,3,754
3,SWSTS,161,2,584,Correct,3,945
3,MFMQE,235,2,631,Correct,3,900
3,RSRLR,222,2,499,Correct,3,891
3,QEQWQ,121,3,841,Correct,3,718
4,K,5,3,7058,New Target,4,840
4,CACHC,161,2,869,Correct,4,800
4,RWRCR,162,2,649,Correct,4,858
4,FOFVF,163,2,703,Correct,4,651
4,LGLGL,151,1,672,Correct,4,660
4,PLPLP,152,1,594,Correct,4,651
4,NPNPN,153,1,711,Correct,4,741
4,SGSZS,161,2,704,Correct,4,949
4,DNDMD,162,2,684,Correct,4,809
4,OCOAK,235,2,485,Correct,4,882
4,VYVYV,113,1,657,Correct,4,660
4,RLRLR,152,1,639,Correct,4,797
4,DKDKD,7,3,631,Correct,4,669
4,ZLZLZ,13,1,981,Correct,4,837
4,FZFZF,152,1,563,Correct,4,882
4,CFCFC,153,1,614,Correct,4,796
4,OZOZO,154,1,689,Correct,4,921
4,XEXEX,191,1,620,Correct,4,891
4,NVNFN,16,2,879,Correct,4,790
4,AYAYA,151,1,955,Correct,4,654
4,BNBVB,161,2,850,Correct,4,756
4,AHKXA,233,2,1325,Correct,4,739
4,WFWFW,113,1,687,Correct,4,862
4,SNSNS,152,1,763,Correct,4,817
4,FKFMF,81,2,613,Incorrect,4,876
4,DZDYD,14,2,665,Correct,4,754
4,GXGDG,162,2,781,Correct,4,668
4,AYAYK,225,1,872,Correct,4,759
4,FPFGF,222,2,950,Correct,4,651
4,WRWRW,151,1,843,Correct,4,749
4,YPYEY,182,2,879,Correct,4,939
4,SQSQS,15,1,729,Correct,4,752
4,WZWPW,161,2,788,Correct,4,880
4,CKCKC,9,3,833,Correct,4,774
4,BWBVB,14,2,871,Correct,4,842
4,HMHMH,151,1,686,Correct,4,850
4,VEVNV,173,2,905,Correct,4,779
4,GMGVG,16,2,554,Correct,4,934
4,XHXKX,102,3,744,Correct,4,893
4,QXQRQ,14,2,1074,Correct,4,825
4,LQLQL,151,1,626,Correct,4,745
4,ALELA,223,1,526,Correct,4,898
4,TPTKT,222,2,607,Correct,4,895
4,GEGEG,194,1,1058,Correct,4,743
4,ZNZNZ,15,1,720,Correct,4,803
4,YZYZY,152,1,861,Correct,4,781
4,SYSYS,153,1,655,Correct,4,947
4,ZSZSZ,221,1,910,Correct,4,767
4,LALGL,222,2,1049,Correct,4,703
4,CYCTC,162,2,715,Correct,4,740
4,WEWEW,195,1,777,Correct,4,754
4,CHCSC,16,2,671,Correct,4,920
4,GWGXG,162,2,761,Correct,4,914
4,FGFGF,151,1,628,Correct,4,770
4,QWQKQ,112,3,926,Correct,4,938
4,OQOFO,14,2,952,Correct,4,676
4,PMPEP,186,2,826,Correct,4,880
4,WBWPW,16,2,723,Correct,4,768
4,KCDHD,231,2,637,Correct,4,834
4,RSRWR,222,2,651,Correct,4,838
4,HGHGH,151,1,732,Correct,4,738
4,SKSKS,12,,,Incorrect,4,714
5,L,5,3,3549,New Target,5,701
5,PDPDP,151,1,701,Correct,5,827
5,WAWAW,152,1,628,Correct,5,949
5,HWHWH,153,1,745,Correct,5,693
5,SHSHS,154,1,704,Correct,5,885
5,BRBWB,161,2,903,Correct,5,934
5,FPFBF,162,2,652,Correct,5,860
5,GAGAG,151,1,714,Correct,5,787
5,QVQGQ,161,2,970,Correct,5,754
5,CLCLC,7,3,673,Correct,5,730
5,XWXWX,13,2,844,Incorrect,5,888
5,AUAUA,152,1,554,Correct,5,677
5,CKCKC,191,,,Incorrect,5,760
5,FNFCF,16,2,677,Correct,5,835
5,UHUQU,162,2,932,Correct,5,746
5,FZFZF,151,1,602,Correct,5,719
5,THLHT,223,1,525,Correct,5,744
5,CUCLC,82,3,1346,Correct,5,730
5,BSBSB,13,1,806,Correct,5,771
5,FDFBF,161,2,754,Correct,5,744
5,LXRXR,221,1,814,Correct,5,735
5,ZOZNZ,222,2,629,Correct,5,865
5,UZUZU,151,1,1098,Correct,5,713
5,AQATA,161,2,597,Correct,5,908
5,UNUPU,162,2,766,Correct,5,697
5,RVRKR,182,2,1090,Correct,5,900
5,URURU,15,1,631,Correct,5,696
5,VLVLV,9,3,744,Correct,5,757
5,DXDVD,14,2,1185,Correct,5,842
5,PZPZP,151,1,637,Correct,5,717
5,LXUMU,231,2,577,Correct,5,670
5,AKADA,173,2,533,Incorrect,5,752
5,HYHYH,15,1,874,Correct,5,755
5,AVAVA,152,1,573,Correct,5,906
5,TUTUT,153,1,495,Correct,5,834
5,XYXWX,161,2,589,Correct,5,914
5,TKTDT,174,2,527,Correct,5,775
5,NXNYN,16,2,535,Correct,5,691
5,USUCU,162,2,576,Correct,5,679
5,ZMZMZ,151,1,613,Correct,5,658
5,WRWAW,161,2,822,Correct,5,844
5,GWGXG,162,2,509,Correct,5,873
5,MUMYL,235,2,655,Correct,5,856
5,CNCNC,113,1,563,Correct,5,697
5,RLRLR,10,3,611,Correct,5,851
5,UAUWU,14,2,725,Correct,5,772
5,FXLRF,233,2,660,Correct,5,678
5,PFPFP,113,1,775,Correct,5,719
5,HPHPH,152,1,637,Correct,5,936
5,GKGKG,195,1,707,Correct,5,664
5,ZUZTZ,16,2,656,Correct,5,861
5,AVASA,162,2,577,Correct,5,721
5,PRPRP,151,1,634,Correct,5,671
5,YPYPY,152,1,619,Correct,5,667
5,ZLZOZ,111,3,554,Correct,5,818
5,WMWSW,14,2,667,Correct,5,866
5,RZRXR,162,2,596,Correct,5,900
5,QWQWQ,151,1,610,Correct,5,921
5,ZKZKZ,196,1,853,Correct,5,717
5,CVCVL,225,1,946,Incorrect,5,697
5,NMNMN,113,1,883,Correct,5,855
5,TRTGT,161,2,472,Correct,5,779
5,CTCTC,151,1,1039,Correct,5,830
5,RKRLR,122,3,1013,Correct,5,656
6,B,5,3,4771,New Target,6,871
6,YMYGY,161,2,775,Correct,6,809
6,HUHRH,162,2,752,Correct,6,812
6,WHWHW,151,2,551,Incorrect,6,876
6,MGMRM,161,2,488,Correct,6,792
6,ZVZWZ,162,2,608,Correct,6,708
6,RCRTR,163,2,653,Correct,6,926
6,DSDRD,164,2,595,Correct,6,674
6,VTBDV,233,2,549,Correct,6,806
6,DSDHD,222,2,614,Correct,6,899
6,QEQEQ,151,1,664,Correct,6,790
6,XOXQX,161,1,599,Incorrect,6,825
6,RARBR,72,2,711,Incorrect,6,835
6,GMGMG,13,1,914,Correct,6,822
6,ELERE,171,2,788,Correct,6,928
6,HZHUH,16,2,923,Correct,6,868
6,RHRVR,162,2,620,Correct,6,944
6,YBYBY,8,3,561,Correct,6,723
6,PYPVP,14,2,1015,Correct,6,654
6,TLTLT,192,1,569,Correct,6,828
6,QTQTQ,15,1,680,Correct,6,835
6,NXNVN,161,2,916,Correct,6,832
6,QNQNQ,151,1,648,Correct,6,809
6,FUFHF,161,2,679,Correct,6,863
6,YVYFB,235,2,772,Incorrect,6,784
6,WQWSW,222,2,575,Correct,6,754
6,HNHLH,193,2,574,Incorrect,6,947
6,OSOTO,16,2,527,Correct,6,829
6,GWGOG,162,2,494,Correct,6,931
6,UBUBU,9,3,994,Correct,6,841
6,CWCWC,13,1,863,Correct,6,908
6,OCOEO,161,2,521,Correct,6,753
6,MNMNM,151,1,993,Correct,6,713
6,XLXLX,194,1,724,Correct,6,803
6,AYAYA,15,1,690,Correct,6,776
6,FUFAF,161,2,636,Correct,6,868
6,ANAQA,162,2,584,Correct,6,926
6,BUPWP,231,2,643,Correct,6,944
6,WSWSW,113,1,822,Correct,6,711
6,FRFRF,152,1,731,Correct,6,925
6,AUAUA,153,1,716,Correct,6,677
6,GMGCG,161,2,984,Correct,6,794
6,HLHWH,175,2,567,Correct,6,873
6,PQBQP,223,1,870,Correct,6,945
6,AZABA,102,3,911,Correct,6,749
6,CWCVC,14,2,705,Correct,6,886
6,FAFAF,151,1,560,Correct,6,683
6,VMVSV,161,2,547,Correct,6,802
6,GBGBG,11,3,726,Correct,6,821
6,FOFNF,14,2,642,Correct,6,843
6,DSDSD,151,1,705,Correct,6,826
6,YDYDY,152,1,612,Correct,6,661
6,FOFOF,153,1,634,Correct,6,659
6,CHCHB,225,1,1162,Correct,6,779
6,ZCZCZ,113,1,554,Correct,6,697
6,DZDGD,161,2,657,Correct,6,694
6,MLMEM,176,2,785,Correct,6,717
6,PXPXP,15,1,824,Correct,6,839
6,QYQYQ,152,1,804,Correct,6,686
6,GRGCG,161,2,1129,Correct,6,949
6,QVQVQ,151,1,676,Correct,6,883
6,XYXNX,161,2,972,Correct,6,939
6,BHMHM,221,1,876,Correct,6,929
6,CBCBC,12,3,740,Correct,6,803
7,W,5,3,2839,New Target,7,728
7,QKQKQ,151,1,757,Correct,7,830
7,DUDQD,161,2,672,Correct,7,745
7,OKOKO,151,1,545,Correct,7,716
7,EOEOE,152,1,629,Correct,7,871
7,URUPU,161,2,724,Correct,7,763
7,GMGAG,162,2,774,Correct,7,652
7,HVWDH,233,2,671,Correct,7,787
7,MHMHM,113,1,585,Correct,7,921
7,YXYVY,161,2,1072,Correct,7,706
7,FNFNF,151,1,746,Correct,7,865
7,AWAWA,7,3,675,Correct,7,901
7,ZAZAZ,13,1,752,Correct,7,821
7,OYOYO,152,1,618,Correct,7,910
7,SQSQS,153,1,650,Correct,7,760
7,OSOSO,154,1,774,Correct,7,879
7,FCFBF,181,2,864,Correct,7,781
7,EUEUE,15,1,680,Correct,7,731
7,CYCGC,161,2,632,Correct,7,787
7,SZSUS,162,2,978,Correct,7,904
7,OFOFO,151,1,738,Correct,7,926
7,RVRUR,161,2,993,Correct,7,685
7,ZBZBZ,192,1,1095,Correct,7,725
7,UCUTU,16,2,630,Correct,7,737
7,NWNWN,8,3,769,Correct,7,914
7,XNXUX,14,2,732,Correct,7,770
7,CXCNC,162,2,572,Correct,7,697
7,AUAUW,225,1,824,Correct,7,906
7,HEHEH,113,1,836,Correct,7,774
7,UFWFU,223,1,816,Correct,7,721
7,HVHEH,222,2,898,Correct,7,934
7,YBYBY,193,1,944,Correct,7,946
7,OYOYO,15,1,687,Correct,7,887
7,TMTWT,91,2,962,Incorrect,7,711
7,HTHTH,13,1,608,Correct,7,938
7,UHUHU,152,1,781,Correct,7,887
7,EVEBE,184,2,614,Incorrect,7,816
7,HZHMH,16,2,793,Correct,7,778
7,VHVCV,162,2,581,Correct,7,688
7,WAGDG,231,2,600,Correct,7,765
7,PFPFP,113,2,585,Incorrect,7,777
7,OQOQO,152,1,1260,Correct,7,799
7,TWTWT,10,3,530,Correct,7,802
7,VKVDV,14,2,901,Correct,7,785
7,WPAPA,221,1,799,Correct,7,665
7,HBHBH,195,1,924,Correct,7,686
7,ZMZAZ,16,2,813,Correct,7,910
7,SYSYS,151,1,599,Correct,7,822
7,FZFXF,161,2,728,Correct,7,803
7,SMSMS,151,1,533,Correct,7,817
7,XOXOX,152,1,622,Correct,7,655
7,FWFWF,11,1,497,Incorrect,7,704
7,ENEBE,186,2,646,Correct,7,827
7,ZVZGZ,16,2,628,Correct,7,757
7,EZEZE,151,1,657,Correct,7,927
7,TOTEW,235,2,1221,Correct,7,726
7,PDPDP,113,1,666,Correct,7,861
7,TKTWT,122,3,907,Correct,7,745
8,M,5,3,1637,New Target,8,652
8,VYVNV,161,2,929,Correct,8,692
8,KLKTK,162,2,625,Correct,8,936
8,NQNQN,151,1,573,Correct,8,898
8,VHVEV,161,2,611,Correct,8,728
8,XNXNM,225,2,915,Incorrect,8,840
8,USUVU,222,2,713,Correct,8,781
8,KRKZK,162,2,653,Correct,8,681
8,TMTET,71,3,952,Correct,8,923
8,GFGFG,13,1,765,Correct,8,756
8,OPODO,161,2,692,Correct,8,888
8,KCKCK,151,1,564,Correct,8,751
8,VTVTV,152,1,553,Correct,8,692
8,LSLSL,153,1,639,Correct,8,694
8,DLDLD,154,1,515,Correct,8,667
8,NYNYN,155,1,827,Correct,8,744
8,DCMAD,233,2,674,Correct,8,884
8,TDTDT,113,1,781,Correct,8,884
8,GVGRG,161,2,635,Correct,8,662
8,ZUZUZ,151,1,673,Correct,8,655
8,OGOVO,161,2,667,Correct,8,876
8,PWPTP,171,2,966,Correct,8,851
8,KLKDM,235,2,901,Correct,8,932
8,SMSMS,8,1,621,Incorrect,8,744
8,PRPSP,14,2,718,Correct,8,753
8,DVDYD,162,2,653,Correct,8,702
8,PXPMP,92,3,738,Correct,8,716
8,GDGLG,14,2,702,Correct,8,760
8,SWSWS,192,1,845,Correct,8,733
8,GDGLG,16,2,759,Correct,8,748
8,MTCYC,231,2,1288,Correct,8,686
8,GSGSG,113,1,653,Correct,8,880
8,YQYTY,161,2,554,Correct,8,863
8,ZLZPZ,162,2,746,Correct,8,882
8,HZHZH,151,1,968,Correct,8,705
8,MSOSO,221,1,1255,Correct,8,915
8,HWHWH,193,1,782,Correct,8,811
8,PYPAP,16,2,648,Correct,8,791
8,SPSVS,162,2,602,Correct,8,747
8,XLXLX,151,1,687,Correct,8,738
8,YMYMY,10,3,781,Correct,8,830
8,HYHYH,13,1,656,Correct,8,938
8,OWOGO,174,2,1068,Correct,8,898
8,PHPOP,16,2,588,Correct,8,824
8,NPNSN,162,2,661,Correct,8,949
8,HVMVH,223,2,614,Incorrect,8,798
8,THTFT,222,2,600,Correct,8,832
8,STSTS,151,1,630,Correct,8,783
8,AGAMA,112,2,641,Incorrect,8,942
8,PEPEP,13,1,947,Correct,8,790
8,ZWZWZ,195,1,1012,Correct,8,830
8,ODOZO,16,2,616,Correct,8,744
8,LRLOL,162,2,633,Correct,8,806
8,GZGZG,151,1,750,Correct,8,675
8,TGTGT,152,1,682,Correct,8,757
8,CUCSC,161,2,665,Correct,8,763
8,SCSCS,151,1,1368,Correct,8,783
8,AWAWA,196,1,834,Correct,8,668
8,NLNLN,15,1,830,Correct,8,652
8,VNVNV,152,1,1145,Correct,8,682
8,GMGMG,12,3,728,Correct,8,763
9,S,5,3,3811,New Target,9,925
9,NBNBN,151,1,1004,Correct,9,739
9,KVKZK,161,2,606,Correct,9,765
9,LBLBL,151,1,554,Correct,9,916
9,XLXLX,152,1,641,Correct,9,685
9,ZXZXZ,153,1,604,Correct,9,945
9,KNKZK,161,2,881,Correct,9,747
9,TQTAT,162,2,693,Correct,9,913
9,CLCUC,163,2,615,Correct,9,712
9,ZCZFZ,164,2,604,Correct,9,705
9,NSNSN,7,3,794,Correct,9,909
9,HGHGH,13,1,710,Correct,9,772
9,THTDT,161,2,608,Correct,9,912
9,VMVMV,191,1,1149,Correct,9,916
9,CVCDC,16,2,686,Correct,9,715
9,ZAZRZ,162,2,670,Correct,9,714
9,XTXZX,163,2,1018,Correct,9,826
9,OXOXO,151,1,697,Correct,9,883
9,DCDSD,82,3,680,Correct,9,739
9,PQPDP,14,,,Incorrect,9,858
9,ZMZMZ,192,1,659,Incorrect,9,684
9,BEBEB,15,1,709,Correct,9,745
9,FCFCF,152,1,624,Correct,9,877
9,YAYBY,161,2,863,Correct,9,817
9,KNKVK,162,2,665,Correct,9,771
9,SEPCP,231,2,905,Correct,9,761
9,OPOPO,113,1,674,Correct,9,654
9,XMXMX,193,1,705,Correct,9,778
9,KEKEK,15,1,697,Correct,9,944
9,USUSU,9,3,796,Correct,9,653
9,YHSHY,223,1,1161,Correct,9,701
9,UPUPU,113,1,561,Correct,9,885
9,XZXZX,152,1,559,Correct,9,927
9,KGKXK,161,2,653,Correct,9,927
9,QEQPQ,162,2,648,Correct,9,901
9,NUNUS,225,1,709,Correct,9,832
9,BXBXB,113,1,639,Correct,9,902
9,SQHQH,221,1,497,Correct,9,716
9,ACACA,113,1,571,Correct,9,664
9,KMKBK,174,2,693,Correct,9,658
9,EGSVE,233,2,546,Correct,9,781
9,HYHYH,113,1,871,Correct,9,806
9,LULUL,152,1,663,Correct,9,922
9,AEAEA,153,1,805,Correct,9,790
9,TXTST,102,2,651,Incorrect,9,937
9,FDFCF,14,2,891,Correct,9,816
9,KVKVK,151,2,595,Incorrect,9,811
9,UBUCU,161,2,783,Correct,9,934
9,GAGMG,185,2,692,Correct,9,904
9,UXUGU,16,2,638,Correct,9,898
9,HOHOH,151,1,681,Correct,9,873
9,QUQTS,235,2,952,Correct,9,774
9,YZYZY,113,1,630,Correct,9,909
9,BSBSB,11,3,597,Correct,9,853
9,FEFEF,13,1,940,Correct,9,669
9,GMGMG,196,1,576,Correct,9,788
9,TGTXT,16,2,727,Correct,9,699
9,LSLFL,121,3,689,Correct,9,857
10,Q,5,3,2292,New Target,10,711
10,ZHZOZ,161,2,1203,Correct,10,688
10,RZRZR,151,1,734,Correct,10,824
10,BFBFB,152,1,644,Correct,10,927
10,GBGBG,153,1,740,Correct,10,794
10,OGOXO,161,2,993,Correct,10,740
10,UEQOU,233,2,1077,Correct,10,701
10,BOBRB,222,2,691,Correct,10,822
10,DYDVD,162,2,849,Correct,10,844
10,COCOC,151,1,902,Correct,10,828
10,YZYQY,72,3,799,Correct,10,668
10,FHFWF,14,2,809,Correct,10,816
10,ANANQ,225,1,772,Correct,10,720
10,ZAZAZ,113,1,553,Correct,10,864
10,ERESE,181,2,554,Incorrect,10,832
10,XTXOX,16,2,1390,Correct,10,767
10,NXNXN,151,1,1492,Correct,10,696
10,OVOZO,161,2,1157,Correct,10,800
10,WUWOW,162,2,559,Correct,10,854
10,FWFVF,163,2,658,Correct,10,819
10,NSNKN,172,2,590,Incorrect,10,905
10,VWVNV,16,2,562,Correct,10,714
10,XZXZX,151,1,777,Correct,10,650
10,VQVQV,8,3,675,Correct,10,790
10,GYGPG,14,2,1030,Correct,10,689
10,OBOSO,183,2,598,Correct,10,768
10,YUYUY,15,1,643,Correct,10,877
10,NDNQN,92,3,914,Correct,10,839
10,FCFHF,14,2,794,Correct,10,762
10,EFEFE,151,1,865,Correct,10,903
10,NSNSN,194,1,595,Correct,10,949
10,YPYFY,16,2,564,Correct,10,774
10,ZKZKZ,151,3,660,Incorrect,10,911
10,QZQDR,231,,,Incorrect,10,918
10,AOAHA,222,2,594,Correct,10,949
10,BGBGB,151,1,697,Correct,10,681
10,HQHQH,10,3,551,Correct,10,790
10,UHUBU,14,2,1145,Correct,10,877
10,KRKSK,185,2,813,Correct,10,664
10,TOTOT,15,1,725,Correct,10,823
10,APAPA,152,1,556,Correct,10,919
10,VDVYV,161,1,623,Incorrect,10,782
10,FOFTF,162,2,711,Correct,10,948
10,QVXVX,221,2,617,Incorrect,10,673
10,GHGRG,222,2,584,Correct,10,817
10,LFLFL,151,1,646,Correct,10,853
10,HLHLH,152,1,1110,Correct,10,766
10,KWQWK,223,1,615,Correct,10,723
10,YQYQY,11,3,573,Correct,10,664
10,ADADA,13,1,611,Correct,10,684
10,OGOAO,161,2,677,Correct,10,753
10,EOEFE,162,2,1056,Correct,10,882
10,USUSU,196,1,1073,Correct,10,745
10,VFVAQ,235,2,707,Correct,10,744
10,DZDXD,222,2,789,Correct,10,670
10,HVHDH,162,2,1140,Correct,10,659
10,DWDWD,151,1,1092,Correct,10,754
10,GBGBG,152,1,736,Correct,10,828
10,AOADA,161,2,625,Correct,10,733
10,GQGQG,12,3,884,Correct,10,716
11,T,5,3,1566,New Target,11,946
11,KEKEK,151,1,885,Correct,11,711
11,LBLBL,152,1,528,Correct,11,688
11,HEHVH,161,2,626,Correct,11,816
11,FRFOF,162,2,563,Correct,11,794
11,EBEBE,151,1,505,Correct,11,687
11,HTHTH,7,3,723,Correct,11,661
11,MAMDM,14,2,751,Correct,11,823
11,VOVOV,151,1,681,Correct,11,855
11,XQXQX,191,1,825,Correct,11,795
11,PBPAP,16,2,543,Correct,11,830
11,MXMLM,162,2,686,Correct,11,914
11,TCNCN,221,1,553,Correct,11,876
11,OBONO,222,2,634,Correct,11,885
11,RCROR,162,2,924,Correct,11,791
11,PBPRT,235,2,565,Correct,11,705
11,WFWVW,222,2,777,Correct,11,732
11,LTLUL,81,3,1026,Correct,11,781
11,ZDZPZ,14,2,1063,Correct,11,797
11,NCNQN,182,2,627,Correct,11,854
11,XZXNX,16,2,624,Correct,11,860
11,GOGOG,151,1,621,Correct,11,908
11,DFDFD,152,1,819,Correct,11,665
11,VWTRV,233,2,1078,Correct,11,932
11,CFCVC,222,2,936,Correct,11,726
11,PAPAP,151,1,751,Correct,11,774
11,EQEYE,173,2,1287,Correct,11,885
11,DNDED,16,2,575,Correct,11,768
11,PTPTP,9,1,640,Incorrect,11,818
11,ZCZCZ,13,1,765,Correct,11,826
11,MZMZM,152,1,585,Correct,11,733
11,ULUVU,161,2,661,Correct,11,901
11,BRBGB,162,2,534,Correct,11,741
11,MLMLT,225,1,966,Correct,11,880
11,GQGQG,194,2,1274,Incorrect,11,821
11,HGHGH,15,1,829,Correct,11,913
11,RVRBR,161,2,655,Correct,11,929
11,ZOZDZ,162,2,668,Correct,11,816
11,VYVYV,151,1,635,Correct,11,766
11,RVRVR,152,1,1147,Correct,11,776
11,OTOTO,10,3,648,Correct,11,774
11,PXPXP,13,2,739,Incorrect,11,906
11,MCMCM,152,1,925,Correct,11,863
11,YUYUY,153,1,574,Correct,11,889
11,DYDYD,154,1,671,Correct,11,842
11,WDWDW,155,1,554,Correct,11,867
11,DYDQD,185,2,888,Correct,11,920
11,KDKNK,16,2,606,Correct,11,747
11,HOHOH,151,1,587,Correct,11,916
11,TWEZE,231,2,854,Correct,11,944
11,NANHN,222,2,905,Correct,11,933
11,VQVWV,176,2,753,Correct,11,801
11,ZRZRZ,15,1,1000,Correct,11,827
11,VTVGV,111,3,858,Correct,11,805
11,HWHVH,14,2,886,Correct,11,696
11,EHEHE,151,1,645,Correct,11,941
11,VRVLV,161,2,642,Correct,11,844
11,ACACA,151,1,660,Correct,11,777
11,WBTBW,223,1,671,Correct,11,939
11,UTUTU,12,3,719,Correct,11,751
12,O,5,3,3299,New Target,12,917
12,UXULU,161,2,786,Correct,12,795
12,MUMDM,162,2,673,Correct,12,654
12,VLVLV,151,1,870,Correct,12,675
12,BDBHB,161,2,698,Correct,12,893
12,KEKEK,151,1,753,Correct,12,946
12,WKWKW,152,1,571,Correct,12,859
12,AWAWA,153,1,619,Correct,12,875
12,EVEVE,154,1,872,Correct,12,844
12,PHPOP,72,2,570,Incorrect,12,910
12,WXWAW,14,2,746,Correct,12,926
12,PWPHP,162,2,631,Correct,12,723
12,ZTZTZ,191,1,1130,Correct,12,712
12,HVHMH,16,2,721,Correct,12,896
12,DKDKD,151,1,1053,Correct,12,856
12,NPNPN,152,1,609,Correct,12,747
12,ZRZNZ,161,2,717,Correct,12,943
12,OGCGC,221,1,1578,Correct,12,819
12,LFLFL,113,1,690,Correct,12,868
12,WXWXW,152,1,805,Correct,12,672
12,KPKPK,153,1,589,Correct,12,790
12,FRFKF,161,2,707,Correct,12,747
12,EOEOE,8,3,847,Correct,12,879
12,GEGEG,13,1,952,Correct,12,777
12,LKLBO,235,2,779,Correct,12,824
12,MLMZM,222,2,807,Correct,12,822
12,ASACA,162,2,897,Correct,12,739
12,LOLOL,9,3,745,Correct,12,794
12,XLXLX,13,1,908,Correct,12,655
12,WHWHW,152,1,704,Correct,12,816
12,ETETE,192,1,952,Correct,12,893
12,OXGZG,231,2,681,Correct,12,838
12,CZCZC,113,1,732,Correct,12,677
12,LGLGL,152,1,602,Correct,12,811
12,VLVPV,161,2,665,Correct,12,851
12,UYUYO,225,1,925,Correct,12,659
12,SMSMS,113,1,653,Correct,12,929
12,RTRTR,193,1,582,Correct,12,945
12,KVKHK,16,2,635,Correct,12,683
12,ROROR,101,3,814,Correct,12,712
12,PRPRP,13,1,1297,Correct,12,939
12,LALHL,161,2,658,Correct,12,893
12,PLPLP,151,1,786,Correct,12,761
12,CTCTC,194,1,653,Correct,12,794
12,XGXAX,16,2,656,Correct,12,698
12,NMNMN,151,1,860,Correct,12,915
12,HLHZH,161,2,724,Correct,12,737
12,YOYOY,11,3,499,Correct,12,746
12,PZOZP,223,1,1096,Correct,12,729
12,EAEAE,113,1,605,Correct,12,659
12,GXGVG,161,2,768,Correct,12,781
12,HMHGH,162,2,908,Correct,12,790
12,GTGTG,195,1,686,Correct,12,932
12,LMLGL,16,2,685,Correct,12,708
12,ECEDE,162,2,1037,Correct,12,685
12,PSPKP,163,2,558,Correct,12,822
12,MCOBM,233,2,1135,Correct,12,877
12,EMEME,113,1,840,Correct,12,866
12,CTCRC,176,2,956,Correct,12,922
12,NSNSN,15,1,674,Correct,12,720
12,MWMVM,161,2,750,Correct,12,816
12,CPCOC,122,3,951,Correct,12,835
13,H,5,3,1786,New Target,13,927
13,VUVUV,151,1,735,Correct,13,910
13,YVYVY,152,1,656,Correct,13,701
13,XUXUX,153,1,730,Correct,13,941
13,NRNWN,161,2,673,Correct,13,947
13,MZMKM,162,2,755,Correct,13,684
13,HLVLV,221,1,705,Correct,13,684
13,DXDGD,222,2,624,Correct,13,753
13,LHLAL,71,3,620,Correct,13,826
13,YMYFY,14,1,1002,Incorrect,13,808
13,AOARA,171,2,783,Correct,13,724
13,ZKZAZ,16,2,679,Correct,13,847
13,RZRZR,151,1,713,Correct,13,726
13,NFNAN,161,2,650,Correct,13,691
13,KUKEK,162,2,638,Correct,13,650
13,XAXYX,163,2,574,Correct,13,780
13,LKLUL,164,2,883,Correct,13,728
13,NLNLN,151,1,794,Correct,13,880
13,WDWOW,182,2,1092,Correct,13,767
13,EWEWE,15,2,607,Incorrect,13,912
13,VHVHV,8,3,976,Correct,13,790
13,PVPVP,13,1,544,Correct,13,837
13,CRCSC,161,2,640,Correct,13,914
13,NWNWN,151,1,1098,Correct,13,944
13,SQSQS,152,1,728,Correct,13,757
13,AEASA,161,2,868,Correct,13,798
13,GOGOG,193,1,678,Correct,13,941
13,QGQGQ,15,1,836,Correct,13,815
13,FMFMF,152,1,800,Correct,13,721
13,PFPFP,153,1,766,Correct,13,712
13,SYSHS,92,3,1044,Correct,13,842
13,QGQKQ,14,2,852,Correct,13,788
13,ELELH,225,1,775,Correct,13,881
13,MRMRM,113,1,743,Correct,13,658
13,GUGNG,161,2,935,Correct,13,668
13,ZOZOZ,194,1,728,Correct,13,916
13,EZEZE,15,1,613,Correct,13,718
13,FHFKF,101,3,1142,Correct,13,840
13,GSHLG,233,2,769,Correct,13,787
13,FKFXF,222,2,831,Correct,13,682
13,DEDYD,162,2,571,Correct,13,652
13,UXUVU,163,2,490,Correct,13,861
13,MCMOM,185,2,591,Correct,13,772
13,BXBUH,235,2,591,Correct,13,874
13,DMDMD,113,1,1354,Correct,13,949
13,BXBDB,161,2,793,Correct,13,950
13,AVAVA,151,1,784,Correct,13,926
13,QUHUQ,223,1,1099,Correct,13,799
13,BRBRB,113,1,650,Correct,13,705
13,ZHZHZ,11,3,707,Correct,13,936
13,VZVZV,13,1,874,Correct,13,929
13,HBUQU,231,,,Incorrect,13,751
13,EUEUE,113,1,642,Correct,13,716
13,RQRDR,161,2,717,Correct,13,940
13,COCOC,196,1,683,Correct,13,749
13,VNVSV,16,2,588,Correct,13,708
13,WHWHW,12,1,595,Incorrect,13,687
14,G,5,3,2450,New Target,14,685
14,EBEBE,151,1,744,Correct,14,753
14,QPQUQ,161,2,885,Correct,14,791
14,XDXDX,151,1,625,Correct,14,654
14,YXYXY,152,1,597,Correct,14,674
14,MBMBM,153,1,539,Correct,14,726
14,QMQKQ,161,2,819,Correct,14,661
14,EYETE,162,2,893,Correct,14,812
14,UKUKU,151,1,626,Correct,14,815
14,MPGPM,223,1,802,Correct,14,791
14,ANANA,113,1,599,Correct,14,901
14,UAUAU,152,1,605,Correct,14,679
14,ADASA,161,2,627,Correct,14,679
14,LKLGL,72,3,758,Correct,14,745
14,UWUWU,13,1,716,Correct,14,927
14,MCMUM,161,2,834,Correct,14,948
14,YMYMY,151,1,647,Correct,14,889
14,RHRWR,171,2,917,Correct,14,866
14,DUDCD,16,2,885,Correct,14,902
14,ASAGA,82,3,941,Correct,14,753
14,DLDLD,13,1,774,Correct,14,685
14,ZXZDZ,161,2,637,Correct,14,853
14,ULUFU,162,2,572,Correct,14,836
14,DPDPG,225,1,1250,Correct,14,711
14,KHKTK,172,2,694,Correct,14,884
14,ZKZUZ,16,2,662,Correct,14,704
14,AKALA,162,2,818,Correct,14,925
14,CNCNC,151,1,760,Correct,14,852
14,PGPGP,9,3,772,Correct,14,736
14,UPUPU,13,3,737,Incorrect,14,759
14,FSGWF,233,2,1533,Correct,14,787
14,CACVC,222,2,1133,Correct,14,698
14,FTFTF,151,1,619,Correct,14,802
14,KFKCK,161,2,603,Correct,14,811
14,ZEZHZ,183,2,1129,Correct,14,913
14,NSNSN,15,1,773,Correct,14,879
14,ENENE,152,1,610,Correct,14,739
14,LXLWG,235,2,734,Correct,14,888
14,SMSUS,222,2,645,Correct,14,946
14,ZHZHZ,194,1,679,Correct,14,746
14,PFPFP,15,1,585,Correct,14,670
14,BABAB,152,1,549,Correct,14,901
14,XPXUX,161,2,618,Correct,14,738
14,ACACA,151,1,795,Correct,14,766
14,RGRGR,10,3,758,Correct,14,763
14,URURU,13,1,655,Correct,14,848
14,PKPTP,161,2,784,Correct,14,730
14,SGSGS,11,3,703,Correct,14,693
14,GZYVY,231,2,949,Correct,14,943
14,UDUTU,222,2,677,Correct,14,896
14,VHVHV,195,1,802,Correct,14,814
14,LWLNL,16,2,573,Correct,14,758
14,GKPKP,221,1,895,Correct,14,770
14,SQSPS,222,2,1059,Correct,14,840
14,WNWNW,151,1,834,Correct,14,868
14,MHMTM,176,2,635,Incorrect,14,719
14,RZRZR,15,1,674,Correct,14,654
14,CGCDC,121,2,764,Incorrect,14,901
15,A,5,3,5237,New Target,15,910
15,WQWEW,161,2,854,Correct,15,799
15,RWRKR,162,2,624,Correct,15,725
15,YRYRY,151,1,619,Correct,15,914
15,XOXOX,152,1,642,Correct,15,670
15,QPQPQ,153,1,1003,Correct,15,932
15,TDTDT,154,1,617,Correct,15,867
15,WXWBW,161,2,600,Correct,15,872
15,TATAT,7,3,664,Correct,15,806
15,MCMYM,14,2,610,Correct,15,888
15,SMSFS,162,2,628,Correct,15,787
15,ZLZMZ,163,2,550,Correct,15,703
15,VDVBV,164,2,741,Correct,15,866
15,XCXVX,165,2,669,Correct,15,904
15,LKLBA,235,2,717,Correct,15,725
15,NDNDN,113,1,616,Correct,15,888
15,YGYGY,191,1,772,Correct,15,885
15,VLVLV,15,1,690,Correct,15,690
15,WQWQW,152,1,579,Correct,15,703
15,MAMOM,81,3,953,Correct,15,764
15,YZABY,233,2,774,Correct,15,945
15,CFCFC,113,1,956,Correct,15,887
15,UTULU,161,2,721,Correct,15,761
15,KPKUK,162,2,717,Correct,15,791
15,TCTQT,163,2,732,Correct,15,740
15,FGFGF,192,1,916,Correct,15,859
15,RCRYR,16,2,617,Correct,15,856
15,KRKDK,162,2,749,Correct,15,724
15,CRCRC,151,1,1048,Correct,15,831
15,WOAOW,223,1,872,Correct,15,837
15,LPLWL,222,2,657,Correct,15,745
15,DGDUD,173,2,688,Correct,15,731
15,EMEZE,16,2,602,Correct,15,931
15,DADAD,9,3,751,Correct,15,725
15,WDWDW,13,1,796,Correct,15,738
15,AWQWQ,221,1,699,Correct,15,718
15,TKTQT,222,2,772,Correct,15,862
15,MTMFM,162,2,845,Correct,15,831
15,KAKAK,10,3,1041,Correct,15,866
15,BDBRB,14,2,786,Correct,15,743
15,QPQPQ,151,1,844,Correct,15,845
15,NDNDN,152,1,747,Correct,15,932
15,QYQGQ,184,2,582,Correct,15,803
15,VPVPV,15,1,742,Correct,15,802
15,RDRDA,225,1,792,Correct,15,700
15,KWKOK,222,2,619,Correct,15,904
15,TPTPT,151,1,750,Correct,15,769
15,DCDCD,152,1,727,Correct,15,861
15,OWOAO,112,3,1024,Correct,15,846
15,ZCZNZ,14,2,1072,Correct,15,797
15,MYMGM,185,2,653,Correct,15,839
15,ANLOL,231,2,1383,Correct,15,876
15,DWDPD,222,2,683,Correct,15,805
15,YQYQY,151,1,1288,Correct,15,842
15,LGLGL,196,1,627,Correct,15,718
15,VYVLV,16,2,620,Correct,15,940
15,MVMVM,151,1,891,Correct,15,788
15,QMQMQ,152,1,627,Correct,15,719
15,SXSXS,153,1,802,Correct,15,874
15,WAWAW,12,3,622,Correct,15,716
