Trial No,Stimulus,Trigger,Response,Response Time(ms),Correct,Block,Fixation Duration
Practice
OT Practice
1,SKSKS,15,,,False,0,662
1,DLDUD,16,2,890,Correct,0,889
1,PDPGP,16,2,799,Correct,0,735
1,MWMWM,15,1,1076,Correct,0,826
1,FTFTF,15,1,829,Correct,0,895
1,AXAMA,16,2,731,Correct,0,873
1,RYRGR,16,2,834,Correct,0,809
1,DODOD,15,2,626,False,0,847
1,QTQAQ,16,2,764,Correct,0,839
1,YEYEY,15,1,600,Correct,0,711
2,GYGDG,16,2,566,Correct,0,910
2,SWSWS,15,1,594,Correct,0,827
2,HLHUH,16,2,675,Correct,0,746
2,DEDED,15,1,618,Correct,0,911
2,ZPZOZ,16,2,589,Correct,0,666
2,ATATA,15,1,540,Correct,0,693
2,QOQOQ,15,1,843,Correct,0,897
2,FPFGF,16,2,704,Correct,0,794
2,TRTET,16,2,615,Correct,0,856
2,DQDQD,15,1,829,Correct,0,941
AT Practice
1,TKTKT,15,1,915,Correct,0,674
1,SLSUS,16,2,645,Correct,0,775
1,VZVGV,7,3,1457,Correct,0,748
1,XWXZX,7,3,902,Correct,0,660
1,ATATA,15,1,599,Correct,0,800
1,HXZMH,16,2,1275,Correct,0,659
1,TZTZT,7,,,False,0,726
1,UOUOU,15,1,909,Correct,0,736
1,ZTWAW,16,2,869,Correct,0,654
1,RZRER,7,3,1399,Correct,0,813
2,JYJDJ,16,,,False,0,663
2,DWDWD,15,2,851,False,0,661
2,GNGNG,7,1,780,False,0,696
2,NEZEZ,16,1,1123,Correct,0,782
2,RNROR,7,3,862,Correct,0,693
2,QTQNQ,7,3,796,Correct,0,900
2,HOHON,15,1,1215,Correct,0,883
2,KPKGK,16,2,1504,Correct,0,880
2,DRDED,16,,,False,0,754
2,LNLNL,7,3,1333,Correct,0,722
4,GLGLG,15,1,1068,Correct,0,774
4,DTDID,16,2,669,Correct,0,698
4,SMSGS,16,2,619,Correct,0,683
4,ZFZYZ,7,3,581,Correct,0,816
4,TSTFT,7,3,590,Correct,0,950
4,OFOFO,7,3,640,Correct,0,744
4,WYFGW,16,2,1362,Correct,0,662
4,WYWYW,15,1,1135,Correct,0,899
4,MFMCM,7,3,908,Correct,0,674
4,HQHEH,16,2,953,Correct,0,894
Trials
1,D,5,3,2164,New Target,1,826
1,BNBYB,161,2,658,Correct,1,943
1,FBFBF,151,1,1091,Correct,1,733
1,RKRKR,152,1,959,Correct,1,858
1,QSQNQ,161,2,882,Correct,1,812
1,CTCFC,162,2,1077,Correct,1,916
1,PDPDP,7,3,818,Correct,1,888
1,OPOFO,14,2,926,Correct,1,757
1,HLHNH,162,,,Incorrect,1,760
1,MFMFM,151,1,801,Correct,1,671
1,BTBTB,152,1,718,Correct,1,726
1,MCMPD,235,2,606,Correct,1,681
1,BMBFB,222,2,705,Correct,1,754
1,NTNZN,162,2,1059,Correct,1,657
1,MXMRM,163,2,710,Correct,1,695
1,APABA,164,2,766,Correct,1,949
1,FMDMF,223,1,725,Correct,1,884
1,QPQPQ,113,1,722,Correct,1,801
1,VQVMV,161,2,656,Correct,1,813
1,RERPR,162,2,787,Correct,1,692
1,KVKVK,151,1,858,Correct,1,868
1,AKAHA,161,2,822,Correct,1,729
1,VDVDV,8,1,639,Incorrect,1,807
1,DUGUG,221,1,1129,Correct,1,877
1,AFAFA,113,1,742,Correct,1,783
1,GYGYG,152,1,830,Correct,1,873
1,VXVSV,161,2,804,Correct,1,850
1,DOWGW,231,2,1518,Correct,1,792
1,QYQYQ,113,1,706,Correct,1,662
1,ODONO,91,3,1043,Correct,1,684
1,MSMSM,13,1,857,Correct,1,685
1,GYGYG,152,1,738,Correct,1,772
1,UMUMU,153,1,665,Correct,1,921
1,BZBZB,154,1,729,Correct,1,732
1,NTNBN,161,2,697,Correct,1,731
1,GNDYG,233,2,821,Correct,1,882
1,OCOSO,222,2,905,Correct,1,938
1,BHBFB,162,2,1042,Correct,1,697
1,QCQBQ,163,2,689,Correct,1,818
1,LQLQL,151,1,771,Correct,1,661
1,ZDZDZ,10,3,985,Correct,1,889
1,QNQZQ,14,2,992,Correct,1,742
1,CSCYC,162,2,592,Correct,1,840
1,RCRLR,163,2,596,Correct,1,699
1,FRFRF,151,1,775,Correct,1,792
1,WFWFW,152,1,704,Correct,1,883
1,QOQLQ,161,2,768,Correct,1,689
1,AWAQA,162,2,1136,Correct,1,687
1,EAEAE,151,1,658,Correct,1,744
1,AGAUA,161,2,560,Correct,1,826
1,YMYMY,151,1,629,Correct,1,823
1,XQXQX,152,2,480,Incorrect,1,853
1,SHSGS,161,2,760,Correct,1,708
1,PDPDP,11,3,990,Correct,1,918
1,ZGZGZ,13,1,1039,Correct,1,871
1,OXOXO,152,1,684,Correct,1,893
1,LYLYL,153,1,567,Correct,1,890
1,NKNKD,225,1,685,Correct,1,709
1,GNGNG,113,1,781,Correct,1,762
1,OYOBO,161,2,869,Correct,1,890
1,SOSOS,151,1,670,Correct,1,751
1,VHVHV,152,1,794,Correct,1,876
1,OKOXO,161,2,905,Correct,1,666
1,EZEZE,151,1,600,Correct,1,941
1,LDLDL,12,3,707,Correct,1,926
2,U,5,3,7345,New Target,2,934
2,BVBEB,161,2,932,Correct,2,776
2,FBFBF,151,1,844,Correct,2,727
2,RFRFR,152,1,811,Correct,2,674
2,NBNKN,161,2,645,Correct,2,746
2,MKMNM,162,2,788,Correct,2,847
2,QXQXQ,151,1,744,Correct,2,917
2,MQMYM,161,2,613,Correct,2,813
2,TGTPT,162,2,695,Correct,2,704
2,XOXOX,151,1,643,Correct,2,850
2,CUCUC,7,3,852,Correct,2,703
2,RFRFR,13,1,814,Correct,2,761
2,VYVSV,161,2,910,Correct,2,651
2,VDVDV,191,1,767,Correct,2,917
2,GKGQG,15,2,666,Correct,2,776
2,SCSCS,151,1,718,Correct,2,697
2,CTCUC,82,3,1213,Correct,2,694
2,RCRCR,13,1,856,Correct,2,730
2,BOBXB,161,2,638,Correct,2,793
2,FMFAF,162,2,746,Correct,2,887
2,BEBAB,163,2,676,Correct,2,868
2,PWPWP,151,1,1067,Correct,2,948
2,UQCKC,231,2,598,Correct,2,857
2,OCOCO,113,1,1515,Correct,2,656
2,TNTNT,152,1,1162,Correct,2,806
2,QCQGQ,161,2,616,Correct,2,720
2,WVWVW,151,1,1234,Correct,2,937
2,TQTQT,152,1,752,Correct,2,659
2,FOFOF,225,1,751,Correct,2,715
2,WVWFW,222,2,656,Correct,2,653
2,SWSWS,151,1,546,Correct,2,720
2,FYFCF,161,2,503,Correct,2,723
2,SUSWS,91,2,618,Incorrect,2,822
2,CACHC,14,2,813,Correct,2,759
2,VDVKV,172,2,1123,Correct,2,895
2,YCYCY,15,1,626,Correct,2,791
2,NMNTN,161,2,646,Correct,2,711
2,XOUKX,233,,,Incorrect,2,791
2,BPBPB,113,2,750,Incorrect,2,907
2,MRMRM,152,1,696,Correct,2,820
2,XMXMX,153,1,719,Correct,2,950
2,AUAHA,101,3,846,Correct,2,753
2,XKXEU,235,2,745,Correct,2,681
2,TFTFT,113,1,672,Correct,2,941
2,MDMDM,193,1,990,Correct,2,818
2,WYWMW,16,2,636,Correct,2,913
2,AZUZA,223,,,Incorrect,2,793
2,KEKHK,222,2,1100,Correct,2,706
2,LALAL,151,1,733,Correct,2,721
2,CWCDC,184,2,1256,Incorrect,2,791
2,SGSTS,16,2,851,Correct,2,723
2,PXPXP,151,1,713,Correct,2,788
2,GRGYG,161,2,714,Correct,2,653
2,PUPOP,111,3,824,Correct,2,780
2,RNRNR,14,2,594,Incorrect,2,849
2,KDKDK,195,1,625,Correct,2,838
2,KTKTK,15,1,646,Correct,2,673
2,OROKO,161,2,761,Correct,2,689
2,UNANA,221,1,898,Correct,2,815
2,TATAT,113,1,602,Correct,2,728
2,AWAWA,152,1,678,Incorrect,2,926
2,RDRDR,196,1,580,Correct,2,834
2,FCFCF,15,1,521,Correct,2,670
2,ZMZMZ,152,1,653,Correct,2,847
2,BUBUB,12,3,601,Correct,2,900
3,E,5,3,1283,New Target,3,839
3,YZYZY,151,,,Incorrect,3,834
3,VFVNV,161,2,667,Correct,3,704
3,KAKAK,151,1,616,Correct,3,863
3,TKTKT,152,1,708,Correct,3,935
3,WHWTW,161,2,601,Correct,3,949
3,QEQFQ,71,3,756,Correct,3,923
3,XNXNX,13,1,788,Correct,3,669
3,TXTXT,152,1,846,Correct,3,739
3,GLGNG,161,2,650,Correct,3,696
3,CUCTC,171,2,894,Correct,3,710
3,FAFQF,16,2,1538,Correct,3,879
3,ZLZLZ,151,1,818,Correct,3,689
3,YZYZY,152,1,777,Correct,3,816
3,CYCYC,153,1,616,Correct,3,713
3,HUHUH,192,1,1016,Correct,3,854
3,OSORO,16,2,716,Correct,3,734
3,YOYOY,151,1,653,Correct,3,725
3,CECEC,8,3,845,Correct,3,752
3,VNENV,223,,,Incorrect,3,684
3,KQKFK,222,2,636,Correct,3,939
3,XLXLE,225,1,583,Correct,3,891
3,QFQUQ,183,2,890,Correct,3,808
3,SWSLS,16,2,662,Correct,3,682
3,NBNPN,162,2,696,Correct,3,737
3,SGSGS,151,1,610,Correct,3,827
3,FBFBF,152,1,821,Correct,3,779
3,PFPFP,153,1,864,Correct,3,769
3,AGASA,161,2,820,Correct,3,896
3,KEKEK,9,1,559,Incorrect,3,780
3,CWCOC,14,2,630,Correct,3,712
3,HXHXH,151,1,691,Correct,3,877
3,NUNZN,174,2,1020,Correct,3,891
3,QMQVQ,16,2,814,Correct,3,763
3,SQSQS,151,1,569,Correct,3,792
3,ERNFN,231,2,648,Incorrect,3,861
3,AQANA,222,2,933,Correct,3,848
3,OBOEO,102,3,1032,Correct,3,819
3,SYSXS,14,2,890,Correct,3,791
3,QBQHQ,162,2,703,Correct,3,860
3,XQXQX,151,3,663,Incorrect,3,902
3,KUKFK,175,2,768,Correct,3,899
3,RKRKR,15,1,779,Correct,3,840
3,GFGFG,152,1,1013,Correct,3,783
3,YBYVY,161,2,602,Correct,3,689
3,SPSTS,162,2,759,Correct,3,936
3,AQAQA,151,1,625,Correct,3,795
3,EPVPV,221,1,705,Correct,3,803
3,CQCEC,112,2,594,Incorrect,3,706
3,RFRCR,14,2,805,Correct,3,790
3,CPCVC,162,2,641,Correct,3,758
3,RXRCR,163,2,643,Correct,3,750
3,TNTLT,164,2,611,Correct,3,750
3,BSBSB,151,1,612,Correct,3,769
3,ZBZBZ,152,1,563,Correct,3,862
3,OYOUO,186,2,520,Correct,3,729
3,AKAOA,16,2,745,Correct,3,873
3,YQEWY,233,2,611,Correct,3,892
3,ZMZMZ,113,1,761,Correct,3,713
3,SWSTS,161,2,739,Correct,3,792
3,MFMQE,235,2,778,Correct,3,885
3,RSRLR,222,2,610,Correct,3,892
3,QEQWQ,121,3,960,Correct,3,868
4,K,5,3,6433,New Target,4,696
4,CACHC,161,,,Incorrect,4,731
4,RWRCR,162,2,722,Correct,4,819
4,FOFVF,163,2,856,Correct,4,919
4,LGLGL,151,1,654,Correct,4,862
4,PLPLP,152,1,664,Correct,4,941
4,NPNPN,153,1,688,Correct,4,948
4,SGSZS,161,2,600,Correct,4,906
4,DNDMD,162,2,826,Correct,4,765
4,OCOAK,235,2,1349,Correct,4,723
4,VYVYV,113,1,617,Correct,4,833
4,RLRLR,152,2,730,Incorrect,4,822
4,DKDKD,7,3,839,Correct,4,810
4,ZLZLZ,13,1,907,Correct,4,865
4,FZFZF,152,1,686,Correct,4,853
4,CFCFC,153,1,617,Correct,4,893
4,OZOZO,154,1,573,Correct,4,696
4,XEXEX,191,1,938,Correct,4,933
4,NVNFN,16,2,667,Correct,4,911
4,AYAYA,151,1,620,Correct,4,761
4,BNBVB,161,2,679,Correct,4,940
4,AHKXA,233,3,776,Incorrect,4,737
4,WFWFW,113,1,1140,Correct,4,814
4,SNSNS,152,1,679,Correct,4,659
4,FKFMF,81,3,1081,Correct,4,650
4,DZDYD,14,2,710,Correct,4,816
4,GXGDG,162,2,1481,Correct,4,674
4,AYAYK,225,1,843,Correct,4,797
4,FPFGF,222,2,1012,Correct,4,727
4,WRWRW,151,1,968,Correct,4,699
4,YPYEY,182,2,617,Correct,4,800
4,SQSQS,15,1,681,Correct,4,757
4,WZWPW,161,2,697,Correct,4,783
4,CKCKC,9,3,886,Correct,4,833
4,BWBVB,14,2,685,Correct,4,811
4,HMHMH,151,1,794,Correct,4,868
4,VEVNV,173,2,584,Correct,4,650
4,GMGVG,16,2,640,Correct,4,701
4,XHXKX,102,1,1010,Incorrect,4,676
4,QXQRQ,14,2,1106,Correct,4,798
4,LQLQL,151,1,590,Correct,4,807
4,ALELA,223,1,688,Correct,4,827
4,TPTKT,222,3,827,Incorrect,4,819
4,GEGEG,194,1,952,Correct,4,694
4,ZNZNZ,15,1,737,Correct,4,657
4,YZYZY,152,1,1041,Correct,4,729
4,SYSYS,153,1,787,Correct,4,796
4,ZSZSZ,221,1,647,Correct,4,902
4,LALGL,222,2,1443,Correct,4,935
4,CYCTC,162,2,1087,Correct,4,930
4,WEWEW,195,1,619,Correct,4,841
4,CHCSC,16,2,608,Correct,4,721
4,GWGXG,162,2,1005,Correct,4,918
4,FGFGF,151,1,610,Correct,4,662
4,QWQKQ,112,3,883,Correct,4,826
4,OQOFO,14,2,792,Correct,4,851
4,PMPEP,186,2,1012,Correct,4,683
4,WBWPW,16,2,612,Correct,4,817
4,KCDHD,231,2,614,Correct,4,806
4,RSRWR,222,2,598,Correct,4,795
4,HGHGH,151,1,999,Correct,4,819
4,SKSKS,12,3,838,Correct,4,865
5,L,5,3,3383,New Target,5,756
5,PDPDP,151,,,Incorrect,5,928
5,WAWAW,152,1,981,Correct,5,730
5,HWHWH,153,1,811,Correct,5,718
5,SHSHS,154,1,738,Correct,5,871
5,BRBWB,161,2,551,Correct,5,938
5,FPFBF,162,2,696,Correct,5,813
5,GAGAG,151,1,608,Correct,5,882
5,QVQGQ,161,2,622,Correct,5,896
5,CLCLC,7,3,802,Correct,5,753
5,XWXWX,13,1,737,Correct,5,664
5,AUAUA,152,1,721,Correct,5,708
5,CKCKC,191,2,1166,Incorrect,5,763
5,FNFCF,16,2,768,Correct,5,681
5,UHUQU,162,2,716,Correct,5,715
5,FZFZF,151,1,747,Correct,5,742
5,THLHT,223,1,709,Correct,5,861
5,CUCLC,82,3,997,Correct,5,715
5,BSBSB,13,1,628,Correct,5,866
5,FDFBF,161,2,753,Correct,5,872
5,LXRXR,221,1,845,Correct,5,826
5,ZOZNZ,222,2,950,Correct,5,757
5,UZUZU,151,1,731,Correct,5,810
5,AQATA,161,2,594,Correct,5,876
5,UNUPU,162,2,976,Correct,5,913
5,RVRKR,182,2,647,Correct,5,711
5,URURU,15,1,648,Correct,5,784
5,VLVLV,9,3,636,Correct,5,685
5,DXDVD,14,2,607,Correct,5,735
5,PZPZP,151,1,608,Correct,5,759
5,LXUMU,231,2,1140,Correct,5,694
5,AKADA,173,2,608,Incorrect,5,776
5,HYHYH,15,1,723,Correct,5,698
5,AVAVA,152,1,576,Correct,5,790
5,TUTUT,153,1,929,Correct,5,859
5,XYXWX,161,2,587,Correct,5,707
5,TKTDT,174,2,1056,Correct,5,707
5,NXNYN,16,2,926,Correct,5,829
5,USUCU,162,2,630,Correct,5,698
5,ZMZMZ,151,1,662,Correct,5,764
5,WRWAW,161,2,632,Correct,5,712
5,GWGXG,162,2,525,Correct,5,672
5,MUMYL,235,2,574,Correct,5,906
5,CNCNC,113,1,588,Correct,5,921
5,RLRLR,10,3,556,Correct,5,856
5,UAUWU,14,2,642,Correct,5,777
5,FXLRF,233,,,Incorrect,5,696
5,PFPFP,113,1,783,Correct,5,832
5,HPHPH,152,1,649,Correct,5,809
5,GKGKG,195,1,615,Correct,5,858
5,ZUZTZ,16,2,571,Correct,5,668
5,AVASA,162,2,761,Correct,5,872
5,PRPRP,151,1,641,Correct,5,853
5,YPYPY,152,1,627,Correct,5,780
5,ZLZOZ,111,3,854,Correct,5,752
5,WMWSW,14,2,653,Correct,5,778
5,RZRXR,162,2,777,Correct,5,880
5,QWQWQ,151,1,729,Correct,5,705
5,ZKZKZ,196,1,826,Correct,5,671
5,CVCVL,225,3,821,Incorrect,5,728
5,NMNMN,113,1,1422,Correct,5,750
5,TRTGT,161,2,961,Correct,5,765
5,CTCTC,151,1,586,Correct,5,655
5,RKRLR,122,2,1254,Incorrect,5,912
6,B,5,3,1859,New Target,6,820
6,YMYGY,161,2,1076,Correct,6,780
6,HUHRH,162,,,Incorrect,6,699
6,WHWHW,151,2,821,Incorrect,6,811
6,MGMRM,161,2,729,Correct,6,886
6,ZVZWZ,162,2,887,Correct,6,731
6,RCRTR,163,2,579,Correct,6,676
6,DSDRD,164,2,585,Correct,6,690
6,VTBDV,233,2,1356,Correct,6,751
6,DSDHD,222,2,588,Correct,6,861
6,QEQEQ,151,1,1226,Correct,6,937
6,XOXQX,161,2,851,Correct,6,880
6,RARBR,72,3,969,Correct,6,771
6,GMGMG,13,1,772,Correct,6,686
6,ELERE,171,2,791,Correct,6,922
6,HZHUH,16,2,662,Correct,6,655
6,RHRVR,162,2,608,Correct,6,894
6,YBYBY,8,3,709,Correct,6,742
6,PYPVP,14,2,612,Correct,6,726
6,TLTLT,192,1,1447,Correct,6,769
6,QTQTQ,15,1,696,Correct,6,811
6,NXNVN,161,2,617,Correct,6,661
6,QNQNQ,151,2,719,Incorrect,6,714
6,FUFHF,161,2,784,Correct,6,671
6,YVYFB,235,2,1112,Incorrect,6,860
6,WQWSW,222,2,643,Correct,6,822
6,HNHLH,193,2,625,Incorrect,6,829
6,OSOTO,16,2,551,Correct,6,693
6,GWGOG,162,2,655,Correct,6,664
6,UBUBU,9,3,843,Correct,6,885
6,CWCWC,13,1,756,Correct,6,783
6,OCOEO,161,2,604,Correct,6,874
6,MNMNM,151,1,815,Correct,6,718
6,XLXLX,194,1,999,Correct,6,802
6,AYAYA,15,1,636,Correct,6,719
6,FUFAF,161,2,590,Correct,6,750
6,ANAQA,162,2,619,Correct,6,915
6,BUPWP,231,2,1070,Correct,6,687
6,WSWSW,113,1,625,Correct,6,712
6,FRFRF,152,3,822,Incorrect,6,733
6,AUAUA,153,1,729,Correct,6,898
6,GMGCG,161,2,674,Correct,6,942
6,HLHWH,175,2,573,Correct,6,837
6,PQBQP,223,1,701,Correct,6,866
6,AZABA,102,3,732,Correct,6,745
6,CWCVC,14,2,919,Correct,6,811
6,FAFAF,151,1,998,Correct,6,903
6,VMVSV,161,2,584,Correct,6,785
6,GBGBG,11,3,796,Correct,6,752
6,FOFNF,14,2,583,Correct,6,815
6,DSDSD,151,1,679,Correct,6,835
6,YDYDY,152,1,626,Correct,6,921
6,FOFOF,153,1,944,Correct,6,840
6,CHCHB,225,1,820,Correct,6,827
6,ZCZCZ,113,1,788,Correct,6,656
6,DZDGD,161,2,862,Correct,6,800
6,MLMEM,176,2,887,Correct,6,773
6,PXPXP,15,1,651,Correct,6,886
6,QYQYQ,152,1,598,Correct,6,883
6,GRGCG,161,2,1208,Correct,6,767
6,QVQVQ,151,2,677,Incorrect,6,738
6,XYXNX,161,2,704,Correct,6,896
6,BHMHM,221,,,Incorrect,6,802
6,CBCBC,12,3,960,Correct,6,936
7,W,5,3,8616,New Target,7,680
7,QKQKQ,151,1,1234,Correct,7,799
7,DUDQD,161,2,679,Correct,7,861
7,OKOKO,151,1,773,Correct,7,862
7,EOEOE,152,1,604,Correct,7,903
7,URUPU,161,2,736,Correct,7,754
7,GMGAG,162,2,534,Correct,7,906
7,HVWDH,233,2,536,Correct,7,896
7,MHMHM,113,1,718,Correct,7,710
7,YXYVY,161,2,640,Correct,7,695
7,FNFNF,151,1,718,Correct,7,862
7,AWAWA,7,3,670,Correct,7,707
7,ZAZAZ,13,1,691,Correct,7,661
7,OYOYO,152,1,670,Correct,7,923
7,SQSQS,153,1,599,Correct,7,929
7,OSOSO,154,1,551,Correct,7,855
7,FCFBF,181,2,760,Correct,7,864
7,EUEUE,15,1,607,Correct,7,891
7,CYCGC,161,2,605,Correct,7,921
7,SZSUS,162,2,691,Correct,7,725
7,OFOFO,151,1,642,Correct,7,750
7,RVRUR,161,2,581,Correct,7,685
7,ZBZBZ,192,1,1111,Correct,7,781
7,UCUTU,16,2,523,Correct,7,677
7,NWNWN,8,3,704,Correct,7,748
7,XNXUX,14,2,674,Correct,7,683
7,CXCNC,162,2,621,Correct,7,922
7,AUAUW,225,2,1101,Incorrect,7,821
7,HEHEH,113,1,780,Correct,7,780
7,UFWFU,223,3,1274,Incorrect,7,757
7,HVHEH,222,2,588,Correct,7,908
7,YBYBY,193,1,675,Correct,7,679
7,OYOYO,15,1,608,Correct,7,822
7,TMTWT,91,3,930,Correct,7,764
7,HTHTH,13,1,743,Correct,7,768
7,UHUHU,152,1,734,Correct,7,917
7,EVEBE,184,2,556,Incorrect,7,718
7,HZHMH,16,2,1249,Correct,7,715
7,VHVCV,162,2,742,Correct,7,846
7,WAGDG,231,2,1303,Correct,7,708
7,PFPFP,113,3,659,Incorrect,7,659
7,OQOQO,152,1,1111,Correct,7,679
7,TWTWT,10,3,598,Correct,7,795
7,VKVDV,14,2,872,Correct,7,749
7,WPAPA,221,1,747,Correct,7,912
7,HBHBH,195,1,716,Correct,7,712
7,ZMZAZ,16,2,684,Correct,7,738
7,SYSYS,151,1,622,Correct,7,670
7,FZFXF,161,2,603,Correct,7,885
7,SMSMS,151,1,739,Correct,7,933
7,XOXOX,152,1,699,Correct,7,932
7,FWFWF,11,3,648,Correct,7,752
7,ENEBE,186,2,629,Correct,7,867
7,ZVZGZ,16,2,722,Correct,7,916
7,EZEZE,151,1,716,Correct,7,872
7,TOTEW,235,2,1534,Correct,7,664
7,PDPDP,113,1,643,Correct,7,653
7,TKTWT,122,3,869,Correct,7,779
8,M,5,3,7595,New Target,8,799
8,VYVNV,161,2,823,Correct,8,765
8,KLKTK,162,2,850,Correct,8,816
8,NQNQN,151,1,901,Correct,8,885
8,VHVEV,161,,,Incorrect,8,791
8,XNXNM,225,3,783,Incorrect,8,875
8,USUVU,222,2,640,Correct,8,675
8,KRKZK,162,2,546,Correct,8,733
8,TMTET,71,2,506,Incorrect,8,708
8,GFGFG,13,2,514,Incorrect,8,665
8,OPODO,161,2,664,Correct,8,772
8,KCKCK,151,1,586,Correct,8,699
8,VTVTV,152,1,557,Correct,8,688
8,LSLSL,153,1,589,Correct,8,840
8,DLDLD,154,1,578,Correct,8,698
8,NYNYN,155,3,1091,Incorrect,8,840
8,DCMAD,233,2,776,Correct,8,672
8,TDTDT,113,1,607,Correct,8,893
8,GVGRG,161,2,572,Correct,8,902
8,ZUZUZ,151,1,588,Correct,8,889
8,OGOVO,161,2,962,Correct,8,659
8,PWPTP,171,2,981,Correct,8,805
8,KLKDM,235,2,1219,Correct,8,898
8,SMSMS,8,1,617,Incorrect,8,857
8,PRPSP,14,2,619,Correct,8,744
8,DVDYD,162,2,729,Correct,8,846
8,PXPMP,92,2,551,Incorrect,8,811
8,GDGLG,14,2,548,Correct,8,875
8,SWSWS,192,2,504,Incorrect,8,821
8,GDGLG,16,2,687,Correct,8,700
8,MTCYC,231,2,794,Correct,8,833
8,GSGSG,113,1,744,Correct,8,706
8,YQYTY,161,2,558,Correct,8,938
8,ZLZPZ,162,2,998,Correct,8,679
8,HZHZH,151,1,813,Correct,8,686
8,MSOSO,221,1,567,Correct,8,783
8,HWHWH,193,1,733,Correct,8,736
8,PYPAP,16,2,747,Correct,8,788
8,SPSVS,162,2,577,Correct,8,911
8,XLXLX,151,1,607,Correct,8,944
8,YMYMY,10,1,933,Incorrect,8,707
8,HYHYH,13,1,718,Correct,8,650
8,OWOGO,174,2,666,Correct,8,787
8,PHPOP,16,2,744,Correct,8,883
8,NPNSN,162,2,708,Correct,8,738
8,HVMVH,223,1,1565,Correct,8,910
8,THTFT,222,2,697,Correct,8,857
8,STSTS,151,1,578,Correct,8,898
8,AGAMA,112,2,529,Incorrect,8,872
8,PEPEP,13,1,712,Correct,8,689
8,ZWZWZ,195,1,600,Correct,8,664
8,ODOZO,16,2,521,Correct,8,765
8,LRLOL,162,2,576,Correct,8,752
8,GZGZG,151,1,610,Correct,8,826
8,TGTGT,152,1,642,Correct,8,808
8,CUCSC,161,2,518,Correct,8,675
8,SCSCS,151,1,548,Correct,8,943
8,AWAWA,196,1,583,Correct,8,805
8,NLNLN,15,3,1170,Incorrect,8,915
8,VNVNV,152,3,622,Incorrect,8,770
8,GMGMG,12,1,714,Incorrect,8,946
9,S,5,3,3329,New Target,9,895
9,NBNBN,151,1,641,Correct,9,808
9,KVKZK,161,2,736,Correct,9,855
9,LBLBL,151,1,655,Correct,9,745
9,XLXLX,152,1,692,Correct,9,671
9,ZXZXZ,153,1,807,Correct,9,686
9,KNKZK,161,2,803,Correct,9,730
9,TQTAT,162,2,667,Correct,9,870
9,CLCUC,163,2,643,Correct,9,908
9,ZCZFZ,164,2,593,Correct,9,878
9,NSNSN,7,1,535,Incorrect,9,765
9,HGHGH,13,1,791,Correct,9,827
9,THTDT,161,2,606,Correct,9,904
9,VMVMV,191,1,733,Correct,9,825
9,CVCDC,16,2,587,Correct,9,737
9,ZAZRZ,162,2,736,Correct,9,720
9,XTXZX,163,2,552,Correct,9,908
9,OXOXO,151,1,767,Correct,9,669
9,DCDSD,82,3,807,Correct,9,839
9,PQPDP,14,2,675,Correct,9,692
9,ZMZMZ,192,1,562,Incorrect,9,772
9,BEBEB,15,1,1145,Correct,9,658
9,FCFCF,152,1,548,Correct,9,893
9,YAYBY,161,2,679,Correct,9,889
9,KNKVK,162,2,654,Correct,9,894
9,SEPCP,231,2,1210,Correct,9,897
9,OPOPO,113,1,598,Correct,9,773
9,XMXMX,193,1,659,Correct,9,891
9,KEKEK,15,1,605,Correct,9,896
9,USUSU,9,3,813,Correct,9,829
9,YHSHY,223,1,666,Correct,9,725
9,UPUPU,113,1,940,Correct,9,677
9,XZXZX,152,1,644,Correct,9,675
9,KGKXK,161,2,691,Correct,9,784
9,QEQPQ,162,2,524,Correct,9,865
9,NUNUS,225,1,1168,Correct,9,816
9,BXBXB,113,1,894,Correct,9,698
9,SQHQH,221,1,736,Correct,9,902
9,ACACA,113,1,696,Correct,9,926
9,KMKBK,174,2,628,Correct,9,851
9,EGSVE,233,3,887,Incorrect,9,706
9,HYHYH,113,1,664,Correct,9,942
9,LULUL,152,1,570,Correct,9,693
9,AEAEA,153,1,540,Correct,9,767
9,TXTST,102,3,1343,Correct,9,789
9,FDFCF,14,2,847,Correct,9,921
9,KVKVK,151,1,986,Correct,9,765
9,UBUCU,161,2,572,Correct,9,775
9,GAGMG,185,2,567,Correct,9,933
9,UXUGU,16,2,551,Correct,9,888
9,HOHOH,151,1,635,Correct,9,721
9,QUQTS,235,2,1245,Correct,9,682
9,YZYZY,113,3,641,Incorrect,9,939
9,BSBSB,11,3,894,Correct,9,815
9,FEFEF,13,1,758,Correct,9,720
9,GMGMG,196,1,707,Correct,9,705
9,TGTXT,16,2,621,Correct,9,895
9,LSLFL,121,3,923,Correct,9,811
10,Q,5,3,3796,New Target,10,908
10,ZHZOZ,161,2,806,Correct,10,740
10,RZRZR,151,1,642,Correct,10,719
10,BFBFB,152,1,708,Correct,10,772
10,GBGBG,153,1,817,Correct,10,774
10,OGOXO,161,2,615,Correct,10,858
10,UEQOU,233,3,985,Incorrect,10,725
10,BOBRB,222,2,807,Correct,10,885
10,DYDVD,162,2,573,Correct,10,834
10,COCOC,151,1,600,Correct,10,921
10,YZYQY,72,2,538,Incorrect,10,794
10,FHFWF,14,2,720,Correct,10,730
10,ANANQ,225,2,1165,Incorrect,10,793
10,ZAZAZ,113,1,677,Correct,10,826
10,ERESE,181,,,Incorrect,10,652
10,XTXOX,16,2,1142,Correct,10,731
10,NXNXN,151,1,818,Correct,10,790
10,OVOZO,161,2,1168,Correct,10,697
10,WUWOW,162,2,746,Correct,10,846
10,FWFVF,163,2,815,Correct,10,934
10,NSNKN,172,2,682,Incorrect,10,724
10,VWVNV,16,2,659,Correct,10,869
10,XZXZX,151,1,947,Correct,10,774
10,VQVQV,8,3,979,Correct,10,903
10,GYGPG,14,2,699,Correct,10,705
10,OBOSO,183,2,726,Correct,10,888
10,YUYUY,15,1,661,Correct,10,708
10,NDNQN,92,3,755,Correct,10,825
10,FCFHF,14,2,891,Correct,10,913
10,EFEFE,151,1,1004,Correct,10,923
10,NSNSN,194,1,1530,Correct,10,941
10,YPYFY,16,2,582,Correct,10,868
10,ZKZKZ,151,1,752,Correct,10,932
10,QZQDR,231,3,1319,Incorrect,10,897
10,AOAHA,222,2,616,Correct,10,891
10,BGBGB,151,2,683,Incorrect,10,718
10,HQHQH,10,3,948,Correct,10,898
10,UHUBU,14,2,687,Correct,10,704
10,KRKSK,185,2,824,Correct,10,875
10,TOTOT,15,1,642,Correct,10,712
10,APAPA,152,1,660,Correct,10,712
10,VDVYV,161,2,820,Correct,10,743
10,FOFTF,162,2,569,Correct,10,926
10,QVXVX,221,2,925,Incorrect,10,739
10,GHGRG,222,2,741,Correct,10,683
10,LFLFL,151,1,715,Correct,10,922
10,HLHLH,152,1,711,Correct,10,834
10,KWQWK,223,3,549,Incorrect,10,797
10,YQYQY,11,3,755,Correct,10,941
10,ADADA,13,2,750,Incorrect,10,792
10,OGOAO,161,1,1029,Incorrect,10,887
10,EOEFE,162,1,835,Incorrect,10,868
10,USUSU,196,1,735,Correct,10,746
10,VFVAQ,235,2,1181,Correct,10,806
10,DZDXD,222,2,683,Correct,10,714
10,HVHDH,162,2,605,Correct,10,652
10,DWDWD,151,1,819,Correct,10,673
10,GBGBG,152,1,796,Correct,10,766
10,AOADA,161,2,741,Correct,10,800
10,GQGQG,12,3,927,Correct,10,872
11,T,5,3,8736,New Target,11,890
11,KEKEK,151,1,808,Correct,11,844
11,LBLBL,152,1,806,Correct,11,683
11,HEHVH,161,2,706,Correct,11,737
11,FRFOF,162,2,547,Correct,11,710
11,EBEBE,151,1,727,Correct,11,744
11,HTHTH,7,3,898,Correct,11,809
11,MAMDM,14,2,602,Correct,11,701
11,VOVOV,151,1,558,Correct,11,743
11,XQXQX,191,1,674,Correct,11,731
11,PBPAP,16,2,622,Correct,11,917
11,MXMLM,162,2,639,Correct,11,779
11,TCNCN,221,1,1310,Correct,11,813
11,OBONO,222,2,593,Correct,11,831
11,RCROR,162,2,711,Correct,11,655
11,PBPRT,235,2,599,Correct,11,699
11,WFWVW,222,2,649,Correct,11,804
11,LTLUL,81,2,519,Incorrect,11,816
11,ZDZPZ,14,2,616,Correct,11,906
11,NCNQN,182,2,683,Correct,11,675
11,XZXNX,16,2,736,Correct,11,655
11,GOGOG,151,1,1457,Correct,11,757
11,DFDFD,152,1,684,Correct,11,896
11,VWTRV,233,,,Incorrect,11,779
11,CFCVC,222,2,756,Correct,11,807
11,PAPAP,151,1,720,Correct,11,839
11,EQEYE,173,2,604,Correct,11,816
11,DNDED,16,2,594,Correct,11,663
11,PTPTP,9,3,962,Correct,11,819
11,ZCZCZ,13,1,714,Correct,11,714
11,MZMZM,152,1,762,Correct,11,715
11,ULUVU,161,2,708,Correct,11,779
11,BRBGB,162,2,785,Correct,11,841
11,MLMLT,225,2,1291,Incorrect,11,811
11,GQGQG,194,1,1249,Correct,11,829
11,HGHGH,15,1,794,Correct,11,812
11,RVRBR,161,2,597,Correct,11,827
11,ZOZDZ,162,2,762,Correct,11,653
11,VYVYV,151,1,696,Correct,11,758
11,RVRVR,152,1,826,Correct,11,747
11,OTOTO,10,3,646,Correct,11,699
11,PXPXP,13,1,820,Correct,11,846
11,MCMCM,152,1,943,Correct,11,694
11,YUYUY,153,1,617,Correct,11,654
11,DYDYD,154,1,538,Correct,11,774
11,WDWDW,155,1,576,Correct,11,767
11,DYDQD,185,2,690,Correct,11,836
11,KDKNK,16,2,780,Correct,11,915
11,HOHOH,151,1,643,Correct,11,889
11,TWEZE,231,2,612,Correct,11,800
11,NANHN,222,2,674,Correct,11,836
11,VQVWV,176,2,566,Correct,11,672
11,ZRZRZ,15,1,666,Correct,11,794
11,VTVGV,111,3,995,Correct,11,946
11,HWHVH,14,2,947,Correct,11,807
11,EHEHE,151,1,694,Correct,11,796
11,VRVLV,161,2,592,Correct,11,915
11,ACACA,151,1,658,Correct,11,686
11,WBTBW,223,1,591,Correct,11,876
11,UTUTU,12,3,641,Correct,11,810
12,O,5,3,2590,New Target,12,946
12,UXULU,161,2,936,Correct,12,727
12,MUMDM,162,2,791,Correct,12,918
12,VLVLV,151,1,593,Correct,12,860
12,BDBHB,161,2,685,Correct,12,895
12,KEKEK,151,1,639,Correct,12,697
12,WKWKW,152,1,607,Correct,12,802
12,AWAWA,153,1,925,Correct,12,895
12,EVEVE,154,1,587,Correct,12,929
12,PHPOP,72,3,865,Correct,12,675
12,WXWAW,14,2,647,Correct,12,835
12,PWPHP,162,2,671,Correct,12,950
12,ZTZTZ,191,1,698,Correct,12,926
12,HVHMH,16,2,550,Correct,12,813
12,DKDKD,151,1,848,Correct,12,654
12,NPNPN,152,1,577,Correct,12,916
12,ZRZNZ,161,2,558,Correct,12,900
12,OGCGC,221,2,1189,Incorrect,12,727
12,LFLFL,113,1,557,Correct,12,903
12,WXWXW,152,1,943,Correct,12,843
12,KPKPK,153,1,593,Correct,12,832
12,FRFKF,161,2,750,Correct,12,886
12,EOEOE,8,3,910,Correct,12,692
12,GEGEG,13,1,965,Correct,12,735
12,LKLBO,235,2,1160,Correct,12,774
12,MLMZM,222,2,817,Correct,12,819
12,ASACA,162,2,654,Correct,12,743
12,LOLOL,9,3,838,Correct,12,940
12,XLXLX,13,1,703,Correct,12,818
12,WHWHW,152,1,636,Correct,12,727
12,ETETE,192,1,666,Correct,12,832
12,OXGZG,231,2,972,Correct,12,712
12,CZCZC,113,1,818,Correct,12,769
12,LGLGL,152,1,637,Correct,12,731
12,VLVPV,161,2,544,Correct,12,661
12,UYUYO,225,1,1422,Correct,12,918
12,SMSMS,113,1,731,Correct,12,888
12,RTRTR,193,1,677,Correct,12,860
12,KVKHK,16,2,689,Correct,12,880
12,ROROR,101,3,1001,Correct,12,894
12,PRPRP,13,1,1180,Correct,12,749
12,LALHL,161,2,723,Correct,12,874
12,PLPLP,151,1,675,Correct,12,715
12,CTCTC,194,1,596,Correct,12,774
12,XGXAX,16,2,969,Correct,12,664
12,NMNMN,151,1,746,Correct,12,826
12,HLHZH,161,2,563,Correct,12,839
12,YOYOY,11,1,550,Incorrect,12,811
12,PZOZP,223,1,1286,Correct,12,898
12,EAEAE,113,1,650,Correct,12,919
12,GXGVG,161,2,552,Correct,12,844
12,HMHGH,162,2,584,Correct,12,870
12,GTGTG,195,1,614,Correct,12,868
12,LMLGL,16,2,613,Correct,12,843
12,ECEDE,162,2,755,Correct,12,907
12,PSPKP,163,2,641,Correct,12,722
12,MCOBM,233,3,1376,Incorrect,12,835
12,EMEME,113,1,558,Correct,12,909
12,CTCRC,176,2,669,Correct,12,927
12,NSNSN,15,2,487,Incorrect,12,942
12,MWMVM,161,2,1417,Correct,12,855
12,CPCOC,122,3,1178,Correct,12,880
13,H,5,3,8074,New Target,13,874
13,VUVUV,151,1,918,Correct,13,936
13,YVYVY,152,1,573,Correct,13,691
13,XUXUX,153,1,607,Correct,13,834
13,NRNWN,161,2,707,Correct,13,738
13,MZMKM,162,2,637,Correct,13,821
13,HLVLV,221,1,1325,Correct,13,736
13,DXDGD,222,2,543,Correct,13,834
13,LHLAL,71,3,1007,Correct,13,928
13,YMYFY,14,2,645,Correct,13,727
13,AOARA,171,2,754,Correct,13,887
13,ZKZAZ,16,2,618,Correct,13,895
13,RZRZR,151,1,821,Correct,13,881
13,NFNAN,161,2,636,Correct,13,828
13,KUKEK,162,2,571,Correct,13,807
13,XAXYX,163,2,556,Correct,13,781
13,LKLUL,164,2,705,Correct,13,765
13,NLNLN,151,1,636,Correct,13,860
13,WDWOW,182,2,763,Correct,13,857
13,EWEWE,15,1,1160,Correct,13,768
13,VHVHV,8,3,885,Correct,13,745
13,PVPVP,13,1,670,Correct,13,690
13,CRCSC,161,2,779,Correct,13,880
13,NWNWN,151,1,759,Correct,13,788
13,SQSQS,152,1,590,Correct,13,928
13,AEASA,161,2,540,Correct,13,929
13,GOGOG,193,1,724,Correct,13,718
13,QGQGQ,15,1,761,Correct,13,948
13,FMFMF,152,1,657,Correct,13,857
13,PFPFP,153,1,618,Correct,13,931
13,SYSHS,92,3,806,Correct,13,912
13,QGQKQ,14,2,554,Correct,13,922
13,ELELH,225,1,651,Correct,13,776
13,MRMRM,113,1,1208,Correct,13,871
13,GUGNG,161,2,561,Correct,13,776
13,ZOZOZ,194,1,590,Correct,13,916
13,EZEZE,15,1,734,Correct,13,791
13,FHFKF,101,3,797,Correct,13,762
13,GSHLG,233,2,1315,Correct,13,861
13,FKFXF,222,2,1181,Correct,13,690
13,DEDYD,162,2,565,Correct,13,869
13,UXUVU,163,2,509,Correct,13,660
13,MCMOM,185,2,646,Correct,13,710
13,BXBUH,235,2,792,Correct,13,780
13,DMDMD,113,1,1022,Correct,13,889
13,BXBDB,161,2,571,Correct,13,893
13,AVAVA,151,1,737,Correct,13,721
13,QUHUQ,223,3,867,Incorrect,13,664
13,BRBRB,113,1,1055,Correct,13,661
13,ZHZHZ,11,1,602,Incorrect,13,907
13,VZVZV,13,1,616,Correct,13,934
13,HBUQU,231,2,1053,Correct,13,697
13,EUEUE,113,1,773,Correct,13,929
13,RQRDR,161,2,698,Correct,13,907
13,COCOC,196,1,583,Correct,13,846
13,VNVSV,16,2,932,Correct,13,870
13,WHWHW,12,3,781,Correct,13,713
14,G,5,3,283,New Target,14,879
14,EBEBE,151,1,1355,Correct,14,911
14,QPQUQ,161,2,736,Correct,14,781
14,XDXDX,151,1,621,Correct,14,771
14,YXYXY,152,1,669,Correct,14,802
14,MBMBM,153,1,534,Correct,14,917
14,QMQKQ,161,2,613,Correct,14,901
14,EYETE,162,2,819,Correct,14,871
14,UKUKU,151,1,657,Correct,14,681
14,MPGPM,223,1,679,Correct,14,658
14,ANANA,113,1,872,Correct,14,731
14,UAUAU,152,1,700,Correct,14,930
14,ADASA,161,2,664,Correct,14,861
14,LKLGL,72,3,1035,Correct,14,674
14,UWUWU,13,1,666,Correct,14,857
14,MCMUM,161,2,676,Correct,14,942
14,YMYMY,151,1,558,Correct,14,940
14,RHRWR,171,2,598,Correct,14,656
14,DUDCD,16,2,674,Correct,14,947
14,ASAGA,82,2,673,Incorrect,14,764
14,DLDLD,13,1,688,Correct,14,797
14,ZXZDZ,161,2,541,Correct,14,814
14,ULUFU,162,2,1019,Correct,14,921
14,DPDPG,225,1,1498,Correct,14,874
14,KHKTK,172,2,654,Correct,14,698
14,ZKZUZ,16,2,723,Correct,14,683
14,AKALA,162,2,609,Correct,14,785
14,CNCNC,151,1,930,Correct,14,832
14,PGPGP,9,3,951,Correct,14,812
14,UPUPU,13,1,666,Correct,14,750
14,FSGWF,233,2,635,Correct,14,720
14,CACVC,222,2,747,Correct,14,771
14,FTFTF,151,1,811,Correct,14,659
14,KFKCK,161,2,922,Correct,14,664
14,ZEZHZ,183,2,639,Correct,14,817
14,NSNSN,15,1,1100,Correct,14,911
14,ENENE,152,1,854,Correct,14,900
14,LXLWG,235,2,1097,Correct,14,917
14,SMSUS,222,2,728,Correct,14,738
14,ZHZHZ,194,1,776,Correct,14,666
14,PFPFP,15,1,735,Correct,14,918
14,BABAB,152,1,848,Correct,14,679
14,XPXUX,161,2,585,Correct,14,751
14,ACACA,151,1,666,Correct,14,791
14,RGRGR,10,3,792,Correct,14,780
14,URURU,13,1,727,Correct,14,679
14,PKPTP,161,2,659,Correct,14,811
14,SGSGS,11,3,860,Correct,14,886
14,GZYVY,231,2,677,Correct,14,813
14,UDUTU,222,2,1012,Correct,14,787
14,VHVHV,195,1,740,Correct,14,868
14,LWLNL,16,2,531,Correct,14,744
14,GKPKP,221,1,1001,Correct,14,741
14,SQSPS,222,2,605,Correct,14,766
14,WNWNW,151,1,746,Correct,14,873
14,MHMTM,176,2,569,Incorrect,14,669
14,RZRZR,15,2,524,Incorrect,14,792
14,CGCDC,121,3,806,Correct,14,654
15,A,5,3,6803,New Target,15,705
15,WQWEW,161,2,776,Correct,15,718
15,RWRKR,162,2,507,Correct,15,947
15,YRYRY,151,1,596,Correct,15,677
15,XOXOX,152,1,742,Correct,15,733
15,QPQPQ,153,1,590,Correct,15,886
15,TDTDT,154,1,641,Correct,15,733
15,WXWBW,161,2,611,Correct,15,745
15,TATAT,7,1,562,Incorrect,15,896
15,MCMYM,14,2,727,Correct,15,774
15,SMSFS,162,2,699,Correct,15,659
15,ZLZMZ,163,2,714,Correct,15,691
15,VDVBV,164,2,987,Correct,15,680
15,XCXVX,165,2,589,Correct,15,791
15,LKLBA,235,2,1211,Correct,15,897
15,NDNDN,113,1,753,Correct,15,882
15,YGYGY,191,1,704,Correct,15,654
15,VLVLV,15,1,606,Correct,15,815
15,WQWQW,152,1,1115,Correct,15,933
15,MAMOM,81,3,968,Correct,15,847
15,YZABY,233,2,748,Correct,15,839
15,CFCFC,113,1,855,Correct,15,823
15,UTULU,161,2,1132,Correct,15,833
15,KPKUK,162,2,839,Correct,15,843
15,TCTQT,163,2,572,Correct,15,858
15,FGFGF,192,1,771,Correct,15,662
15,RCRYR,16,2,685,Correct,15,771
15,KRKDK,162,2,568,Correct,15,933
15,CRCRC,151,1,841,Correct,15,779
15,WOAOW,223,1,868,Correct,15,691
15,LPLWL,222,2,762,Correct,15,815
15,DGDUD,173,2,804,Correct,15,770
15,EMEZE,16,2,713,Correct,15,925
15,DADAD,9,3,768,Correct,15,916
15,WDWDW,13,1,822,Correct,15,936
15,AWQWQ,221,2,1117,Incorrect,15,817
15,TKTQT,222,2,763,Correct,15,761
15,MTMFM,162,2,804,Correct,15,855
15,KAKAK,10,1,684,Incorrect,15,836
15,BDBRB,14,,,Incorrect,15,801
15,QPQPQ,151,1,653,Correct,15,944
15,NDNDN,152,1,713,Correct,15,889
15,QYQGQ,184,2,627,Correct,15,939
15,VPVPV,15,1,690,Correct,15,797
15,RDRDA,225,1,770,Correct,15,763
15,KWKOK,222,2,665,Correct,15,895
15,TPTPT,151,1,711,Correct,15,752
15,DCDCD,152,1,855,Correct,15,772
15,OWOAO,112,3,1273,Correct,15,904
15,ZCZNZ,14,2,740,Correct,15,745
15,MYMGM,185,2,781,Correct,15,858
15,ANLOL,231,2,1253,Correct,15,878
15,DWDPD,222,2,561,Correct,15,671
15,YQYQY,151,1,550,Correct,15,777
15,LGLGL,196,1,772,Correct,15,913
15,VYVLV,16,2,512,Correct,15,751
15,MVMVM,151,1,775,Correct,15,703
15,QMQMQ,152,1,591,Correct,15,847
15,SXSXS,153,1,733,Correct,15,923
15,WAWAW,12,3,1018,Correct,15,801
