Trial No,Stimulus,Trigger,Response,Response Time(ms),Correct,Block,Fixation Duration
Practice
OT Practice
1,SKSKS,15,1,773,Correct,0,896
1,DLDUD,16,2,730,Correct,0,799
1,PDPGP,16,2,783,Correct,0,902
1,MWMWM,15,1,695,Correct,0,668
1,FTFTF,15,1,611,Correct,0,749
1,AXAMA,16,2,737,Correct,0,716
1,RYRGR,16,2,811,Correct,0,749
1,DODOD,15,1,604,Correct,0,882
1,QTQAQ,16,2,791,Correct,0,853
1,YEYEY,15,1,642,Correct,0,650
2,GYGDG,16,2,725,Correct,0,862
2,SWSWS,15,1,640,Correct,0,764
2,HLHUH,16,2,927,Correct,0,701
2,DEDED,15,1,655,Correct,0,828
2,ZPZOZ,16,2,687,Correct,0,653
2,ATATA,15,1,580,Correct,0,927
2,QOQOQ,15,1,1184,Correct,0,900
2,FPFGF,16,2,819,Correct,0,921
2,TRTET,16,2,812,Correct,0,688
2,DQDQD,15,1,1072,Correct,0,864
AT Practice
1,TKTKT,15,1,1167,Correct,0,823
1,SLSUS,16,2,631,Correct,0,776
1,VZVGV,7,3,676,Correct,0,795
1,XWXZX,7,3,1241,Correct,0,911
1,ATATA,15,1,830,Correct,0,863
1,HXZMH,16,2,1262,Correct,0,949
1,TZTZT,7,3,722,Correct,0,764
1,UOUOU,15,1,895,Correct,0,700
1,ZTWAW,16,2,694,Correct,0,689
1,RZRER,7,3,915,Correct,0,685
Trials
1,D,5,3,64605,New Target,1,730
1,BNBYB,161,2,908,Correct,1,653
1,FBFBF,151,1,1548,Correct,1,900
1,RKRKR,152,1,1253,Correct,1,931
1,QSQNQ,161,2,1452,Correct,1,847
1,CTCFC,162,,,Incorrect,1,827
1,PDPDP,7,3,759,Correct,1,777
1,OPOFO,14,1,897,Incorrect,1,866
1,HLHNH,162,2,1468,Correct,1,704
1,MFMFM,151,1,1002,Correct,1,891
1,BTBTB,152,1,1343,Correct,1,745
1,MCMPD,235,,,Incorrect,1,848
1,BMBFB,222,2,887,Correct,1,937
1,NTNZN,162,2,1352,Correct,1,940
1,MXMRM,163,2,810,Correct,1,904
1,APABA,164,2,887,Correct,1,691
1,FMDMF,223,2,1048,Incorrect,1,906
1,QPQPQ,111,1,706,Correct,1,910
1,VQVMV,161,2,779,Correct,1,887
1,RERPR,162,2,636,Correct,1,651
1,KVKVK,151,1,1526,Correct,1,930
1,AKAHA,161,2,645,Correct,1,777
1,VDVDV,8,3,840,Correct,1,672
1,DUGUG,221,,,Incorrect,1,839
1,AFAFA,111,1,710,Correct,1,878
1,GYGYG,152,1,703,Correct,1,870
1,VXVSV,161,2,736,Correct,1,723
1,DOWGW,231,2,1226,Correct,1,845
1,QYQYQ,111,1,1010,Correct,1,810
1,ODONO,91,1,618,Incorrect,1,677
1,MSMSM,13,1,807,Correct,1,914
1,GYGYG,152,1,872,Correct,1,653
1,UMUMU,153,1,1360,Correct,1,740
1,BZBZB,154,1,721,Correct,1,927
1,NTNBN,161,2,1209,Correct,1,944
1,GNDYG,233,,,Incorrect,1,681
1,OCOSO,222,1,607,Incorrect,1,926
1,BHBFB,162,2,1105,Correct,1,789
1,QCQBQ,163,2,879,Correct,1,785
1,LQLQL,151,2,722,Incorrect,1,894
1,ZDZDZ,10,3,874,Correct,1,944
1,QNQZQ,14,2,882,Correct,1,698
1,CSCYC,162,2,902,Correct,1,865
1,RCRLR,163,2,817,Correct,1,686
1,FRFRF,151,1,1220,Correct,1,909
1,WFWFW,152,1,642,Correct,1,658
1,QOQLQ,161,2,716,Correct,1,913
1,AWAQA,162,2,677,Correct,1,866
1,EAEAE,151,1,870,Correct,1,796
1,AGAUA,161,2,704,Correct,1,659
1,YMYMY,151,1,713,Correct,1,873
1,XQXQX,152,1,1059,Correct,1,844
1,SHSGS,161,2,679,Correct,1,679
1,PDPDP,11,3,930,Correct,1,878
1,ZGZGZ,13,1,876,Correct,1,723
1,OXOXO,152,1,914,Correct,1,806
1,LYLYL,153,1,1171,Correct,1,888
1,NKNKD,225,2,1075,Incorrect,1,671
1,GNGNG,111,1,1055,Correct,1,924
1,OYOBO,161,2,896,Correct,1,711
1,SOSOS,151,1,823,Correct,1,868
1,VHVHV,152,2,1274,Incorrect,1,874
1,OKOXO,161,2,1153,Correct,1,781
1,EZEZE,151,1,878,Correct,1,767
1,LDLDL,12,3,774,Correct,1,796
2,U,5,3,2908,New Target,2,941
2,BVBEB,161,2,1169,Correct,2,773
2,FBFBF,151,1,750,Correct,2,672
2,RFRFR,152,1,792,Correct,2,878
2,NBNKN,161,2,998,Correct,2,658
2,MKMNM,162,2,1246,Correct,2,670
2,QXQXQ,151,1,765,Correct,2,663
2,MQMYM,161,2,1267,Correct,2,879
2,TGTPT,162,2,1193,Correct,2,839
2,XOXOX,151,1,721,Correct,2,884
2,CUCUC,7,1,677,Incorrect,2,657
2,RFRFR,13,1,881,Correct,2,892
2,VYVSV,161,2,811,Correct,2,682
2,VDVDV,191,1,730,Correct,2,710
2,GKGQG,15,2,810,Correct,2,739
2,SCSCS,151,1,678,Correct,2,702
2,CTCUC,82,2,1014,Incorrect,2,772
2,RCRCR,13,1,1099,Correct,2,675
2,BOBXB,161,2,701,Correct,2,715
2,FMFAF,162,2,840,Correct,2,881
2,BEBAB,163,2,803,Correct,2,751
2,PWPWP,151,1,829,Correct,2,755
2,UQCKC,231,2,1014,Correct,2,799
2,OCOCO,111,1,693,Correct,2,873
2,TNTNT,152,1,818,Correct,2,778
2,QCQGQ,161,2,841,Correct,2,871
2,WVWVW,151,1,862,Correct,2,923
2,TQTQT,152,1,803,Correct,2,852
2,FOFOF,225,1,753,Correct,2,691
2,WVWFW,222,2,665,Correct,2,917
2,SWSWS,151,2,686,Incorrect,2,657
2,FYFCF,161,2,653,Correct,2,708
2,SUSWS,91,3,842,Correct,2,830
2,CACHC,14,2,705,Correct,2,838
2,VDVKV,172,2,924,Correct,2,872
2,YCYCY,15,1,737,Correct,2,819
2,NMNTN,161,2,923,Correct,2,860
2,XOUKX,233,2,1315,Correct,2,728
2,BPBPB,111,1,1058,Correct,2,930
2,MRMRM,152,1,1213,Correct,2,933
2,XMXMX,153,1,745,Correct,2,732
2,AUAHA,101,2,594,Incorrect,2,834
2,XKXEU,235,2,869,Correct,2,807
2,TFTFT,111,1,762,Correct,2,862
2,MDMDM,193,1,1010,Correct,2,831
2,WYWMW,16,2,730,Correct,2,656
2,AZUZA,223,2,1363,Incorrect,2,875
2,KEKHK,222,2,1522,Correct,2,921
2,LALAL,151,1,773,Correct,2,681
2,CWCDC,184,2,690,Incorrect,2,783
2,SGSTS,16,2,801,Correct,2,741
2,PXPXP,151,1,880,Correct,2,663
2,GRGYG,161,2,1194,Correct,2,729
2,PUPOP,111,2,1279,Incorrect,2,933
2,RNRNR,14,1,1203,Correct,2,867
2,KDKDK,195,,,Incorrect,2,913
2,KTKTK,15,1,667,Correct,2,674
2,OROKO,161,2,1372,Correct,2,763
2,UNANA,221,1,1425,Correct,2,759
2,TATAT,111,1,652,Correct,2,947
2,AWAWA,152,1,712,Incorrect,2,942
2,RDRDR,196,1,1295,Correct,2,911
2,FCFCF,15,1,533,Correct,2,838
2,ZMZMZ,152,1,566,Correct,2,770
2,BUBUB,12,1,496,Incorrect,2,933
3,E,5,3,2455,New Target,3,671
3,YZYZY,151,1,1011,Correct,3,723
3,VFVNV,161,2,654,Correct,3,867
3,KAKAK,151,1,610,Correct,3,666
3,TKTKT,152,1,520,Correct,3,657
3,WHWTW,161,2,667,Correct,3,807
3,QEQFQ,71,2,790,Incorrect,3,943
3,XNXNX,13,1,885,Correct,3,711
3,TXTXT,152,1,684,Correct,3,830
3,GLGNG,161,2,655,Correct,3,658
3,CUCTC,171,2,724,Correct,3,700
3,FAFQF,16,2,622,Correct,3,796
3,ZLZLZ,151,1,830,Correct,3,803
3,YZYZY,152,1,646,Correct,3,852
3,CYCYC,153,1,598,Correct,3,818
3,HUHUH,192,1,724,Correct,3,805
3,OSORO,16,2,895,Correct,3,919
3,YOYOY,151,1,632,Correct,3,689
3,CECEC,8,3,1004,Correct,3,700
3,VNENV,223,1,1356,Correct,3,839
3,KQKFK,222,2,1585,Correct,3,797
3,XLXLE,225,2,1311,Incorrect,3,706
3,QUQUQ,193,1,759,Correct,3,786
3,SWSLS,16,2,1485,Correct,3,944
3,NBNPN,162,2,1432,Correct,3,907
3,SGSGS,151,1,716,Correct,3,720
3,FBFBF,152,1,953,Correct,3,804
3,PFPFP,153,1,748,Correct,3,848
3,AGASA,161,1,663,Incorrect,3,845
3,KEKEK,9,3,1123,Correct,3,898
3,CWCOC,14,2,1084,Correct,3,924
3,HXHXH,151,1,905,Correct,3,878
3,NUNZN,174,2,1327,Correct,3,757
3,QMQVQ,16,2,913,Correct,3,898
3,SQSQS,151,1,850,Correct,3,861
3,ERNFN,231,2,1038,Incorrect,3,712
3,AQANA,222,2,1410,Correct,3,755
3,OBOEO,102,3,1380,Correct,3,817
3,SYSXS,14,2,1206,Correct,3,814
3,QBQHQ,162,2,717,Correct,3,857
3,XQXQX,151,1,907,Correct,3,798
3,KUKFK,175,2,1294,Correct,3,831
3,RKRKR,15,1,929,Correct,3,875
3,GFGFG,152,1,665,Correct,3,693
3,YBYVY,161,2,629,Correct,3,867
3,SPSTS,162,2,1270,Correct,3,783
3,AQAQA,151,1,632,Correct,3,920
3,EPVPV,221,1,862,Correct,3,658
3,CQCEC,112,3,1159,Correct,3,737
3,RFRCR,14,2,716,Correct,3,950
3,CPCVC,162,2,755,Correct,3,909
3,RXRCR,163,2,1229,Correct,3,842
3,TNTLT,164,2,934,Correct,3,779
3,BSBSB,151,1,925,Correct,3,775
3,ZBZBZ,152,1,1015,Correct,3,660
3,OYOUO,186,2,1098,Correct,3,769
3,AKAOA,16,2,1142,Correct,3,811
3,YQEWY,233,2,1192,Correct,3,666
3,ZMZMZ,111,1,1331,Correct,3,844
3,SWSTS,161,2,860,Correct,3,721
3,MFMQE,235,2,1124,Correct,3,810
3,RSRLR,222,2,707,Correct,3,690
3,QEQWQ,121,2,649,Incorrect,3,932
4,K,5,3,1992,New Target,4,738
4,CACHC,161,2,1282,Correct,4,708
4,RWRCR,162,,,Incorrect,4,893
4,FOFVF,163,2,1360,Correct,4,846
4,LGLGL,151,2,775,Incorrect,4,780
4,PLPLP,152,1,845,Correct,4,842
4,NPNPN,153,1,630,Correct,4,749
4,SGSZS,161,2,709,Correct,4,818
4,DNDMD,162,1,630,Incorrect,4,679
4,OCOAK,235,2,884,Correct,4,875
4,VYVYV,111,1,943,Correct,4,673
4,RLRLR,152,1,871,Correct,4,721
4,DKDKD,7,1,572,Incorrect,4,855
4,ZLZLZ,13,2,703,Incorrect,4,813
4,FZFZF,152,1,985,Correct,4,863
4,CFCFC,153,1,768,Correct,4,707
4,OZOZO,154,1,581,Correct,4,902
4,XEXEX,191,1,776,Correct,4,792
4,NVNFN,16,2,1030,Correct,4,760
4,AYAYA,151,1,634,Correct,4,708
4,BNBVB,161,1,607,Incorrect,4,681
4,AHKXA,233,2,751,Correct,4,881
4,WFWFW,111,2,925,Incorrect,4,728
4,SNSNS,152,1,618,Correct,4,678
4,FKFMF,81,2,1227,Incorrect,4,709
4,DZDYD,14,,,Incorrect,4,664
4,GXGDG,162,2,1074,Correct,4,793
4,AYAYK,225,,,Incorrect,4,820
4,FPFGF,222,2,939,Correct,4,820
4,WRWRW,151,1,755,Correct,4,745
4,YPYEY,182,2,962,Correct,4,651
4,SQSQS,15,1,681,Correct,4,803
4,WZWPW,161,2,660,Correct,4,852
4,CKCKC,9,2,1065,Incorrect,4,659
4,BWBVB,14,2,1021,Correct,4,660
4,HMHMH,151,1,908,Correct,4,828
4,VEVNV,173,2,541,Correct,4,877
4,GMGVG,16,2,703,Correct,4,863
4,XHXKX,102,3,891,Correct,4,857
4,QXQRQ,14,2,700,Correct,4,921
4,LQLQL,151,1,678,Correct,4,880
4,ALELA,223,2,552,Incorrect,4,691
4,TPTKT,222,3,828,Incorrect,4,764
4,GEGEG,194,2,761,Incorrect,4,771
4,ZNZNZ,15,1,751,Correct,4,927
4,YZYZY,152,1,1175,Correct,4,861
4,SYSYS,153,1,594,Correct,4,908
4,ZSZSZ,221,1,467,Correct,4,742
4,LALGL,222,2,764,Correct,4,731
4,CYCTC,162,2,1316,Correct,4,856
4,WEWEW,195,1,638,Correct,4,667
4,CHCSC,16,3,799,Incorrect,4,717
4,GWGXG,162,2,859,Correct,4,697
4,FGFGF,151,1,802,Correct,4,780
4,QWQKQ,112,3,827,Correct,4,800
4,OQOFO,14,2,646,Correct,4,713
4,PMPEP,186,2,723,Correct,4,855
4,WBWPW,16,2,877,Correct,4,883
4,KCDHD,231,2,597,Correct,4,796
4,RSRWR,222,2,612,Correct,4,850
4,HGHGH,151,1,683,Correct,4,687
4,SKSKS,12,1,731,Incorrect,4,715
5,L,5,3,2210,New Target,5,920
5,PDPDP,151,1,911,Correct,5,781
5,WAWAW,152,1,664,Correct,5,667
5,HWHWH,153,1,596,Correct,5,914
5,SHSHS,154,1,491,Correct,5,660
5,BRBWB,161,1,516,Incorrect,5,723
5,FPFBF,162,2,598,Correct,5,867
5,GAGAG,151,1,665,Correct,5,761
5,QVQGQ,161,2,732,Correct,5,650
5,CLCLC,7,3,773,Correct,5,815
5,XWXWX,13,1,609,Correct,5,817
5,AUAUA,152,1,674,Correct,5,737
5,CKCKC,191,1,514,Correct,5,777
5,FNFCF,16,2,599,Correct,5,784
5,UHUQU,162,2,670,Correct,5,679
5,FZFZF,151,1,655,Correct,5,669
5,THLHT,223,2,1363,Incorrect,5,668
5,CUCLC,82,3,1016,Correct,5,777
5,BSBSB,13,1,616,Correct,5,773
5,FDFBF,161,2,694,Correct,5,846
5,LXRXR,221,2,519,Incorrect,5,673
5,ZOZNZ,222,2,728,Correct,5,840
5,UZUZU,151,1,567,Correct,5,767
5,AQATA,161,2,1048,Correct,5,856
5,UNUPU,162,2,811,Correct,5,752
5,RVRKR,182,2,692,Correct,5,760
5,URURU,15,1,526,Correct,5,933
5,VLVLV,9,3,600,Correct,5,657
5,DXDVD,14,2,583,Correct,5,847
5,PZPZP,151,1,718,Correct,5,653
5,LXUMU,231,2,603,Correct,5,807
5,AKADA,173,2,736,Incorrect,5,719
5,HYHYH,15,2,641,Incorrect,5,681
5,AVAVA,152,1,640,Correct,5,822
5,TUTUT,153,1,709,Correct,5,684
5,XYXWX,161,2,675,Correct,5,783
5,TKTDT,174,2,930,Correct,5,754
5,NXNYN,16,2,572,Correct,5,654
5,USUCU,162,2,722,Correct,5,650
5,ZMZMZ,151,1,735,Correct,5,795
5,WRWAW,161,2,925,Correct,5,693
5,GWGXG,162,2,646,Correct,5,754
5,MUMYL,235,2,697,Correct,5,655
5,CNCNC,111,1,712,Correct,5,767
5,RLRLR,10,3,900,Correct,5,792
5,UAUWU,14,2,682,Correct,5,803
5,FXLRF,233,2,611,Correct,5,881
5,PFPFP,111,1,755,Correct,5,854
5,HPHPH,152,1,591,Correct,5,780
5,GKGKG,195,1,702,Correct,5,829
5,ZUZTZ,16,2,622,Correct,5,705
5,AVASA,162,2,718,Correct,5,830
5,PRPRP,151,1,780,Correct,5,706
5,YPYPY,152,1,631,Correct,5,788
5,ZLZOZ,111,2,586,Incorrect,5,655
5,WMWSW,14,2,734,Correct,5,791
5,RZRXR,162,2,666,Correct,5,738
5,QWQWQ,151,1,695,Correct,5,886
5,ZKZKZ,196,1,981,Correct,5,817
5,CVCVL,225,1,988,Incorrect,5,706
5,NMNMN,111,1,1323,Correct,5,905
5,TRTGT,161,2,710,Correct,5,658
5,CTCTC,151,1,768,Correct,5,872
5,RKRLR,122,2,679,Incorrect,5,910
6,B,5,3,2177,New Target,6,816
6,YMYGY,161,2,1095,Correct,6,676
6,HUHRH,162,2,1351,Correct,6,767
6,WHWHW,151,1,606,Correct,6,775
6,MGMRM,161,2,605,Correct,6,887
6,ZVZWZ,162,2,691,Correct,6,695
6,RCRTR,163,2,643,Correct,6,749
6,DSDRD,164,2,691,Correct,6,816
6,VTBDV,233,2,542,Correct,6,831
6,DSDHD,222,2,571,Correct,6,905
6,QEQEQ,151,1,640,Correct,6,725
6,XOXQX,161,1,636,Incorrect,6,832
6,RARBR,72,2,556,Incorrect,6,741
6,GMGMG,13,1,690,Correct,6,701
6,ELERE,171,2,628,Correct,6,676
6,HZHUH,16,2,613,Correct,6,772
6,RHRVR,162,2,595,Correct,6,895
6,YBYBY,8,3,640,Correct,6,918
6,PYPVP,14,2,597,Correct,6,677
6,TLTLT,192,1,713,Correct,6,697
6,QTQTQ,15,1,710,Correct,6,773
6,NXNVN,161,2,787,Correct,6,821
6,QNQNQ,151,3,542,Incorrect,6,784
6,FUFHF,161,2,645,Correct,6,685
6,YVYFB,235,2,713,Incorrect,6,710
6,WQWSW,222,2,709,Correct,6,816
6,HNHLH,193,2,668,Incorrect,6,900
6,OSOTO,16,2,724,Correct,6,950
6,GWGOG,162,2,645,Correct,6,684
6,UBUBU,9,3,934,Correct,6,693
6,CWCWC,13,1,701,Correct,6,767
6,OCOEO,161,2,581,Correct,6,912
6,MNMNM,151,1,1413,Correct,6,873
6,XLXLX,194,2,1062,Incorrect,6,857
6,AYAYA,15,,,Incorrect,6,812
6,FUFAF,161,3,838,Incorrect,6,772
6,ANAQA,162,2,1562,Correct,6,823
6,BUPWP,231,2,695,Correct,6,741
6,WSWSW,111,1,569,Correct,6,665
6,FRFRF,152,1,666,Correct,6,836
6,AUAUA,153,1,711,Correct,6,801
6,GMGCG,161,2,1209,Correct,6,658
6,HLHWH,175,2,931,Correct,6,791
6,PQBQP,223,1,1347,Correct,6,916
6,AZABA,102,3,1191,Correct,6,765
6,CWCVC,14,2,737,Correct,6,822
6,FAFAF,151,1,688,Correct,6,670
6,VMVSV,161,2,574,Correct,6,819
6,GBGBG,11,3,783,Correct,6,806
6,FOFNF,14,2,909,Correct,6,723
6,DSDSD,151,1,843,Correct,6,656
6,YDYDY,152,2,1084,Incorrect,6,899
6,FOFOF,153,1,959,Correct,6,655
6,CHCHB,225,1,993,Correct,6,859
6,ZCZCZ,111,1,579,Correct,6,801
6,DZDGD,161,2,697,Correct,6,706
6,MLMEM,176,2,1064,Correct,6,735
6,PXPXP,15,1,659,Correct,6,945
6,QYQYQ,152,1,558,Correct,6,847
6,GRGCG,161,2,779,Correct,6,946
6,QVQVQ,151,1,702,Correct,6,949
6,XYXNX,161,2,844,Correct,6,786
6,BHMHM,221,1,1233,Correct,6,844
6,CBCBC,12,3,1195,Correct,6,786
7,W,5,3,1429,New Target,7,833
7,QKQKQ,151,1,886,Correct,7,853
7,DUDQD,161,2,848,Correct,7,746
7,OKOKO,151,1,713,Correct,7,806
7,EOEOE,152,1,710,Correct,7,699
7,URUPU,161,1,590,Incorrect,7,948
7,GMGAG,162,2,692,Correct,7,715
7,HVWDH,233,2,676,Correct,7,683
7,MHMHM,111,1,661,Correct,7,722
7,YXYVY,161,2,984,Correct,7,702
7,FNFNF,151,1,952,Correct,7,811
7,AWAWA,7,3,695,Correct,7,908
7,ZAZAZ,13,1,788,Correct,7,786
7,OYOYO,152,1,553,Correct,7,890
7,SQSQS,153,1,703,Correct,7,738
7,OSOSO,154,2,1389,Incorrect,7,780
7,FCFBF,181,2,1446,Correct,7,681
7,EUEUE,15,1,987,Correct,7,727
7,CYCGC,161,2,1052,Correct,7,791
7,SZSUS,162,2,747,Correct,7,765
7,OFOFO,151,1,562,Correct,7,938
7,RVRUR,161,2,581,Correct,7,754
7,ZBZBZ,192,1,918,Correct,7,870
7,UCUTU,16,2,908,Correct,7,748
7,NWNWN,8,3,1107,Correct,7,719
7,XNXUX,14,2,706,Correct,7,775
7,CXCNC,162,2,878,Correct,7,829
7,AUAUW,225,1,1138,Correct,7,922
7,HEHEH,111,1,931,Correct,7,697
7,UFWFU,223,1,839,Correct,7,824
7,HVHEH,222,2,658,Correct,7,677
7,YBYBY,193,1,559,Correct,7,910
7,OYOYO,15,1,544,Correct,7,884
7,TMTWT,91,2,916,Incorrect,7,791
7,HTHTH,13,1,604,Correct,7,759
7,UHUHU,152,1,688,Correct,7,675
7,EVEBE,184,2,1070,Incorrect,7,809
7,HZHMH,16,2,809,Correct,7,887
7,VHVCV,162,1,674,Incorrect,7,859
7,WAGDG,231,2,877,Correct,7,857
7,PFPFP,111,1,788,Correct,7,826
7,OQOQO,152,1,866,Correct,7,751
7,TWTWT,10,3,536,Correct,7,781
7,VKVDV,14,2,637,Correct,7,793
7,WPAPA,221,1,815,Correct,7,765
7,HBHBH,195,1,526,Correct,7,663
7,ZMZAZ,16,2,512,Correct,7,852
7,SYSYS,151,1,624,Correct,7,874
7,FZFXF,161,2,662,Correct,7,682
7,SMSMS,151,1,806,Correct,7,787
7,XOXOX,152,1,637,Correct,7,888
7,FWFWF,11,1,650,Incorrect,7,852
7,ENEBE,186,2,679,Correct,7,841
7,ZVZGZ,16,2,631,Correct,7,757
7,EZEZE,151,1,856,Correct,7,751
7,TOTEW,235,2,659,Correct,7,670
7,PDPDP,111,1,661,Correct,7,758
7,TKTWT,122,2,738,Incorrect,7,838
8,M,5,3,1516,New Target,8,719
8,VYVNV,161,2,917,Correct,8,849
8,KLKTK,162,2,640,Correct,8,656
8,NQNQN,151,1,1293,Correct,8,849
8,VHVEV,161,2,679,Correct,8,672
8,XNXNM,225,3,949,Incorrect,8,846
8,USUVU,222,2,778,Correct,8,787
8,KRKZK,162,2,686,Correct,8,921
8,TMTET,71,2,671,Incorrect,8,760
8,GFGFG,13,1,1202,Correct,8,695
8,OPODO,161,2,956,Correct,8,806
8,KCKCK,151,1,814,Correct,8,865
8,VTVTV,152,1,681,Correct,8,747
8,LSLSL,153,1,507,Correct,8,664
8,DLDLD,154,1,529,Correct,8,754
8,NYNYN,155,1,629,Correct,8,818
8,DCMAD,233,2,619,Correct,8,682
8,TDTDT,111,1,665,Correct,8,814
8,GVGRG,161,2,950,Correct,8,847
8,ZUZUZ,151,1,726,Correct,8,902
8,OGOVO,161,2,897,Correct,8,832
8,PWPTP,171,2,1527,Correct,8,832
8,KLKDM,235,2,1524,Correct,8,858
8,SMSMS,8,3,740,Correct,8,743
8,PRPSP,14,2,1089,Correct,8,738
8,DVDYD,162,2,822,Correct,8,734
8,PXPMP,92,3,683,Correct,8,783
8,GDGLG,14,2,628,Correct,8,902
8,SWSWS,192,1,887,Correct,8,720
8,GDGLG,16,2,591,Correct,8,741
8,MTCYC,231,2,547,Correct,8,743
8,GSGSG,111,1,787,Correct,8,880
8,YQYTY,161,2,673,Correct,8,735
8,ZLZPZ,162,2,591,Correct,8,845
8,HZHZH,151,1,768,Correct,8,831
8,MSOSO,221,1,891,Correct,8,812
8,HWHWH,193,1,891,Correct,8,941
8,PYPAP,16,2,832,Correct,8,839
8,SPSVS,162,2,1106,Correct,8,945
8,XLXLX,151,1,605,Correct,8,908
8,YMYMY,10,3,728,Correct,8,928
8,HYHYH,13,2,666,Incorrect,8,680
8,OWOGO,174,2,797,Correct,8,654
8,PHPOP,16,2,693,Correct,8,861
8,NPNSN,162,2,1281,Correct,8,844
8,HVMVH,223,1,745,Correct,8,717
8,THTFT,222,2,647,Correct,8,726
8,STSTS,151,1,631,Correct,8,749
8,AGAMA,112,3,874,Correct,8,717
8,PEPEP,13,1,671,Correct,8,818
8,ZWZWZ,195,,,Incorrect,8,836
8,ODOZO,16,2,919,Correct,8,779
8,LRLOL,162,2,685,Correct,8,779
8,GZGZG,151,1,637,Correct,8,690
8,TGTGT,152,1,602,Correct,8,900
8,CUCSC,161,2,788,Correct,8,948
8,SCSCS,151,1,604,Correct,8,867
8,AWAWA,196,1,504,Correct,8,933
8,NLNLN,15,1,646,Correct,8,915
8,VNVNV,152,1,698,Correct,8,704
8,GMGMG,12,3,709,Correct,8,851
9,S,5,3,1683,New Target,9,756
9,NBNBN,151,1,747,Correct,9,781
9,KVKZK,161,2,683,Correct,9,731
9,LBLBL,151,1,579,Correct,9,889
9,XLXLX,152,1,791,Correct,9,726
9,ZXZXZ,153,1,566,Correct,9,714
9,KNKZK,161,2,708,Correct,9,944
9,TQTAT,162,2,673,Correct,9,841
9,CLCUC,163,2,738,Correct,9,747
9,ZCZFZ,164,2,685,Correct,9,847
9,NSNSN,7,3,639,Correct,9,762
9,HGHGH,13,1,1203,Correct,9,679
9,THTDT,161,2,697,Correct,9,923
9,VMVMV,191,1,695,Correct,9,808
9,CVCDC,16,2,779,Correct,9,653
9,ZAZRZ,162,2,950,Correct,9,766
9,XTXZX,163,2,654,Correct,9,728
9,OXOXO,151,1,1018,Correct,9,887
9,DCDSD,82,3,889,Correct,9,847
9,PQPDP,14,2,698,Correct,9,884
9,ZMZMZ,192,1,774,Incorrect,9,876
9,BEBEB,15,1,756,Correct,9,651
9,FCFCF,152,1,556,Correct,9,908
9,YAYBY,161,2,707,Correct,9,720
9,KNKVK,162,2,695,Correct,9,655
9,SEPCP,231,2,580,Correct,9,842
9,OPOPO,111,1,620,Correct,9,650
9,XMXMX,193,1,561,Correct,9,693
9,KEKEK,15,1,710,Correct,9,757
9,USUSU,9,1,513,Incorrect,9,896
9,YHSHY,223,1,1096,Correct,9,716
9,UPUPU,111,1,646,Correct,9,794
9,XZXZX,152,1,602,Correct,9,656
9,KGKXK,161,2,662,Correct,9,866
9,QEQPQ,162,2,679,Correct,9,786
9,NUNUS,225,2,922,Incorrect,9,704
9,BXBXB,111,1,860,Correct,9,891
9,SQHQH,221,1,799,Correct,9,891
9,ACACA,111,1,578,Correct,9,903
9,KMKBK,174,2,976,Correct,9,859
9,EGSVE,233,2,1082,Correct,9,652
9,HYHYH,111,1,1038,Correct,9,711
9,LULUL,152,1,556,Correct,9,770
9,AEAEA,153,1,716,Correct,9,897
9,TXTST,102,2,567,Incorrect,9,865
9,FDFCF,14,2,758,Correct,9,873
9,KVKVK,151,2,722,Incorrect,9,739
9,UBUCU,161,2,893,Correct,9,886
9,GAGMG,185,2,798,Correct,9,935
9,UXUGU,16,2,565,Correct,9,854
9,HOHOH,151,1,693,Correct,9,895
9,QUQTS,235,2,711,Correct,9,683
9,YZYZY,111,1,835,Correct,9,785
9,BSBSB,11,1,616,Incorrect,9,827
9,FEFEF,13,1,523,Correct,9,714
9,GMGMG,196,1,494,Correct,9,838
9,TGTXT,16,1,441,Incorrect,9,682
9,LSLFL,121,2,634,Incorrect,9,935
10,Q,5,3,1229,New Target,10,755
10,ZHZOZ,161,2,783,Correct,10,779
10,RZRZR,151,1,954,Correct,10,765
10,BFBFB,152,1,851,Correct,10,666
10,GBGBG,153,1,597,Correct,10,945
10,OGOXO,161,2,1269,Correct,10,821
10,UEQOU,233,2,1151,Correct,10,699
10,BOBRB,222,2,800,Correct,10,658
10,DYDVD,162,2,715,Correct,10,749
10,COCOC,151,1,628,Correct,10,858
10,YZYQY,72,3,772,Correct,10,793
10,FHFWF,14,2,834,Correct,10,710
10,ANANQ,225,2,670,Incorrect,10,781
10,ZAZAZ,111,1,600,Correct,10,878
10,ERESE,181,2,680,Incorrect,10,818
10,XTXOX,16,2,614,Correct,10,810
10,NXNXN,151,1,873,Correct,10,744
10,OVOZO,161,2,798,Correct,10,809
10,WUWOW,162,2,802,Correct,10,894
10,FWFVF,163,2,582,Correct,10,904
10,NSNKN,172,2,810,Incorrect,10,686
10,VWVNV,16,2,674,Correct,10,820
10,XZXZX,151,1,677,Correct,10,667
10,VQVQV,8,3,581,Correct,10,759
10,GYGPG,14,2,715,Correct,10,726
10,OBOSO,183,2,691,Correct,10,950
10,YUYUY,15,1,692,Correct,10,667
10,NDNQN,92,3,727,Correct,10,688
10,FCFHF,14,2,712,Correct,10,727
10,EFEFE,151,1,687,Correct,10,919
10,NSNSN,194,1,749,Correct,10,806
10,YPYFY,16,2,581,Correct,10,843
10,ZKZKZ,151,1,737,Correct,10,944
10,QZQDR,231,2,673,Correct,10,725
10,AOAHA,222,2,820,Correct,10,690
10,BGBGB,151,1,716,Correct,10,785
10,HQHQH,10,3,884,Correct,10,880
10,UHUBU,14,1,855,Incorrect,10,814
10,KRKSK,185,2,1098,Correct,10,945
10,TOTOT,15,1,647,Correct,10,853
10,APAPA,152,1,632,Correct,10,699
10,VDVYV,161,2,792,Correct,10,799
10,FOFTF,162,2,733,Correct,10,895
10,QVXVX,221,2,633,Incorrect,10,768
10,GHGRG,222,2,769,Correct,10,933
10,LFLFL,151,1,654,Correct,10,729
10,HLHLH,152,1,800,Correct,10,781
10,KWQWK,223,2,791,Incorrect,10,786
10,YQYQY,11,3,835,Correct,10,764
10,ADADA,13,1,765,Correct,10,751
10,OGOAO,161,2,1128,Correct,10,819
10,EOEFE,162,2,634,Correct,10,674
10,USUSU,196,1,650,Correct,10,827
10,VFVAQ,235,2,782,Correct,10,668
10,DZDXD,222,2,775,Correct,10,865
10,HVHDH,162,2,637,Correct,10,945
10,DWDWD,151,1,683,Correct,10,840
10,GBGBG,152,1,1017,Correct,10,770
10,AOADA,161,2,697,Correct,10,815
10,GQGQG,12,3,871,Correct,10,767
11,T,5,3,1082,New Target,11,835
11,KEKEK,151,1,1153,Correct,11,905
11,LBLBL,152,1,989,Correct,11,756
11,HEHVH,161,2,557,Correct,11,905
11,FRFOF,162,1,620,Incorrect,11,853
11,EBEBE,151,1,734,Correct,11,813
11,HTHTH,7,3,870,Correct,11,840
11,MAMDM,14,2,938,Correct,11,922
11,VOVOV,151,1,1476,Correct,11,668
11,XQXQX,191,1,770,Correct,11,813
11,PBPAP,16,2,848,Correct,11,659
11,MXMLM,162,2,603,Correct,11,701
11,TCNCN,221,1,664,Correct,11,863
11,OBONO,222,2,683,Correct,11,666
11,RCROR,162,2,787,Correct,11,934
11,PBPRT,235,2,1213,Correct,11,811
11,WFWVW,222,1,795,Incorrect,11,694
11,LTLUL,81,3,939,Correct,11,667
11,ZDZPZ,14,2,639,Correct,11,765
11,NCNQN,182,2,594,Correct,11,721
11,XZXNX,16,2,671,Correct,11,950
11,GOGOG,151,1,1241,Correct,11,927
11,DFDFD,152,1,976,Correct,11,831
11,VWTRV,233,2,609,Correct,11,843
11,CFCVC,222,2,626,Correct,11,717
11,PAPAP,151,1,606,Correct,11,871
11,EQEYE,173,2,521,Correct,11,930
11,DNDED,16,2,697,Correct,11,912
11,PTPTP,9,3,705,Correct,11,939
11,ZCZCZ,13,1,749,Correct,11,854
11,MZMZM,152,1,958,Correct,11,662
11,ULUVU,161,2,822,Correct,11,667
11,BRBGB,162,2,667,Correct,11,887
11,MLMLT,225,1,1180,Correct,11,684
11,GQGQG,194,1,770,Correct,11,922
11,HGHGH,15,1,650,Correct,11,861
11,RVRBR,161,2,623,Correct,11,707
11,ZOZDZ,162,2,874,Correct,11,895
11,VYVYV,151,1,946,Correct,11,742
11,RVRVR,152,1,631,Correct,11,741
11,OTOTO,10,1,562,Incorrect,11,884
11,PXPXP,13,1,687,Correct,11,904
11,MCMCM,152,1,592,Correct,11,747
11,YUYUY,153,1,679,Correct,11,668
11,DYDYD,154,1,595,Correct,11,834
11,WDWDW,155,1,658,Correct,11,901
11,DYDQD,185,2,646,Correct,11,663
11,KDKNK,16,2,771,Correct,11,894
11,HOHOH,151,1,593,Correct,11,732
11,TWEZE,231,2,847,Correct,11,891
11,NANHN,222,2,684,Correct,11,653
11,VQVWV,176,2,599,Correct,11,894
11,ZRZRZ,15,2,614,Incorrect,11,818
11,VTVGV,111,3,1005,Correct,11,936
11,HWHVH,14,2,1250,Correct,11,801
11,EHEHE,151,1,970,Correct,11,777
11,VRVLV,161,2,643,Correct,11,727
11,ACACA,151,1,662,Correct,11,677
11,WBTBW,223,1,821,Correct,11,827
11,UTUTU,12,3,690,Correct,11,712
12,O,5,3,1002,New Target,12,844
12,UXULU,161,2,1017,Correct,12,840
12,MUMDM,162,2,1123,Correct,12,935
12,VLVLV,151,1,847,Correct,12,827
12,BDBHB,161,2,893,Correct,12,657
12,KEKEK,151,1,653,Correct,12,929
12,WKWKW,152,1,715,Correct,12,850
12,AWAWA,153,1,685,Correct,12,729
12,EVEVE,154,3,848,Incorrect,12,684
12,PHPOP,72,2,902,Incorrect,12,864
12,WXWAW,14,2,832,Correct,12,744
12,PWPHP,162,2,743,Correct,12,854
12,ZTZTZ,191,1,612,Correct,12,771
12,HVHMH,16,2,825,Correct,12,706
12,DKDKD,151,1,1095,Correct,12,702
12,NPNPN,152,1,724,Correct,12,845
12,ZRZNZ,161,2,1451,Correct,12,889
12,OGCGC,221,1,939,Correct,12,872
12,LFLFL,151,1,1201,Correct,12,738
12,WXWXW,152,1,798,Correct,12,675
12,KPKPK,153,1,851,Correct,12,901
12,FRFKF,161,2,619,Correct,12,800
12,EOEOE,8,1,1240,Incorrect,12,893
12,GEGEG,13,1,610,Correct,12,742
12,LKLBO,235,2,912,Correct,12,915
12,MLMZM,161,2,1086,Correct,12,901
12,ASACA,162,2,753,Correct,12,699
12,LOLOL,9,1,696,Incorrect,12,948
12,XLXLX,13,1,676,Correct,12,861
12,WHWHW,152,1,739,Correct,12,712
12,ETETE,192,,,Incorrect,12,700
12,OXGZG,231,2,800,Correct,12,795
12,CZCZC,151,1,941,Correct,12,672
12,LGLGL,152,1,736,Correct,12,863
12,VLVPV,161,2,858,Correct,12,865
12,UYUYO,225,1,1091,Correct,12,733
12,SMSMS,151,1,656,Correct,12,830
12,RTRTR,193,,,Incorrect,12,686
12,KVKHK,16,2,1151,Correct,12,754
12,ROROR,101,1,693,Incorrect,12,897
12,PRPRP,13,1,924,Correct,12,936
12,LALHL,161,2,791,Correct,12,687
12,PLPLP,151,1,784,Correct,12,789
12,CTCTC,194,1,937,Correct,12,850
12,XGXAX,16,2,1137,Correct,12,747
12,NMNMN,151,1,973,Correct,12,827
12,HLHZH,161,2,720,Correct,12,845
12,YOYOY,11,1,594,Incorrect,12,743
12,PZOZP,223,1,904,Correct,12,699
12,EAEAE,151,1,664,Correct,12,912
12,GXGVG,161,2,583,Correct,12,758
12,HMHGH,162,2,732,Correct,12,677
12,GTGTG,195,1,779,Correct,12,714
12,LMLGL,16,2,871,Correct,12,771
12,ECEDE,162,2,842,Correct,12,877
12,PSPKP,163,2,1109,Correct,12,726
12,MCOBM,233,2,922,Correct,12,674
12,EMEME,151,1,1506,Correct,12,683
12,CTCRC,176,2,893,Correct,12,892
12,NSNSN,15,1,913,Correct,12,828
12,MWMVM,161,2,732,Correct,12,675
12,CPCOC,122,2,630,Incorrect,12,857
13,H,5,3,1629,New Target,13,898
13,VUVUV,151,1,1478,Correct,13,943
13,YVYVY,152,1,664,Correct,13,798
13,XUXUX,153,1,903,Correct,13,804
13,NRNWN,161,2,606,Correct,13,755
13,MZMKM,162,2,917,Correct,13,674
13,HLVLV,221,1,905,Correct,13,777
13,DXDGD,222,2,652,Correct,13,851
13,LHLAL,71,3,727,Correct,13,896
13,YMYFY,14,2,678,Correct,13,736
13,AOARA,171,2,545,Correct,13,895
13,ZKZAZ,16,2,869,Correct,13,718
13,RZRZR,151,1,831,Correct,13,696
13,NFNAN,161,2,835,Correct,13,939
13,KUKEK,162,2,766,Correct,13,754
13,XAXYX,163,2,619,Correct,13,787
13,LKLUL,164,2,567,Correct,13,945
13,NLNLN,151,1,956,Correct,13,667
13,WDWOW,182,2,791,Correct,13,664
13,EWEWE,15,1,747,Correct,13,939
13,VHVHV,8,3,960,Correct,13,920
13,PVPVP,13,1,719,Correct,13,882
13,CRCSC,161,2,840,Correct,13,897
13,NWNWN,151,1,737,Correct,13,799
13,SQSQS,152,1,774,Correct,13,949
13,AEASA,161,2,835,Correct,13,795
13,GOGOG,193,1,588,Correct,13,731
13,QGQGQ,15,1,650,Correct,13,889
13,FMFMF,152,1,637,Correct,13,683
13,PFPFP,153,1,582,Correct,13,942
13,SYSHS,92,2,676,Incorrect,13,878
13,QGQKQ,14,2,936,Correct,13,697
13,ELELH,225,1,749,Correct,13,755
13,MRMRM,111,1,664,Correct,13,877
13,GUGNG,161,2,756,Correct,13,909
13,ZOZOZ,194,1,642,Correct,13,696
13,EZEZE,15,1,835,Correct,13,774
13,FHFKF,101,2,811,Incorrect,13,858
13,GSHLG,233,2,919,Correct,13,689
13,FKFXF,222,2,935,Correct,13,891
13,DEDYD,162,2,686,Correct,13,761
13,UXUVU,163,2,1083,Correct,13,830
13,MCMOM,185,2,669,Correct,13,715
13,BXBUH,235,2,632,Correct,13,925
13,DMDMD,111,1,964,Correct,13,870
13,BXBDB,161,2,1030,Correct,13,793
13,AVAVA,151,2,664,Incorrect,13,786
13,QUHUQ,223,2,1459,Incorrect,13,942
13,BRBRB,111,1,1133,Correct,13,930
13,ZHZHZ,11,1,523,Incorrect,13,790
13,VZVZV,13,1,645,Correct,13,696
13,HBUQU,231,2,850,Correct,13,896
13,EUEUE,111,1,830,Correct,13,729
13,RQRDR,161,2,790,Correct,13,852
13,COCOC,196,1,566,Correct,13,658
13,VNVSV,16,2,796,Correct,13,739
13,WHWHW,12,3,752,Correct,13,920
14,G,5,3,1909,New Target,14,935
14,EBEBE,151,1,1365,Correct,14,848
14,QPQUQ,161,2,1162,Correct,14,750
14,XDXDX,151,1,1100,Correct,14,703
14,YXYXY,152,1,700,Correct,14,681
14,MBMBM,153,1,730,Correct,14,760
14,QMQKQ,161,2,818,Correct,14,940
14,EYETE,162,2,667,Correct,14,838
14,UKUKU,151,1,885,Correct,14,913
14,MPGPM,223,1,811,Correct,14,788
14,ANANA,111,1,575,Correct,14,950
14,UAUAU,152,1,562,Correct,14,832
14,ADASA,161,2,655,Correct,14,923
14,LKLGL,72,2,637,Incorrect,14,802
14,UWUWU,13,1,526,Correct,14,783
14,MCMUM,161,2,929,Correct,14,810
14,YMYMY,151,1,760,Correct,14,725
14,RHRWR,171,2,719,Correct,14,917
14,DUDCD,16,2,927,Correct,14,727
14,ASAGA,82,2,754,Incorrect,14,833
14,DLDLD,13,1,680,Correct,14,913
14,ZXZDZ,161,2,1301,Correct,14,808
14,ULUFU,162,2,938,Correct,14,829
14,DPDPG,225,2,987,Incorrect,14,895
14,KHKTK,172,2,639,Correct,14,812
14,ZKZUZ,16,2,605,Correct,14,850
14,AKALA,162,2,547,Correct,14,676
14,CNCNC,151,1,1210,Correct,14,657
14,PGPGP,9,3,997,Correct,14,785
14,UPUPU,13,1,792,Correct,14,721
14,FSGWF,233,2,1344,Correct,14,903
14,CACVC,222,2,1156,Correct,14,790
14,FTFTF,151,1,628,Correct,14,729
14,KFKCK,161,1,950,Incorrect,14,718
14,ZEZHZ,183,2,858,Correct,14,825
14,NSNSN,15,1,515,Correct,14,733
14,ENENE,152,2,851,Incorrect,14,864
14,LXLWG,235,2,686,Correct,14,813
14,SMSUS,222,2,893,Correct,14,697
14,ZHZHZ,194,1,789,Correct,14,803
14,PFPFP,15,1,672,Correct,14,765
14,BABAB,152,1,747,Correct,14,919
14,XPXUX,161,2,723,Correct,14,884
14,ACACA,151,1,774,Correct,14,659
14,RGRGR,10,3,629,Correct,14,663
14,URURU,13,1,1018,Correct,14,688
14,PKPTP,161,2,1067,Correct,14,821
14,SGSGS,11,3,1382,Correct,14,892
14,GZYVY,231,2,690,Correct,14,708
14,UDUTU,222,2,1088,Correct,14,668
14,VHVHV,195,1,956,Correct,14,845
14,LWLNL,16,2,700,Correct,14,834
14,GKPKP,221,2,695,Incorrect,14,890
14,SQSPS,222,2,663,Correct,14,717
14,WNWNW,151,1,983,Correct,14,788
14,MHMTM,176,2,842,Incorrect,14,791
14,RZRZR,15,1,839,Correct,14,722
14,CGCDC,121,2,961,Incorrect,14,736
15,A,5,3,1018,New Target,15,702
15,WQWEW,161,2,1591,Correct,15,658
15,RWRKR,162,2,736,Correct,15,850
15,YRYRY,151,1,729,Correct,15,827
15,XOXOX,152,1,693,Correct,15,771
15,QPQPQ,153,1,632,Correct,15,687
15,TDTDT,154,1,616,Correct,15,805
15,WXWBW,161,2,727,Correct,15,845
15,TATAT,7,3,847,Correct,15,922
15,MCMYM,14,2,679,Correct,15,738
15,SMSFS,162,2,1320,Correct,15,780
15,ZLZMZ,163,2,802,Correct,15,747
15,VDVBV,164,2,794,Correct,15,853
15,XCXVX,165,2,699,Correct,15,660
15,LKLBA,235,2,843,Correct,15,734
15,NDNDN,111,1,668,Correct,15,653
15,YGYGY,191,1,1071,Correct,15,659
15,VLVLV,15,1,686,Correct,15,846
15,WQWQW,152,1,853,Correct,15,921
15,MAMOM,81,2,639,Incorrect,15,728
15,YZABY,233,2,679,Correct,15,657
15,CFCFC,111,1,640,Correct,15,950
15,UTULU,161,2,1293,Correct,15,833
15,KPKUK,162,2,903,Correct,15,742
15,TCTQT,163,2,958,Correct,15,742
15,FGFGF,192,1,688,Correct,15,895
15,RCRYR,16,2,991,Correct,15,728
15,KRKDK,162,2,573,Correct,15,942
15,CRCRC,151,1,932,Correct,15,705
15,WOAOW,223,2,1096,Incorrect,15,802
15,LPLWL,222,2,708,Correct,15,840
15,DGDUD,173,2,1169,Correct,15,772
15,EMEZE,16,2,841,Correct,15,887
15,DADAD,9,3,886,Correct,15,666
15,WDWDW,13,3,839,Incorrect,15,902
15,AWQWQ,221,1,1263,Correct,15,798
15,TKTQT,222,2,810,Correct,15,722
15,MTMFM,162,2,1137,Correct,15,825
15,KAKAK,10,3,961,Correct,15,744
15,BDBRB,14,,,Incorrect,15,705
15,QPQPQ,151,1,869,Correct,15,746
15,NDNDN,152,1,699,Correct,15,860
15,QYQGQ,184,2,823,Correct,15,858
15,VPVPV,15,1,852,Correct,15,655
15,RDRDA,225,1,688,Correct,15,655
15,KWKOK,222,2,849,Correct,15,742
15,TPTPT,151,1,577,Correct,15,939
15,DCDCD,152,1,709,Correct,15,824
15,OWOAO,112,3,988,Correct,15,893
15,ZCZNZ,14,2,672,Correct,15,776
15,MGMYM,182,2,829,Correct,15,835
15,ANLOL,231,2,743,Correct,15,745
15,DWDPD,222,2,535,Correct,15,734
15,YQYQY,151,1,712,Correct,15,882
15,LGLGL,196,1,930,Correct,15,916
15,VYVLV,16,2,777,Correct,15,733
15,MVMVM,151,1,938,Correct,15,661
15,QMQMQ,152,1,623,Correct,15,770
15,SXSXS,153,1,1029,Correct,15,688
15,WAWAW,12,3,872,Correct,15,783
