Trial No,Stimulus,Trigger,Response,Response Time(ms),Correct,Block,Fixation Duration
Practice
OT Practice
1,SKSKS,15,1,1051,Correct,0,882
1,DLDUD,16,2,784,Correct,0,949
1,PDPGP,16,2,966,Correct,0,834
1,MWMWM,15,1,867,Correct,0,855
1,FTFTF,15,1,707,Correct,0,907
1,AXAMA,16,2,728,Correct,0,938
1,RYRGR,16,2,978,Correct,0,731
1,DODOD,15,1,564,Correct,0,735
1,QTQAQ,16,2,781,Correct,0,933
1,YEYEY,15,1,486,Correct,0,680
2,GYGDG,16,2,799,Correct,0,691
2,SWSWS,15,1,475,Correct,0,686
2,HLHUH,16,1,587,False,0,801
2,DEDED,15,1,547,Correct,0,931
2,ZPZOZ,16,2,562,Correct,0,813
2,ATATA,15,1,645,Correct,0,753
2,QOQOQ,15,1,641,Correct,0,773
2,FPFGF,16,2,695,Correct,0,945
2,TRTET,16,2,687,Correct,0,825
2,DQDQD,15,1,563,Correct,0,932
4,PLPLP,15,1,661,Correct,0,918
4,ATAIA,16,2,631,Correct,0,680
4,SKSGS,16,2,862,Correct,0,916
4,ZYZYZ,15,1,549,Correct,0,732
4,QSQSQ,15,1,560,Correct,0,857
4,TZTDT,16,2,826,Correct,0,882
4,JYJGJ,16,2,706,Correct,0,720
4,DYDYD,15,1,599,Correct,0,944
4,LTLCL,16,2,658,Correct,0,784
4,FQFEF,16,2,569,Correct,0,886
1,SKSKS,15,1,797,Correct,0,784
1,DLDUD,16,2,709,Correct,0,748
1,PDPGP,16,2,725,Correct,0,693
1,MWMWM,15,1,538,Correct,0,847
1,FTFTF,15,1,893,Correct,0,777
1,AXAMA,16,2,602,Correct,0,893
1,RYRGR,16,2,595,Correct,0,866
1,DODOD,15,1,547,Correct,0,764
1,QTQAQ,16,2,789,Correct,0,767
1,YEYEY,15,1,588,Correct,0,794
AT Practice
1,TKTKT,15,,,False,0,949
1,SLSUS,16,,,False,0,792
1,VZVGV,7,,,False,0,836
1,XWXZX,7,3,642,Correct,0,725
1,ATATA,15,2,1226,False,0,908
1,HXZMH,16,2,1569,Correct,0,752
1,TZTZT,7,3,1006,Correct,0,706
1,UOUOU,15,2,1201,False,0,700
1,ZTWAW,16,,,False,0,766
1,RZRER,7,3,1323,Correct,0,854
2,JYJDJ,16,,,False,0,754
2,DWDWD,15,,,False,0,885
2,GNGNG,7,3,809,Correct,0,750
2,NEZEZ,16,2,1558,False,0,660
2,RNROR,7,3,1021,Correct,0,828
2,QTQNQ,7,3,794,Correct,0,799
2,HOHON,15,1,1519,Correct,0,774
2,KPKGK,16,2,924,Correct,0,700
2,DRDED,16,2,1047,Correct,0,943
2,LNLNL,7,3,708,Correct,0,795
4,GLGLG,15,,,False,0,849
4,DTDID,16,2,1053,Correct,0,806
4,SMSGS,16,2,1063,Correct,0,893
4,ZFZYZ,7,3,984,Correct,0,662
4,TSTFT,7,3,1174,Correct,0,793
4,OFOFO,7,3,928,Correct,0,701
4,WYFGW,16,,,False,0,765
4,WYWYW,15,1,1134,Correct,0,689
4,MFMCM,7,3,1075,Correct,0,943
4,HQHEH,16,2,1009,Correct,0,723
1,TKTKT,15,1,1245,Correct,0,859
1,SLSUS,16,2,815,Correct,0,845
1,VZVGV,7,3,952,Correct,0,749
1,XWXZX,7,3,776,Correct,0,778
1,ATATA,15,1,875,Correct,0,905
1,HXZMH,16,2,1346,Correct,0,661
1,TZTZT,7,3,591,Correct,0,875
1,UOUOU,15,1,913,Correct,0,669
1,ZTWAW,16,2,754,Correct,0,749
1,RZRER,7,3,585,Correct,0,777
Trials
1,D,5,3,8792,New Target,1,722
1,ZNZYZ,161,2,1202,Correct,1,831
1,FZFZF,151,3,777,Incorrect,1,895
1,RKRKR,152,1,861,Correct,1,910
1,RXRNR,161,2,994,Correct,1,827
1,CNCFC,162,2,1016,Correct,1,673
1,PDPDP,7,3,678,Correct,1,846
1,CPCFC,14,2,873,Correct,1,683
1,VLVNV,162,2,798,Correct,1,845
1,KFKFK,151,1,1066,Correct,1,764
1,ZNZNZ,152,1,1144,Correct,1,773
1,KCKPD,235,2,1188,Correct,1,835
1,ZKZFZ,222,2,1409,Correct,1,749
1,NRNZN,162,2,958,Correct,1,913
1,KXKRK,163,2,696,Correct,1,672
1,YPYZY,164,2,856,Correct,1,750
1,FKDKF,223,1,944,Correct,1,743
1,RPRPR,113,1,874,Correct,1,665
1,VRVKV,161,2,934,Correct,1,719
1,RFRPR,162,2,812,Correct,1,735
1,KVKVK,151,1,547,Correct,1,892
1,YKYVY,161,2,823,Correct,1,751
1,VDVDV,8,3,572,Correct,1,885
1,DVZVZ,221,1,1039,Correct,1,799
1,YFYFY,113,1,603,Correct,1,883
1,ZYZYZ,152,1,888,Correct,1,906
1,VLVXV,161,2,619,Correct,1,833
1,DPXZX,231,2,1249,Correct,1,714
1,RYRYR,113,1,679,Correct,1,863
1,PDPNP,91,2,773,Incorrect,1,852
1,KXKXK,13,1,853,Correct,1,674
1,ZYZYZ,152,1,864,Correct,1,656
1,VKVKV,153,1,771,Correct,1,937
1,YZYZY,154,1,862,Correct,1,770
1,NLNZN,161,2,819,Correct,1,890
1,ZNDYZ,233,2,1004,Correct,1,814
1,PCPXP,222,2,782,Correct,1,792
1,ZVZFZ,162,2,825,Correct,1,785
1,RCRZR,163,2,599,Correct,1,672
1,LRLRL,151,1,676,Correct,1,901
1,ZDZDZ,10,3,546,Correct,1,788
1,RNRZR,14,2,839,Correct,1,745
1,CXCYC,162,2,804,Correct,1,654
1,RCRLR,163,2,619,Correct,1,906
1,FRFRF,151,1,592,Correct,1,727
1,XFXFX,152,1,668,Correct,1,922
1,RPRLR,161,2,672,Correct,1,657
1,YXYRY,162,2,692,Correct,1,707
1,FYFYF,151,1,538,Correct,1,947
1,YZYVY,161,2,1041,Correct,1,666
1,YKYKY,151,1,832,Correct,1,863
1,XRXRX,152,1,590,Correct,1,661
1,XVXZX,161,2,709,Correct,1,673
1,PDPDP,11,3,464,Correct,1,819
1,ZFZFZ,13,1,674,Correct,1,874
1,PXPXP,152,1,614,Correct,1,699
1,LYLYL,153,1,613,Correct,1,840
1,NKNKD,225,2,730,Incorrect,1,701
1,ZNZNZ,113,1,771,Correct,1,909
1,PYPZP,161,2,775,Correct,1,943
1,XPXPX,151,1,626,Correct,1,768
1,VLVLV,152,1,552,Correct,1,661
1,PKPXP,161,2,746,Correct,1,809
1,FZFZF,151,1,629,Correct,1,813
1,LDLDL,12,3,531,Correct,1,869
2,U,5,3,4235,New Target,2,842
2,ZVZFZ,161,2,959,Correct,2,881
2,FZFZF,151,1,795,Correct,2,896
2,RFRFR,152,2,757,Incorrect,2,772
2,NZNKN,161,2,1394,Correct,2,768
2,FZFNF,162,2,851,Correct,2,834
2,RXRXR,151,1,662,Correct,2,869
2,KRKYK,161,2,891,Correct,2,651
2,NZNPN,162,2,881,Correct,2,808
2,XPXPX,151,1,636,Correct,2,686
2,CUCUC,7,3,842,Correct,2,819
2,RFRFR,13,1,655,Correct,2,885
2,VYVXV,161,2,696,Correct,2,888
2,VDVDV,191,3,651,Incorrect,2,695
2,ZKZRZ,15,2,1140,Correct,2,914
2,XCXCX,151,1,746,Correct,2,936
2,CNCUC,82,3,977,Correct,2,943
2,RCRCR,13,1,838,Correct,2,773
2,ZPZXZ,161,2,799,Correct,2,789
2,FKFYF,162,2,732,Correct,2,685
2,ZFZYZ,163,2,729,Correct,2,769
2,PXPXP,151,1,786,Correct,2,927
2,URCKC,231,2,969,Correct,2,895
2,PCPCP,113,1,744,Correct,2,924
2,XNXNX,152,1,671,Correct,2,938
2,RCRZR,161,2,604,Correct,2,799
2,XVXVX,151,1,716,Correct,2,800
2,NRNRN,152,1,850,Correct,2,949
2,FPFPF,225,1,682,Correct,2,805
2,XVXFX,222,2,663,Correct,2,874
2,PRPRP,151,1,693,Correct,2,749
2,FYFCF,161,2,725,Correct,2,774
2,XUXFX,91,3,1008,Correct,2,831
2,CYCVC,14,2,1156,Correct,2,785
2,VDVKV,172,2,1341,Correct,2,865
2,YCYCY,15,1,1014,Correct,2,686
2,NKNLN,161,2,852,Correct,2,838
2,XPUKX,233,2,1542,Correct,2,894
2,ZPZPZ,113,1,719,Correct,2,948
2,KRKRK,152,1,636,Correct,2,818
2,XKXKX,153,1,715,Correct,2,872
2,YUYVY,101,3,678,Correct,2,843
2,XKXFU,235,2,1203,Correct,2,738
2,NFNFN,113,1,766,Correct,2,813
2,KDKDK,193,1,652,Correct,2,731
2,XYXKX,16,2,807,Correct,2,950
2,YZUZY,223,1,1422,Correct,2,806
2,KFKVK,222,2,658,Correct,2,749
2,LYLYL,151,1,755,Correct,2,730
2,CXCDC,184,2,810,Incorrect,2,874
2,XZXNX,16,2,874,Correct,2,650
2,PXPXP,151,1,934,Correct,2,657
2,ZRZYZ,161,2,776,Correct,2,891
2,PUPYP,111,3,830,Correct,2,949
2,RNRNR,14,1,679,Correct,2,823
2,KDKDK,195,1,791,Correct,2,730
2,KNKNK,15,1,638,Correct,2,863
2,PRPKP,161,2,729,Correct,2,922
2,UNYNY,221,1,856,Correct,2,719
2,NYNYN,113,1,980,Correct,2,670
2,YXYXY,152,1,619,Incorrect,2,699
2,RDRDR,196,1,726,Correct,2,912
2,FCFCF,15,1,593,Correct,2,850
2,ZKZKZ,152,1,771,Correct,2,822
2,ZUZUZ,12,3,556,Correct,2,896
3,E,5,3,1682,New Target,3,748
3,YZYZY,151,1,1044,Correct,3,845
3,VFVNV,161,2,1047,Correct,3,761
3,KYKYK,151,1,643,Correct,3,933
3,NKNKN,152,1,1009,Correct,3,861
3,XVXNX,161,2,801,Correct,3,827
3,RERFR,71,3,1110,Correct,3,937
3,XNXNX,13,1,596,Correct,3,750
3,NXNXN,152,1,612,Correct,3,837
3,ZLZNZ,161,2,678,Correct,3,764
3,CUCNC,171,2,1442,Correct,3,892
3,FYFRF,16,2,810,Correct,3,652
3,ZLZLZ,151,1,693,Correct,3,760
3,YZYZY,152,1,671,Correct,3,923
3,CYCYC,153,1,545,Correct,3,682
3,VUVUV,192,1,502,Correct,3,722
3,PXPRP,16,2,939,Correct,3,827
3,YPYPY,151,1,727,Correct,3,656
3,CECEC,8,3,629,Correct,3,704
3,VNENV,223,1,1504,Correct,3,945
3,KRKFK,222,2,943,Correct,3,802
3,XLXLE,225,1,629,Correct,3,769
3,RFRUR,183,2,935,Correct,3,774
3,XRXLX,16,2,632,Correct,3,855
3,NZNPN,162,2,739,Correct,3,875
3,XZXZX,151,1,849,Correct,3,718
3,FZFZF,152,1,829,Correct,3,692
3,PFPFP,153,1,630,Correct,3,802
3,YZYXY,161,2,794,Correct,3,657
3,KEKEK,9,3,729,Correct,3,680
3,CXCPC,14,2,801,Correct,3,894
3,VXVXV,151,1,741,Correct,3,940
3,NUNZN,174,2,838,Correct,3,691
3,RKRVR,16,2,991,Correct,3,773
3,XRXRX,151,1,681,Correct,3,662
3,ERNFN,231,2,771,Incorrect,3,875
3,YRYNY,222,,,Incorrect,3,928
3,PZPEP,102,2,663,Incorrect,3,696
3,ZYZXZ,14,2,1013,Correct,3,805
3,RZRVR,162,2,716,Correct,3,666
3,XRXRX,151,1,751,Correct,3,710
3,KUKFK,175,2,623,Correct,3,718
3,RKRKR,15,1,733,Correct,3,817
3,ZFZFZ,152,1,1015,Correct,3,861
3,YZYVY,161,1,667,Incorrect,3,688
3,XPXNX,162,2,806,Correct,3,890
3,YRYRY,151,1,623,Correct,3,768
3,EPVPV,221,1,1260,Correct,3,888
3,CRCEC,112,3,720,Correct,3,920
3,RFRCR,14,2,795,Correct,3,827
3,CPCVC,162,2,887,Correct,3,799
3,RXRCR,163,2,701,Correct,3,720
3,VNVLV,164,2,672,Correct,3,691
3,ZXZXZ,151,1,856,Correct,3,946
3,ZCZCZ,152,1,721,Correct,3,728
3,PYPUP,186,2,1227,Correct,3,883
3,YKYPY,16,2,950,Correct,3,792
3,YREXY,233,2,1241,Correct,3,823
3,ZKZKZ,113,1,767,Correct,3,910
3,XLXNX,161,2,682,Correct,3,731
3,KFKRE,235,2,755,Correct,3,871
3,RXRLR,222,2,623,Correct,3,823
3,RERXR,121,3,1230,Correct,3,866
4,J,5,3,1837,New Target,4,919
4,CYCVC,161,2,1267,Correct,4,821
4,RXRCR,162,2,694,Correct,4,908
4,FPFVF,163,2,705,Correct,4,870
4,LZLZL,151,1,1149,Correct,4,862
4,PLPLP,152,1,797,Correct,4,694
4,NPNPN,153,1,948,Correct,4,906
4,XZXZX,161,1,697,Incorrect,4,718
4,CNCKC,162,2,977,Correct,4,932
4,PCPYJ,235,2,718,Correct,4,947
4,VYVYV,113,1,698,Correct,4,898
4,RLRLR,152,1,737,Correct,4,893
4,CJCJC,7,3,669,Correct,4,772
4,ZLZLZ,13,1,830,Correct,4,728
4,FZFZF,152,1,961,Correct,4,926
4,CFCFC,153,1,693,Correct,4,839
4,PZPZP,154,1,845,Correct,4,922
4,XEXEX,191,1,1163,Correct,4,694
4,NVNFN,16,2,758,Correct,4,835
4,KYKYK,151,1,712,Correct,4,694
4,ZNZVZ,161,2,866,Correct,4,866
4,YVJXY,233,2,1444,Correct,4,933
4,XFXFX,113,1,746,Correct,4,656
4,XNXNX,152,1,814,Correct,4,932
4,FJFKF,81,3,760,Correct,4,772
4,CZCYC,14,2,1094,Correct,4,737
4,ZXZCZ,162,2,743,Correct,4,795
4,RYRYJ,225,1,1428,Correct,4,808
4,FPFZF,222,2,754,Correct,4,866
4,XRXRX,151,1,720,Correct,4,765
4,YPYEY,182,2,1230,Correct,4,728
4,XRXRX,15,1,675,Correct,4,905
4,XZXPX,161,2,756,Correct,4,655
4,CJCJC,9,3,651,Correct,4,900
4,ZXZVZ,14,2,789,Correct,4,936
4,VKVKV,151,1,959,Correct,4,791
4,VEVNV,173,2,818,Correct,4,867
4,ZKZVZ,16,2,859,Correct,4,812
4,XVXJX,102,3,743,Correct,4,651
4,RXRVR,14,2,1025,Correct,4,808
4,LRLRL,151,1,665,Correct,4,656
4,YNJNY,223,1,836,Correct,4,933
4,NPNJN,222,3,1018,Incorrect,4,803
4,ZEZEZ,194,1,832,Correct,4,659
4,ZNZNZ,15,1,647,Correct,4,881
4,YZYZY,152,1,1001,Correct,4,671
4,XYXYX,153,1,662,Correct,4,928
4,ZXZXZ,221,1,630,Correct,4,742
4,LYLZL,222,2,945,Correct,4,901
4,CYCNC,162,1,1362,Incorrect,4,876
4,XEXEX,195,1,726,Correct,4,762
4,CVCXC,16,2,804,Correct,4,766
4,ZPZXZ,162,2,626,Correct,4,719
4,FZFZF,151,1,851,Correct,4,743
4,RXRJR,112,3,879,Correct,4,715
4,PRPFP,14,2,902,Correct,4,823
4,PKPEP,186,2,638,Correct,4,721
4,XZXPX,16,2,697,Correct,4,916
4,JCZVZ,231,2,1192,Correct,4,703
4,RXRLR,222,2,766,Correct,4,946
4,VZVZV,151,1,779,Correct,4,707
4,XJXJX,12,3,773,Correct,4,755
5,I,5,3,1282,New Target,5,900
5,PCPCP,151,1,1156,Correct,5,925
5,XYXYX,152,1,617,Correct,5,943
5,VXVXV,153,1,724,Correct,5,947
5,XVXVX,154,1,523,Correct,5,906
5,ZRZXZ,161,1,702,Incorrect,5,844
5,FPFZF,162,2,830,Correct,5,697
5,ZYZYZ,151,1,722,Correct,5,866
5,RVRZR,161,2,894,Correct,5,859
5,CICIC,7,3,1174,Correct,5,789
5,XLXLX,13,2,715,Incorrect,5,904
5,YVYVY,152,1,874,Correct,5,732
5,CJCJC,191,,,Incorrect,5,893
5,FNFCF,16,2,768,Correct,5,916
5,PVPRP,162,2,812,Correct,5,770
5,FZFZF,151,1,776,Correct,5,671
5,NVIVN,223,1,572,Correct,5,932
5,CVCIC,82,3,943,Correct,5,787
5,ZXZXZ,13,1,661,Correct,5,784
5,FCFZF,161,2,755,Correct,5,811
5,IXRXR,221,1,1008,Correct,5,698
5,ZPZNZ,222,2,733,Correct,5,884
5,VZVZV,151,1,763,Correct,5,767
5,YRYNY,161,2,724,Correct,5,858
5,VNVPV,162,2,786,Correct,5,748
5,RVRJR,182,,,Incorrect,5,780
5,VRVRV,15,1,609,Correct,5,934
5,VIVIV,9,3,788,Correct,5,749
5,CXCVC,14,1,680,Incorrect,5,924
5,PZPZP,151,1,761,Correct,5,725
5,IXVKV,231,2,1318,Correct,5,766
5,YJYCY,173,2,904,Incorrect,5,939
5,VYVYV,15,1,858,Correct,5,936
5,YVYVY,152,1,559,Correct,5,853
5,NVNVN,153,1,948,Correct,5,719
5,XYXVX,161,2,613,Correct,5,881
5,NJNCN,174,2,937,Correct,5,747
5,NXNYN,16,2,604,Correct,5,846
5,VXVCV,162,2,639,Correct,5,797
5,ZKZKZ,151,1,659,Correct,5,701
5,XRXYX,161,2,574,Correct,5,871
5,ZCZXZ,162,2,659,Correct,5,681
5,KVKYI,235,2,702,Correct,5,897
5,CNCNC,113,1,793,Correct,5,868
5,RIRIR,10,3,928,Correct,5,848
5,VYVXV,14,2,855,Correct,5,739
5,FXIRF,233,2,1486,Correct,5,846
5,PFPFP,113,1,641,Correct,5,698
5,VPVPV,152,1,773,Correct,5,689
5,ZJZJZ,195,1,558,Correct,5,869
5,ZVZNZ,16,2,868,Correct,5,687
5,YVYXY,162,2,778,Correct,5,775
5,PRPRP,151,1,629,Correct,5,772
5,YPYPY,152,1,603,Correct,5,935
5,ZIZPZ,111,3,1179,Correct,5,917
5,NKNXN,14,2,1275,Correct,5,727
5,RZRXR,162,2,707,Correct,5,775
5,RXRXR,151,1,768,Correct,5,842
5,ZJZJZ,196,1,1257,Correct,5,857
5,CVCVI,225,1,590,Incorrect,5,877
5,NKNKN,113,2,765,Incorrect,5,916
5,NRNZN,161,2,822,Correct,5,804
5,CNCNC,151,1,557,Correct,5,890
5,RFRIR,122,3,564,Correct,5,671
6,B,5,3,1285,New Target,6,773
6,YKYZY,161,2,1200,Correct,6,659
6,VCVRV,162,2,600,Correct,6,805
6,XVXVX,151,1,650,Correct,6,796
6,KZKRK,161,2,791,Correct,6,836
6,ZVZXZ,162,2,722,Correct,6,783
6,RCRNR,163,2,723,Correct,6,675
6,CXCRC,164,2,746,Correct,6,908
6,VNBCV,233,2,756,Correct,6,873
6,CXCVC,222,2,601,Correct,6,945
6,RFRFR,151,1,869,Correct,6,909
6,XPXRX,161,2,991,Correct,6,670
6,RYRBR,72,3,677,Correct,6,725
6,ZKZKZ,13,1,726,Correct,6,745
6,FIFRF,171,2,958,Correct,6,923
6,VZVLV,16,2,657,Correct,6,789
6,RPRVR,162,2,610,Correct,6,777
6,YBYBY,8,3,719,Correct,6,868
6,PYPVP,14,2,1039,Correct,6,699
6,NININ,192,1,1398,Correct,6,721
6,RNRNR,15,1,669,Correct,6,676
6,NXNVN,161,2,578,Correct,6,670
6,RNRNR,151,1,577,Correct,6,838
6,FRFVF,161,2,710,Correct,6,724
6,YVYFB,235,1,852,Correct,6,802
6,ZRZXZ,222,2,653,Correct,6,691
6,VNVIV,193,2,583,Incorrect,6,948
6,PXPNP,16,2,697,Correct,6,786
6,ZXZPZ,162,2,583,Correct,6,801
6,VBVBV,9,3,598,Correct,6,860
6,CXCXC,13,1,740,Correct,6,908
6,PCPFP,161,2,638,Correct,6,823
6,KNKNK,151,1,735,Correct,6,782
6,XIXIX,194,1,832,Correct,6,708
6,CYCYC,15,1,597,Correct,6,886
6,FVFYF,161,2,617,Correct,6,716
6,YNYRY,162,2,861,Correct,6,741
6,BVPXP,231,2,581,Correct,6,754
6,NXNXN,113,1,950,Correct,6,810
6,FRFRF,152,1,570,Correct,6,780
6,YVYVY,153,1,556,Correct,6,815
6,ZKZCZ,161,2,557,Correct,6,894
6,VIVXV,175,2,740,Correct,6,720
6,PRBRP,223,1,1504,Correct,6,799
6,YZYBY,102,3,626,Correct,6,702
6,CXCVC,14,2,590,Correct,6,876
6,FYFYF,151,1,590,Correct,6,864
6,VKVXV,161,2,1020,Correct,6,901
6,ZBZBZ,11,3,671,Correct,6,760
6,FPFNF,14,2,655,Correct,6,744
6,CXCXC,151,1,539,Correct,6,928
6,YCYCY,152,1,531,Correct,6,703
6,FPFPF,153,1,571,Correct,6,728
6,CVCVB,225,1,638,Correct,6,767
6,ZCZCZ,113,1,575,Correct,6,760
6,CZCNC,161,2,596,Correct,6,662
6,KIKFK,176,1,711,Incorrect,6,774
6,PXPXP,15,1,595,Correct,6,798
6,RYRYR,152,1,514,Correct,6,870
6,ZRZCZ,161,2,577,Correct,6,945
6,RVRVR,151,1,602,Correct,6,679
6,XYXNX,161,2,770,Correct,6,660
6,BVKVK,221,1,655,Correct,6,759
6,CBCBC,12,3,714,Correct,6,926
7,W,5,3,1301,New Target,7,888
7,RKRKR,151,1,1173,Correct,7,766
7,CVCRC,161,2,677,Correct,7,756
7,PKPKP,151,1,560,Correct,7,828
7,FPFPF,152,1,772,Correct,7,763
7,VRVPV,161,2,863,Correct,7,805
7,ZKZYZ,162,2,757,Correct,7,790
7,PVPCP,233,2,895,Correct,7,818
7,KVKVK,113,1,577,Correct,7,909
7,YXYVY,161,2,611,Correct,7,826
7,FNFNF,151,1,576,Correct,7,922
7,YWYWY,7,3,877,Correct,7,894
7,ZYZYZ,13,1,806,Correct,7,748
7,PYPYP,152,1,590,Correct,7,861
7,XRXRX,153,1,635,Correct,7,928
7,PXPXP,154,1,551,Correct,7,878
7,FCFBF,181,2,1442,Correct,7,671
7,FVFVF,15,1,616,Correct,7,654
7,CYCZC,161,2,632,Correct,7,845
7,XZXVX,162,1,776,Incorrect,7,796
7,PFPFP,151,1,689,Correct,7,819
7,RVRLR,161,2,608,Correct,7,810
7,ZBZBZ,192,,,Incorrect,7,693
7,VCVNV,16,2,748,Correct,7,860
7,NWNWN,8,3,627,Correct,7,910
7,XNXVX,14,2,723,Correct,7,817
7,CXCNC,162,2,785,Correct,7,721
7,YVYVW,225,1,1148,Correct,7,729
7,VFVFV,113,1,710,Correct,7,845
7,VFWFV,223,1,734,Correct,7,929
7,CVCFC,222,2,680,Correct,7,814
7,YBYBY,193,1,1362,Correct,7,909
7,PYPYP,15,1,738,Correct,7,940
7,NKNWN,91,3,905,Correct,7,883
7,VNVNV,13,1,943,Correct,7,803
7,RVRVR,152,1,712,Correct,7,699
7,FVFBF,184,,,Incorrect,7,869
7,VZVKV,16,2,669,Correct,7,827
7,VPVCV,162,2,1118,Correct,7,727
7,WYZCZ,231,2,858,Correct,7,882
7,PFPFP,113,1,944,Correct,7,802
7,PRPRP,152,1,659,Correct,7,836
7,NWNWN,10,3,774,Correct,7,650
7,VKVCV,14,2,909,Correct,7,884
7,WPYPY,221,1,817,Correct,7,836
7,VBVBV,195,1,1033,Correct,7,831
7,ZKZYZ,16,2,841,Correct,7,839
7,XYXYX,151,1,818,Correct,7,742
7,FZFXF,161,2,1566,Correct,7,756
7,XKXKX,151,1,1046,Correct,7,899
7,XPXPX,152,1,727,Correct,7,840
7,FWFWF,11,3,757,Correct,7,707
7,FNFBF,186,2,867,Correct,7,680
7,ZVZYZ,16,2,952,Correct,7,815
7,FZFZF,151,1,849,Correct,7,685
7,NPNFW,235,2,825,Correct,7,819
7,PCPCP,113,1,799,Correct,7,816
7,NKNWN,122,3,762,Correct,7,781
8,M,5,3,1376,New Target,8,729
8,VYVNV,161,2,807,Correct,8,933
8,KLKNK,162,2,596,Correct,8,720
8,NRNRN,151,1,827,Correct,8,684
8,VNVFV,161,2,565,Correct,8,787
8,XNXNM,225,1,951,Correct,8,764
8,CXCVC,222,2,617,Correct,8,803
8,KRKZK,162,2,809,Correct,8,783
8,NMNFN,71,2,976,Incorrect,8,837
8,ZFZFZ,13,1,706,Correct,8,850
8,YPYCY,161,2,654,Correct,8,850
8,KCKCK,151,1,663,Correct,8,904
8,VNVNV,152,1,741,Correct,8,862
8,LXLXL,153,1,817,Correct,8,820
8,CLCLC,154,1,682,Correct,8,837
8,NYNYN,155,1,749,Correct,8,722
8,LCMYL,233,,,Incorrect,8,765
8,NCNCN,113,1,592,Correct,8,899
8,ZVZRZ,161,2,716,Correct,8,939
8,ZVZVZ,151,1,597,Correct,8,887
8,PZPVP,161,1,704,Incorrect,8,929
8,PWPNP,171,,,Incorrect,8,663
8,KLKCM,235,2,963,Correct,8,677
8,XMXMX,8,3,730,Correct,8,703
8,PRPXP,14,2,678,Correct,8,819
8,CVCYC,162,2,628,Correct,8,846
8,PXPMP,92,3,608,Correct,8,885
8,ZCZLZ,14,2,674,Correct,8,759
8,XWXWX,192,1,1382,Correct,8,674
8,ZCZLZ,16,2,698,Correct,8,806
8,MNCYC,231,,,Incorrect,8,850
8,ZXZXZ,113,1,708,Correct,8,746
8,YRYNY,161,2,688,Correct,8,809
8,ZLZPZ,162,2,690,Correct,8,653
8,VZVZV,151,1,864,Correct,8,772
8,MXPXP,221,1,994,Correct,8,900
8,VWVWV,193,1,1000,Correct,8,733
8,PYPYP,16,1,687,Incorrect,8,688
8,XPXVX,162,2,684,Correct,8,878
8,XLXLX,151,1,600,Correct,8,779
8,YMYMY,10,3,824,Correct,8,794
8,VYVYV,13,1,614,Correct,8,652
8,PWPZP,174,2,851,Correct,8,918
8,PYPKP,16,2,921,Correct,8,875
8,NPNXN,162,2,876,Correct,8,835
8,KVKVK,223,1,1024,Correct,8,822
8,NVNFN,222,2,638,Correct,8,912
8,XNXNX,151,1,751,Correct,8,742
8,YZYMY,112,3,634,Correct,8,794
8,PFPFP,13,1,632,Correct,8,809
8,ZWZWZ,195,1,962,Correct,8,916
8,PCPZP,16,2,688,Correct,8,911
8,LRLPL,162,2,851,Correct,8,723
8,CZCZC,151,1,920,Correct,8,904
8,NZNZN,152,1,1054,Correct,8,798
8,CVCXC,161,2,715,Correct,8,882
8,XCXCX,151,1,634,Correct,8,687
8,YWYWY,196,1,700,Correct,8,681
8,NLNLN,15,1,662,Correct,8,898
8,VNVNV,152,1,640,Correct,8,927
8,ZMZMZ,12,3,607,Correct,8,825
9,S,5,3,1259,New Target,9,930
9,NZNZN,151,1,1060,Correct,9,822
9,KVKZK,161,2,655,Correct,9,902
9,LZLZL,151,1,653,Correct,9,832
9,XLXLX,152,1,688,Correct,9,692
9,ZXZXZ,153,1,607,Correct,9,695
9,KNKZK,161,2,762,Correct,9,931
9,NRNYN,162,2,952,Correct,9,737
9,CLCVC,163,2,831,Correct,9,745
9,ZCZFZ,164,2,698,Correct,9,755
9,NSNSN,7,3,803,Correct,9,946
9,VZVZV,13,1,797,Correct,9,757
9,NVNCN,161,2,740,Correct,9,832
9,VMVMV,191,1,1002,Correct,9,945
9,CVCXC,16,2,904,Correct,9,843
9,ZYZRZ,162,1,667,Incorrect,9,927
9,XNXZX,163,2,860,Correct,9,710
9,PXPXP,151,1,962,Correct,9,862
9,VCVSV,82,3,775,Correct,9,782
9,PRPCP,14,2,689,Correct,9,785
9,ZMZMZ,192,1,1274,Incorrect,9,914
9,ZFZFZ,15,1,647,Correct,9,654
9,FCFCF,152,1,529,Correct,9,928
9,YLYZY,161,2,710,Correct,9,729
9,KNKVK,162,2,813,Correct,9,938
9,SFPCP,231,2,712,Correct,9,757
9,RPRPR,113,1,1460,Correct,9,866
9,XMXMX,193,1,722,Correct,9,832
9,KFKFK,15,1,656,Correct,9,786
9,VSVSV,9,3,765,Correct,9,827
9,YVSVY,223,1,1047,Correct,9,774
9,VPVPV,113,1,626,Correct,9,919
9,XZXZX,152,1,1208,Correct,9,675
9,KZKXK,161,2,916,Correct,9,782
9,RFRPR,162,2,901,Correct,9,879
9,NVNVS,225,1,896,Correct,9,683
9,ZXZXZ,113,1,778,Correct,9,732
9,SRVRV,221,1,579,Correct,9,844
9,YCYCY,113,1,599,Correct,9,737
9,KMKZK,174,2,762,Correct,9,774
9,FZSVF,233,2,674,Correct,9,919
9,VYVYV,113,1,699,Correct,9,922
9,LVLVL,152,1,571,Correct,9,668
9,YFYFY,153,1,668,Correct,9,875
9,NXNSN,102,2,559,Incorrect,9,703
9,FNFCF,14,2,804,Correct,9,714
9,KVKVK,151,1,610,Correct,9,693
9,VZVCV,161,2,864,Correct,9,863
9,ZYZMZ,185,2,1509,Correct,9,876
9,VXVZV,16,2,660,Correct,9,795
9,VPVPV,151,1,687,Correct,9,866
9,RVRNS,235,2,620,Correct,9,781
9,YZYZY,113,1,694,Correct,9,903
9,ZSZSZ,11,3,728,Correct,9,652
9,FRFRF,13,1,602,Correct,9,699
9,ZMZMZ,196,1,825,Correct,9,872
9,NZNXN,16,2,864,Correct,9,814
9,LSLFL,121,3,696,Correct,9,714
10,Q,5,3,1147,New Target,10,822
10,ZVZPZ,161,2,713,Correct,10,899
10,RZRZR,151,1,760,Correct,10,713
10,ZFZFZ,152,1,649,Correct,10,679
10,RZRZR,153,1,629,Correct,10,837
10,PZPXP,161,2,821,Correct,10,754
10,VFQPV,233,2,1451,Correct,10,857
10,ZPZRZ,222,2,840,Correct,10,837
10,CYCVC,162,1,848,Incorrect,10,755
10,CPCPC,151,1,647,Correct,10,814
10,YZYQY,72,3,838,Correct,10,863
10,FVFXF,14,2,861,Correct,10,859
10,YNYNQ,225,,,Incorrect,10,779
10,ZYZYZ,113,1,609,Correct,10,792
10,FRFSF,181,,,Incorrect,10,709
10,XNXPX,16,2,879,Correct,10,892
10,NXNXN,151,1,770,Correct,10,861
10,PVPZP,161,2,723,Correct,10,664
10,XVXPX,162,2,842,Correct,10,907
10,FXFVF,163,2,792,Correct,10,657
10,NSNKN,172,2,1045,Incorrect,10,652
10,VXVNV,16,2,608,Correct,10,933
10,XZXZX,151,1,794,Correct,10,947
10,VQVQV,8,3,662,Correct,10,763
10,ZYZPZ,14,2,1011,Correct,10,807
10,PZPSP,183,2,1036,Correct,10,689
10,YVYVY,15,1,782,Correct,10,780
10,NCNQN,92,3,870,Correct,10,824
10,FCFVF,14,2,728,Correct,10,906
10,ZFZFZ,151,1,807,Correct,10,700
10,NSNSN,194,1,565,Correct,10,681
10,YPYFY,16,2,776,Correct,10,785
10,ZKZKZ,151,1,661,Correct,10,719
10,QZRCR,231,2,1411,Correct,10,769
10,YPYVY,222,2,825,Correct,10,710
10,ZNZNZ,151,1,832,Correct,10,846
10,VQVQV,10,3,840,Correct,10,788
10,RVRZR,14,2,702,Correct,10,835
10,KRKSK,185,2,857,Correct,10,832
10,NPNPN,15,1,725,Correct,10,651
10,YPYPY,152,1,823,Correct,10,686
10,VCVYV,161,2,547,Correct,10,718
10,FPFNF,162,2,890,Correct,10,693
10,QVXVX,221,2,1538,Incorrect,10,708
10,ZVZRZ,222,2,818,Correct,10,728
10,LFLFL,151,1,778,Correct,10,882
10,VLVLV,152,1,578,Correct,10,862
10,KXQXK,223,1,728,Correct,10,708
10,YQYQY,11,3,1010,Correct,10,863
10,YCYCY,13,1,565,Correct,10,742
10,PZPYP,161,2,730,Correct,10,740
10,LPLFL,162,2,810,Correct,10,715
10,VSVSV,196,1,755,Correct,10,797
10,VFVYQ,235,2,1283,Correct,10,658
10,CZCXC,222,1,693,Incorrect,10,918
10,PVPCP,162,2,837,Correct,10,754
10,CXCXC,151,1,1243,Correct,10,884
10,NZNZN,152,1,723,Correct,10,786
10,YPYCY,161,2,1101,Correct,10,836
10,ZQZQZ,12,3,589,Correct,10,724
11,T,5,3,1558,New Target,11,868
11,KFKFK,151,1,867,Correct,11,919
11,LZLZL,152,1,629,Correct,11,934
11,PFPVP,161,2,641,Correct,11,934
11,FRFPF,162,2,772,Correct,11,698
11,FZFZF,151,1,594,Correct,11,725
11,VTVTV,7,3,931,Correct,11,863
11,KYKCK,14,1,662,Incorrect,11,820
11,VPVPV,151,1,624,Correct,11,927
11,XQXQX,191,1,879,Correct,11,844
11,PZPYP,16,2,774,Correct,11,805
11,KXKLK,162,2,751,Correct,11,813
11,TCNCN,221,1,613,Correct,11,920
11,PZPNP,222,2,1058,Correct,11,865
11,RCRPR,162,2,688,Correct,11,831
11,PZPRT,235,2,1325,Correct,11,842
11,XFXVX,222,2,579,Correct,11,772
11,LTLVL,81,3,953,Correct,11,670
11,ZCZPZ,14,2,1313,Correct,11,715
11,NCNQN,182,2,1208,Correct,11,773
11,XZXNX,16,2,639,Correct,11,866
11,ZPZPZ,151,1,802,Correct,11,713
11,CFCFC,152,1,623,Correct,11,717
11,VXTRV,233,2,1298,Correct,11,767
11,CFCVC,222,2,922,Correct,11,686
11,PYPYP,151,1,1533,Correct,11,816
11,FQFYF,173,1,647,Incorrect,11,889
11,CNCFC,16,2,682,Correct,11,719
11,PTPTP,9,3,1117,Correct,11,652
11,ZCZCZ,13,1,797,Correct,11,753
11,KZKZK,152,1,970,Correct,11,650
11,RLRVR,161,2,649,Correct,11,885
11,ZRZKZ,162,2,860,Correct,11,689
11,KLKLT,225,1,729,Correct,11,655
11,ZQZQZ,194,1,823,Correct,11,706
11,VZVZV,15,1,918,Correct,11,651
11,RVRZR,161,2,775,Correct,11,856
11,ZPZCZ,162,2,621,Correct,11,896
11,VYVYV,151,1,667,Correct,11,911
11,RVRVR,152,1,808,Correct,11,749
11,PTPTP,10,3,853,Correct,11,707
11,PXPXP,13,1,617,Correct,11,916
11,KCKCK,152,1,652,Correct,11,679
11,YVYVY,153,1,568,Correct,11,908
11,CYCYC,154,1,550,Correct,11,869
11,XCXCX,155,1,589,Correct,11,701
11,CYCQC,185,2,802,Correct,11,758
11,KCKNK,16,2,691,Correct,11,670
11,VPVPV,151,1,688,Correct,11,755
11,TXFZF,231,2,717,Correct,11,832
11,NYNVN,222,2,813,Correct,11,691
11,VQVXV,176,2,843,Correct,11,699
11,ZRZRZ,15,1,672,Correct,11,907
11,VTVZV,111,3,1020,Correct,11,875
11,PXPVP,14,2,717,Correct,11,758
11,FVFVF,151,1,768,Correct,11,680
11,VRVLV,161,2,701,Correct,11,771
11,YCYCY,151,1,684,Correct,11,726
11,XZTZX,223,1,620,Correct,11,771
11,VTVTV,12,3,735,Correct,11,714
12,O,5,3,1300,New Target,12,731
12,VXVLV,161,2,766,Correct,12,703
12,KVKCK,162,2,715,Correct,12,684
12,VLVLV,151,1,727,Correct,12,862
12,ZCZVZ,161,2,679,Correct,12,694
12,KFKFK,151,1,620,Correct,12,654
12,XKXKX,152,2,1066,Incorrect,12,881
12,YXYXY,153,1,629,Correct,12,940
12,FVFVF,154,1,707,Correct,12,896
12,PVPOP,72,3,696,Correct,12,663
12,ZXZYZ,14,2,816,Correct,12,878
12,PXPVP,162,2,597,Correct,12,833
12,ZTZTZ,191,1,1165,Correct,12,669
12,CVCKC,16,2,854,Correct,12,840
12,CKCKC,151,1,637,Correct,12,799
12,NPNPN,152,1,894,Correct,12,731
12,ZRZNZ,161,2,806,Correct,12,699
12,OZCZC,221,1,841,Correct,12,917
12,LFLFL,113,1,654,Correct,12,881
12,CXCXC,152,1,679,Correct,12,917
12,KPKPK,153,1,552,Correct,12,678
12,FRFKF,161,2,862,Correct,12,715
12,FOFOF,8,3,550,Correct,12,764
12,ZFZFZ,13,1,714,Correct,12,815
12,LKLZO,235,2,849,Correct,12,949
12,KLKZK,222,1,653,Incorrect,12,699
12,YXYCY,162,2,698,Correct,12,893
12,LOLOL,9,3,568,Correct,12,844
12,XLXLX,13,1,665,Correct,12,809
12,XVXVX,152,1,664,Correct,12,768
12,FTFTF,192,1,666,Correct,12,699
12,OXNZN,231,2,553,Correct,12,735
12,CZCZC,113,1,625,Correct,12,677
12,LZLZL,152,1,624,Correct,12,888
12,VLVPV,161,2,580,Correct,12,655
12,VYVYO,225,1,1074,Correct,12,870
12,XKXKX,113,2,1025,Incorrect,12,772
12,RTRTR,193,1,711,Correct,12,681
12,KVKCK,16,2,772,Correct,12,778
12,ROROR,101,3,701,Correct,12,854
12,PRPRP,13,1,717,Correct,12,721
12,LYLVL,161,2,871,Correct,12,894
12,PLPLP,151,1,578,Correct,12,659
12,CTCTC,194,1,662,Correct,12,754
12,XZXYX,16,2,734,Correct,12,933
12,NKNKN,151,1,972,Correct,12,793
12,VLVZV,161,2,904,Correct,12,935
12,YOYOY,11,3,703,Correct,12,742
12,PZOZP,223,1,831,Correct,12,665
12,FYFYF,113,1,743,Correct,12,764
12,ZXZVZ,161,2,704,Correct,12,832
12,VKVZV,162,2,1131,Correct,12,808
12,ZTZTZ,195,1,793,Correct,12,764
12,LKLZL,16,2,1141,Correct,12,755
12,KCKVK,162,2,880,Correct,12,787
12,PXPKP,163,2,1225,Correct,12,754
12,KCOZK,233,2,1091,Correct,12,792
12,FKFKF,113,2,625,Incorrect,12,815
12,CTCRC,176,2,769,Correct,12,797
12,NXNXN,15,1,736,Correct,12,672
12,KXKVK,161,2,800,Correct,12,691
12,CPCOC,122,3,806,Correct,12,888
13,H,5,3,1253,New Target,13,807
13,VFVNV,151,2,700,Incorrect,13,701
13,YVYVY,152,1,666,Correct,13,818
13,XVXVX,153,1,694,Correct,13,887
13,NRNXN,161,2,941,Correct,13,943
13,PZPKP,162,2,741,Correct,13,728
13,HLVLV,221,2,1027,Incorrect,13,770
13,CXCZC,222,2,644,Correct,13,761
13,LHLYL,71,2,786,Incorrect,13,897
13,YKYFY,14,2,1228,Correct,13,749
13,YOYRY,171,2,944,Correct,13,927
13,ZKZYZ,16,2,1027,Correct,13,856
13,RZRZR,151,1,807,Correct,13,776
13,NFNYN,161,2,1019,Correct,13,871
13,KVKFK,162,2,1373,Correct,13,751
13,XFXYX,163,2,908,Correct,13,917
13,LKLVL,164,2,721,Correct,13,844
13,NLNLN,151,1,907,Correct,13,838
13,XCXOX,182,2,1036,Correct,13,916
13,FXFXF,15,1,716,Correct,13,813
13,VHVHV,8,3,813,Correct,13,653
13,PVPVP,13,1,605,Correct,13,655
13,CRCXC,161,2,593,Correct,13,729
13,NXNXN,151,1,753,Correct,13,854
13,XRXRX,152,1,568,Correct,13,887
13,YFYXY,161,2,664,Correct,13,893
13,ZOZOZ,193,1,1078,Correct,13,757
13,RZRZR,15,1,724,Correct,13,835
13,FKFKF,152,1,999,Correct,13,655
13,PFPFP,153,1,571,Correct,13,709
13,XYXHX,92,3,767,Correct,13,725
13,RZRKR,14,2,827,Correct,13,716
13,FLFLH,225,1,672,Correct,13,935
13,KRKRK,113,1,579,Correct,13,685
13,ZVZNZ,161,2,672,Correct,13,895
13,ZOZOZ,194,1,1090,Correct,13,736
13,FZFZF,15,1,849,Correct,13,824
13,FHFKF,101,3,662,Correct,13,801
13,ZXHLZ,233,2,1077,Correct,13,788
13,FKFXF,222,2,918,Correct,13,799
13,CFCYC,162,2,1373,Correct,13,751
13,ZXZVZ,163,2,788,Correct,13,695
13,KCKOK,185,2,930,Correct,13,654
13,ZXZVH,235,2,834,Correct,13,897
13,CKCKC,113,1,859,Correct,13,737
13,ZXZCZ,161,2,1001,Correct,13,661
13,YVYVY,151,1,1049,Correct,13,904
13,RVHVR,223,1,636,Correct,13,678
13,ZRZRZ,113,1,566,Correct,13,932
13,ZHZHZ,11,3,786,Correct,13,927
13,VZVZV,13,1,761,Correct,13,853
13,HZVRV,231,2,753,Correct,13,905
13,FVFVF,113,1,638,Correct,13,795
13,RNRCR,161,2,698,Correct,13,851
13,COCOC,196,1,956,Correct,13,666
13,VNVXV,16,2,820,Correct,13,708
13,XHXHX,12,3,682,Correct,13,834
14,G,5,3,1274,New Target,14,841
14,FZFZF,151,1,690,Correct,14,880
14,RPRVR,161,2,731,Correct,14,888
14,XCXCX,151,1,663,Correct,14,774
14,YXYXY,152,1,680,Correct,14,690
14,KZKZK,153,1,758,Correct,14,833
14,RYRKR,161,2,715,Correct,14,943
14,FYFNF,162,2,677,Correct,14,899
14,VKVKV,151,1,744,Correct,14,664
14,KPGPK,223,1,926,Correct,14,934
14,YNYNY,113,1,551,Correct,14,716
14,VYVYV,152,1,600,Correct,14,849
14,YCYXY,161,2,680,Correct,14,892
14,LKLGL,72,3,776,Correct,14,729
14,VXVXV,13,1,643,Correct,14,829
14,KCKVK,161,2,982,Correct,14,721
14,YKYKY,151,1,687,Correct,14,657
14,RHRXR,171,,,Incorrect,14,763
14,FVFCF,16,2,839,Correct,14,904
14,YXYGY,82,3,643,Correct,14,708
14,CLCLC,13,1,766,Correct,14,906
14,ZXZCZ,161,2,636,Correct,14,752
14,VLVFV,162,2,694,Correct,14,902
14,CPCPG,225,1,975,Correct,14,913
14,KHKNK,172,2,1199,Correct,14,877
14,ZKZVZ,16,2,714,Correct,14,717
14,YKYLY,162,2,683,Correct,14,694
14,CNCNC,151,1,750,Correct,14,680
14,PGPGP,9,3,729,Correct,14,772
14,VPVPV,13,1,678,Correct,14,820
14,FXGRF,233,2,1028,Correct,14,773
14,CYCVC,222,2,1000,Correct,14,689
14,FNFNF,151,1,1080,Correct,14,873
14,KFKCK,161,2,777,Correct,14,705
14,ZFZHZ,183,,,Incorrect,14,772
14,NXNXN,15,1,857,Correct,14,903
14,FNFNF,152,1,881,Correct,14,750
14,LXLNG,235,2,869,Correct,14,906
14,XKXVX,222,2,973,Correct,14,720
14,ZHZHZ,194,1,1051,Correct,14,882
14,PFPFP,15,1,763,Correct,14,804
14,ZYZYZ,152,1,627,Correct,14,896
14,XPXVX,161,1,671,Incorrect,14,882
14,YCYCY,151,1,657,Correct,14,799
14,RGRGR,10,3,744,Correct,14,944
14,VRVRV,13,1,599,Correct,14,754
14,PKPNP,161,2,696,Correct,14,872
14,XGXGX,11,3,626,Correct,14,868
14,GZYVY,231,2,1121,Correct,14,821
14,VCVNV,222,2,742,Correct,14,945
14,VHVHV,195,1,988,Correct,14,913
14,LXLNL,16,2,677,Correct,14,671
14,GKPKP,221,1,706,Correct,14,894
14,XRXPX,222,2,1126,Correct,14,948
14,XNXNX,151,1,653,Correct,14,932
14,KHKNK,176,2,910,Incorrect,14,729
14,RZRZR,15,1,723,Correct,14,829
14,CGCFC,121,3,1085,Correct,14,904
15,A,5,3,1169,New Target,15,654
15,XRXFX,161,2,850,Correct,15,815
15,RXRKR,162,2,1164,Correct,15,739
15,YRYRY,151,1,625,Correct,15,924
15,XPXPX,152,1,708,Correct,15,718
15,RPRPR,153,1,766,Correct,15,824
15,NCNCN,154,1,743,Correct,15,858
15,RXRZR,161,2,705,Correct,15,852
15,NANAN,7,1,708,Incorrect,15,668
15,KCKYK,14,2,876,Correct,15,926
15,XKXFX,162,2,903,Correct,15,697
15,ZLZKZ,163,2,813,Correct,15,750
15,VCVZV,164,2,730,Correct,15,691
15,XCXVX,165,2,786,Correct,15,903
15,LKLZA,235,2,799,Correct,15,653
15,NCNCN,113,1,680,Correct,15,844
15,YGYGY,191,1,1079,Correct,15,738
15,VLVLV,15,1,626,Correct,15,941
15,XRXRX,152,1,553,Correct,15,651
15,KAKPK,81,3,898,Correct,15,650
15,YZAZY,233,1,771,Incorrect,15,882
15,CFCFC,113,1,666,Correct,15,941
15,VNVLV,161,2,601,Correct,15,751
15,KPKVK,162,2,614,Correct,15,945
15,NCNRN,163,2,724,Correct,15,887
15,FGFGF,192,1,1135,Correct,15,857
15,RCRYR,16,2,651,Correct,15,793
15,KRKCK,162,2,709,Correct,15,946
15,CRCRC,151,1,723,Correct,15,801
15,XPAPX,223,1,650,Correct,15,909
15,LPLXL,222,2,722,Correct,15,932
15,CGCVC,173,2,1118,Correct,15,750
15,FKFZF,16,2,892,Correct,15,742
15,CACAC,9,3,656,Correct,15,852
15,XCXCX,13,1,673,Correct,15,764
15,AXRXR,221,1,690,Correct,15,669
15,NKNRN,222,2,885,Correct,15,697
15,KNKFK,162,2,759,Correct,15,905
15,KAKAK,10,3,686,Correct,15,920
15,ZCZRZ,14,2,809,Correct,15,851
15,RPRPR,151,1,1091,Correct,15,775
15,NCNCN,152,1,626,Correct,15,825
15,RYRGR,184,2,560,Correct,15,833
15,VPVPV,15,1,641,Correct,15,871
15,RCRCA,225,1,558,Correct,15,896
15,KXKPK,222,2,956,Correct,15,866
15,NPNPN,151,1,642,Correct,15,749
15,YCYCY,152,1,589,Correct,15,912
15,PXPAP,112,3,744,Correct,15,942
15,ZCZNZ,14,1,576,Incorrect,15,864
15,KYKGK,185,2,711,Correct,15,721
15,ANLPL,231,2,867,Correct,15,796
15,CXCPC,222,2,634,Correct,15,814
15,YRYRY,151,1,697,Correct,15,861
15,LGLGL,196,1,722,Correct,15,909
15,VYVLV,16,2,691,Correct,15,690
15,KVKVK,151,1,620,Correct,15,900
15,RKRKR,152,1,1040,Correct,15,716
15,VXVXV,153,1,583,Correct,15,694
15,XAXAX,12,3,674,Correct,15,941
