Trial No,Stimulus,Trigger,Response,Response Time(ms),Correct,Block,Fixation Duration
Practice
OT Practice
1,SKSKS,15,1,1311,Correct,0,705
1,DLDUD,16,,,False,0,665
1,PDPGP,16,2,1221,Correct,0,869
1,MWMWM,15,1,1070,Correct,0,742
1,FTFTF,15,1,888,Correct,0,891
1,AXAMA,16,2,1534,Correct,0,747
1,RYRGR,16,2,955,Correct,0,766
1,DODOD,15,1,1035,Correct,0,759
1,QTQAQ,16,2,1416,Correct,0,732
1,YEYEY,15,1,948,Correct,0,850
2,GYGDG,16,2,1267,Correct,0,823
2,SWSWS,15,1,912,Correct,0,935
2,HLHUH,16,2,947,Correct,0,805
2,DEDED,15,1,958,Correct,0,909
2,ZPZOZ,16,2,779,Correct,0,842
2,ATATA,15,1,948,Correct,0,699
2,QOQOQ,15,,,False,0,840
2,FPFGF,16,2,863,Correct,0,688
2,TRTET,16,2,684,Correct,0,926
2,DQDQD,15,1,708,Correct,0,828
AT Practice
1,TKTKT,15,2,1033,False,0,866
1,SLSUS,16,2,1008,Correct,0,950
1,VZVGV,7,1,895,False,0,820
1,XWXZX,7,3,1133,Correct,0,924
1,ATATA,15,1,1432,Correct,0,711
1,HXZMH,16,2,1544,Correct,0,698
1,TZTZT,7,3,866,Correct,0,835
1,UOUOU,15,2,1106,False,0,861
1,ZTWAW,16,,,False,0,779
1,RZRER,7,1,896,False,0,890
2,JYJDJ,16,2,1012,Correct,0,935
2,DWDWD,15,1,687,Correct,0,897
2,GNGNG,7,1,1148,False,0,747
2,NEZEZ,16,1,1549,Correct,0,938
2,RNROR,7,3,729,Correct,0,728
2,QTQNQ,7,3,1136,Correct,0,777
2,HOHON,15,1,1547,Correct,0,811
2,KPKGK,16,2,890,Correct,0,651
2,DRDED,16,2,1034,Correct,0,845
2,LNLNL,7,3,813,Correct,0,674
Trials
1,D,5,3,11455,New Target,1,925
1,ZNZYZ,161,,,Incorrect,1,661
1,FZFZF,151,1,1350,Correct,1,878
1,RKRKR,152,1,1029,Correct,1,899
1,RXRNR,161,,,Incorrect,1,655
1,CNCFC,162,3,1212,Incorrect,1,680
1,PDPDP,7,,,Incorrect,1,941
1,CPCFC,14,2,1344,Correct,1,728
1,VLVNV,162,3,1332,Incorrect,1,755
1,KFKFK,151,1,1126,Correct,1,863
1,ZNZNZ,152,1,1117,Correct,1,933
1,KCKPD,235,2,1031,Correct,1,913
1,ZKZFZ,222,2,900,Correct,1,859
1,NRNZN,162,2,887,Correct,1,880
1,KXKRK,163,2,784,Correct,1,704
1,YPYZY,164,2,587,Correct,1,780
1,FKDKF,223,2,955,Incorrect,1,825
1,RPRPR,113,1,891,Correct,1,870
1,VRVKV,161,2,677,Correct,1,675
1,RFRPR,162,2,899,Correct,1,820
1,KVKVK,151,3,958,Incorrect,1,690
1,YKYVY,161,2,850,Correct,1,807
1,VDVDV,8,3,908,Correct,1,778
1,DVZVZ,221,1,928,Correct,1,798
1,YFYFY,113,1,697,Correct,1,728
1,ZYZYZ,152,1,786,Correct,1,916
1,VLVXV,161,2,894,Correct,1,710
1,DPXZX,231,2,790,Correct,1,742
1,RYRYR,113,1,817,Correct,1,754
1,PDPNP,91,3,988,Correct,1,768
1,KXKXK,13,1,1086,Correct,1,841
1,ZYZYZ,152,1,696,Correct,1,909
1,VKVKV,153,1,836,Correct,1,880
1,YZYZY,154,1,800,Correct,1,668
1,NLNZN,161,2,781,Correct,1,659
1,ZNDYZ,233,2,893,Correct,1,668
1,PCPXP,222,2,742,Correct,1,754
1,ZVZFZ,162,2,653,Correct,1,868
1,RCRZR,163,2,601,Correct,1,849
1,LRLRL,151,1,713,Correct,1,807
1,ZDZDZ,10,3,715,Correct,1,720
1,RNRZR,14,2,857,Correct,1,724
1,CXCYC,162,2,914,Correct,1,715
1,RCRLR,163,2,648,Correct,1,817
1,FRFRF,151,1,825,Correct,1,703
1,XFXFX,152,1,839,Correct,1,682
1,RPRLR,161,2,962,Correct,1,733
1,YXYRY,162,2,619,Correct,1,744
1,FYFYF,151,2,693,Incorrect,1,900
1,YZYVY,161,2,785,Correct,1,784
1,YKYKY,151,1,744,Correct,1,873
1,XRXRX,152,1,768,Correct,1,848
1,XVXZX,161,2,651,Correct,1,836
1,PDPDP,11,1,666,Incorrect,1,852
1,ZFZFZ,13,1,612,Correct,1,851
1,PXPXP,152,1,935,Correct,1,717
1,LYLYL,153,1,621,Correct,1,724
1,NKNKD,225,1,866,Correct,1,729
1,ZNZNZ,113,1,763,Correct,1,763
1,PYPZP,161,2,754,Correct,1,859
1,XPXPX,151,1,748,Correct,1,787
1,VLVLV,152,1,662,Correct,1,837
1,PKPXP,161,2,715,Correct,1,703
1,FZFZF,151,1,634,Correct,1,695
1,LDLDL,12,3,633,Correct,1,824
2,U,5,3,5898,New Target,2,751
2,ZVZFZ,161,2,1577,Correct,2,742
2,FZFZF,151,1,850,Correct,2,826
2,RFRFR,152,1,822,Correct,2,842
2,NZNKN,161,2,850,Correct,2,655
2,FZFNF,162,2,687,Correct,2,661
2,RXRXR,151,1,722,Correct,2,668
2,KRKYK,161,2,649,Correct,2,925
2,NZNPN,162,2,792,Correct,2,823
2,XPXPX,151,1,705,Correct,2,867
2,CUCUC,7,3,558,Correct,2,820
2,RFRFR,13,1,721,Correct,2,840
2,VYVXV,161,2,681,Correct,2,882
2,VDVDV,191,1,1113,Correct,2,800
2,ZKZRZ,15,2,699,Correct,2,732
2,XCXCX,151,1,664,Correct,2,781
2,CNCUC,82,3,695,Correct,2,812
2,RCRCR,13,1,842,Correct,2,689
2,ZPZXZ,161,2,654,Correct,2,914
2,FKFYF,162,2,678,Correct,2,946
2,ZFZYZ,163,2,682,Correct,2,698
2,PXPXP,151,1,682,Correct,2,710
2,URCKC,231,2,897,Correct,2,919
2,PCPCP,113,1,874,Correct,2,755
2,XNXNX,152,1,636,Correct,2,901
2,RCRZR,161,2,589,Correct,2,758
2,XVXVX,151,1,658,Correct,2,733
2,NRNRN,152,1,653,Correct,2,879
2,FPFPF,225,1,735,Correct,2,711
2,XVXFX,222,2,603,Correct,2,801
2,PRPRP,151,1,690,Correct,2,656
2,FYFCF,161,2,588,Correct,2,905
2,XUXFX,91,3,634,Correct,2,842
2,CYCVC,14,2,647,Correct,2,840
2,VDVKV,172,2,644,Correct,2,808
2,YCYCY,15,1,614,Correct,2,743
2,NKNLN,161,2,619,Correct,2,652
2,XPUKX,233,2,812,Correct,2,783
2,ZPZPZ,113,1,577,Correct,2,920
2,KRKRK,152,1,887,Correct,2,675
2,XKXKX,153,1,609,Correct,2,666
2,YUYVY,101,3,687,Correct,2,857
2,XKXFU,235,2,688,Correct,2,725
2,NFNFN,113,1,720,Correct,2,701
2,KDKDK,193,1,639,Correct,2,740
2,XYXKX,16,2,670,Correct,2,796
2,YZUZY,223,1,1168,Correct,2,738
2,KFKVK,222,2,666,Correct,2,799
2,LYLYL,151,1,670,Correct,2,651
2,CXCDC,184,2,767,Incorrect,2,679
2,XZXNX,16,2,619,Correct,2,776
2,PXPXP,151,2,653,Incorrect,2,839
2,ZRZYZ,161,2,668,Correct,2,759
2,PUPYP,111,3,599,Correct,2,897
2,RNRNR,14,1,857,Correct,2,746
2,KDKDK,195,1,762,Correct,2,943
2,KNKNK,15,1,709,Correct,2,780
2,PRPKP,161,2,727,Correct,2,698
2,UNYNY,221,1,800,Correct,2,859
2,NYNYN,113,1,1022,Correct,2,686
2,YXYXY,152,1,643,Incorrect,2,663
2,RDRDR,196,1,524,Correct,2,948
2,FCFCF,15,1,574,Correct,2,852
2,ZKZKZ,152,1,836,Correct,2,706
2,ZUZUZ,12,3,604,Correct,2,767
3,E,5,3,3392,New Target,3,881
3,YZYZY,151,1,632,Correct,3,913
3,VFVNV,161,2,675,Correct,3,950
3,KYKYK,151,1,721,Correct,3,796
3,NKNKN,152,1,912,Correct,3,696
3,XVXNX,161,2,641,Correct,3,944
3,RERFR,71,3,619,Correct,3,949
3,XNXNX,13,1,619,Correct,3,910
3,NXNXN,152,1,821,Correct,3,913
3,ZLZNZ,161,2,716,Correct,3,908
3,CUCNC,171,2,1020,Correct,3,721
3,FYFRF,16,2,779,Correct,3,801
3,ZLZLZ,151,1,614,Correct,3,751
3,YZYZY,152,1,964,Correct,3,853
3,CYCYC,153,1,602,Correct,3,772
3,VUVUV,192,1,692,Correct,3,936
3,PXPRP,16,2,571,Correct,3,928
3,YPYPY,151,1,604,Correct,3,786
3,CECEC,8,3,928,Correct,3,784
3,VNENV,223,1,981,Correct,3,774
3,KRKFK,222,2,888,Correct,3,786
3,XLXLE,225,1,1040,Correct,3,779
3,RFRUR,183,2,945,Correct,3,816
3,XRXLX,16,2,635,Correct,3,689
3,NZNPN,162,2,608,Correct,3,671
3,XZXZX,151,1,879,Correct,3,818
3,FZFZF,152,1,763,Correct,3,685
3,PFPFP,153,1,735,Correct,3,936
3,YZYXY,161,2,817,Correct,3,689
3,KEKEK,9,3,810,Correct,3,763
3,CXCPC,14,2,658,Correct,3,845
3,VXVXV,151,1,811,Correct,3,916
3,NUNZN,174,2,659,Correct,3,845
3,RKRVR,16,2,719,Correct,3,860
3,XRXRX,151,1,663,Correct,3,876
3,ERNFN,231,2,794,Incorrect,3,685
3,YRYNY,222,2,630,Correct,3,708
3,PZPEP,102,3,787,Correct,3,918
3,ZYZXZ,14,2,713,Correct,3,881
3,RZRVR,162,2,885,Correct,3,873
3,XRXRX,151,1,681,Correct,3,854
3,KUKFK,175,2,694,Correct,3,811
3,RKRKR,15,1,834,Correct,3,891
3,ZFZFZ,152,1,714,Correct,3,837
3,YZYVY,161,2,743,Correct,3,768
3,XPXNX,162,2,772,Correct,3,811
3,YRYRY,151,1,644,Correct,3,656
3,EPVPV,221,1,679,Correct,3,685
3,CRCEC,112,3,722,Correct,3,844
3,RFRCR,14,2,625,Correct,3,700
3,CPCVC,162,2,596,Correct,3,738
3,RXRCR,163,2,626,Correct,3,925
3,VNVLV,164,2,645,Correct,3,796
3,ZXZXZ,151,1,735,Correct,3,949
3,ZCZCZ,152,1,576,Correct,3,659
3,PYPUP,186,2,512,Correct,3,872
3,YKYPY,16,2,590,Correct,3,919
3,YREXY,233,2,806,Correct,3,654
3,ZKZKZ,113,1,668,Correct,3,914
3,XLXNX,161,2,695,Correct,3,883
3,KFKRE,235,2,631,Correct,3,755
3,RXRLR,222,2,497,Correct,3,928
3,RERXR,121,3,724,Correct,3,885
4,J,5,3,3633,New Target,4,727
4,CYCVC,161,2,946,Correct,4,652
4,RXRCR,162,2,562,Correct,4,883
4,FPFVF,163,2,497,Correct,4,865
4,LZLZL,151,1,564,Correct,4,810
4,PLPLP,152,1,676,Correct,4,923
4,NPNPN,153,1,636,Correct,4,931
4,XZXZX,161,1,624,Incorrect,4,676
4,CNCKC,162,2,690,Correct,4,730
4,PCPYJ,235,2,710,Correct,4,673
4,VYVYV,113,1,661,Correct,4,756
4,RLRLR,152,1,882,Correct,4,885
4,CJCJC,7,3,810,Correct,4,702
4,ZLZLZ,13,1,691,Correct,4,806
4,FZFZF,152,1,661,Correct,4,715
4,CFCFC,153,1,561,Correct,4,833
4,PZPZP,154,1,513,Correct,4,919
4,XEXEX,191,1,988,Correct,4,663
4,NVNFN,16,2,660,Correct,4,682
4,KYKYK,151,1,848,Correct,4,926
4,ZNZVZ,161,3,777,Incorrect,4,739
4,YVJXY,233,2,659,Correct,4,848
4,XFXFX,113,1,627,Correct,4,814
4,XNXNX,152,1,607,Correct,4,858
4,FJFKF,81,2,685,Incorrect,4,897
4,CZCYC,14,2,800,Correct,4,664
4,ZXZCZ,162,2,616,Correct,4,766
4,RYRYJ,225,2,712,Incorrect,4,796
4,FPFZF,222,2,579,Correct,4,817
4,XRXRX,151,1,650,Correct,4,655
4,YPYEY,182,2,1016,Correct,4,782
4,XRXRX,15,1,662,Correct,4,930
4,XZXPX,161,2,659,Correct,4,851
4,CJCJC,9,1,626,Incorrect,4,771
4,ZXZVZ,14,2,824,Correct,4,650
4,VKVKV,151,1,900,Correct,4,752
4,VEVNV,173,2,894,Correct,4,702
4,ZKZVZ,16,2,654,Correct,4,920
4,XVXJX,102,3,637,Correct,4,912
4,RXRVR,14,2,600,Correct,4,816
4,LRLRL,151,1,692,Correct,4,916
4,YNJNY,223,1,769,Correct,4,865
4,NPNJN,222,3,859,Incorrect,4,801
4,ZEZEZ,194,1,635,Correct,4,929
4,ZNZNZ,15,1,753,Correct,4,685
4,YZYZY,152,1,754,Correct,4,667
4,XYXYX,153,1,541,Correct,4,825
4,ZXZXZ,221,1,555,Correct,4,894
4,LYLZL,222,2,1361,Correct,4,673
4,CYCNC,162,2,784,Correct,4,939
4,XEXEX,195,1,581,Correct,4,931
4,CVCXC,16,2,634,Correct,4,650
4,ZPZXZ,162,2,1102,Correct,4,653
4,FZFZF,151,1,527,Correct,4,729
4,RXRJR,112,3,640,Correct,4,926
4,PRPFP,14,2,771,Correct,4,727
4,PKPEP,186,2,617,Correct,4,887
4,XZXPX,16,2,666,Correct,4,751
4,JCZVZ,231,2,722,Correct,4,947
4,RXRLR,222,2,563,Correct,4,725
4,VZVZV,151,1,922,Correct,4,712
4,XJXJX,12,3,669,Correct,4,894
5,I,5,3,3579,New Target,5,941
5,PCPCP,151,1,679,Correct,5,755
5,XYXYX,152,1,658,Correct,5,856
5,VXVXV,153,1,718,Correct,5,844
5,XVXVX,154,1,517,Correct,5,943
5,ZRZXZ,161,2,642,Correct,5,946
5,FPFZF,162,2,720,Correct,5,879
5,ZYZYZ,151,1,593,Correct,5,690
5,RVRZR,161,3,1187,Incorrect,5,838
5,CICIC,7,3,700,Correct,5,787
5,XLXLX,13,1,700,Correct,5,726
5,YVYVY,152,1,646,Correct,5,861
5,CJCJC,191,1,867,Correct,5,881
5,FNFCF,16,2,650,Correct,5,760
5,PVPRP,162,2,627,Correct,5,938
5,FZFZF,151,1,691,Correct,5,779
5,NVIVN,223,1,1076,Correct,5,726
5,CVCIC,82,3,820,Correct,5,791
5,ZXZXZ,13,1,665,Correct,5,817
5,FCFZF,161,2,709,Correct,5,898
5,IXRXR,221,1,854,Correct,5,732
5,ZPZNZ,222,2,637,Correct,5,826
5,VZVZV,151,1,671,Correct,5,720
5,YRYNY,161,2,1138,Correct,5,651
5,VNVPV,162,2,685,Correct,5,852
5,RVRJR,182,2,603,Correct,5,774
5,VRVRV,15,1,574,Correct,5,785
5,VIVIV,9,3,615,Correct,5,664
5,CXCVC,14,2,740,Correct,5,892
5,PZPZP,151,1,738,Correct,5,748
5,IXVKV,231,1,797,Incorrect,5,861
5,YJYCY,173,2,838,Incorrect,5,911
5,VYVYV,15,1,603,Correct,5,838
5,YVYVY,152,1,700,Correct,5,731
5,NVNVN,153,1,886,Correct,5,887
5,XYXVX,161,2,669,Correct,5,842
5,NJNCN,174,2,981,Correct,5,945
5,NXNYN,16,2,653,Correct,5,700
5,VXVCV,162,2,545,Correct,5,721
5,ZKZKZ,151,1,703,Correct,5,947
5,XRXYX,161,2,660,Correct,5,933
5,ZCZXZ,162,2,541,Correct,5,919
5,KVKYI,235,2,800,Correct,5,846
5,CNCNC,113,1,694,Correct,5,850
5,RIRIR,10,3,660,Correct,5,777
5,VYVXV,14,2,628,Correct,5,812
5,FXIRF,233,2,1032,Correct,5,701
5,PFPFP,113,1,693,Correct,5,919
5,VPVPV,152,1,673,Correct,5,848
5,ZJZJZ,195,1,827,Correct,5,877
5,ZVZNZ,16,2,805,Correct,5,738
5,YVYXY,162,2,624,Correct,5,760
5,PRPRP,151,1,721,Correct,5,810
5,YPYPY,152,1,511,Correct,5,735
5,ZIZPZ,111,3,705,Correct,5,886
5,NKNXN,14,2,609,Correct,5,762
5,RZRXR,162,2,605,Correct,5,937
5,RXRXR,151,1,618,Correct,5,846
5,ZJZJZ,196,1,613,Correct,5,950
5,CVCVI,225,1,960,Incorrect,5,920
5,NKNKN,113,1,710,Correct,5,725
5,NRNZN,161,2,600,Correct,5,657
5,CNCNC,151,1,580,Correct,5,852
5,RFRIR,122,3,882,Correct,5,923
6,B,5,3,4350,New Target,6,890
6,YKYZY,161,2,734,Correct,6,931
6,VCVRV,162,2,591,Correct,6,671
6,XVXVX,151,1,641,Correct,6,830
6,KZKRK,161,2,640,Correct,6,814
6,ZVZXZ,162,2,619,Correct,6,930
6,RCRNR,163,2,508,Correct,6,828
6,CXCRC,164,2,595,Correct,6,786
6,VNBCV,233,2,630,Correct,6,805
6,CXCVC,222,2,547,Correct,6,859
6,RFRFR,151,1,619,Correct,6,688
6,XPXRX,161,2,817,Correct,6,661
6,RYRBR,72,2,539,Incorrect,6,741
6,ZKZKZ,13,1,578,Correct,6,742
6,FIFRF,171,2,1017,Correct,6,662
6,VZVLV,16,2,486,Correct,6,866
6,RPRVR,162,2,657,Correct,6,659
6,YBYBY,8,1,644,Incorrect,6,762
6,PYPVP,14,2,825,Correct,6,673
6,NININ,192,1,1107,Correct,6,792
6,RNRNR,15,1,691,Correct,6,716
6,NXNVN,161,2,561,Correct,6,793
6,RNRNR,151,1,546,Correct,6,799
6,FRFVF,161,2,537,Correct,6,699
6,YVYFB,235,2,544,Incorrect,6,672
6,ZRZXZ,222,2,551,Correct,6,686
6,VNVIV,193,2,758,Incorrect,6,875
6,PXPNP,16,2,496,Correct,6,870
6,ZXZPZ,162,2,470,Correct,6,711
6,VBVBV,9,3,733,Correct,6,828
6,CXCXC,13,1,631,Correct,6,815
6,PCPFP,161,2,621,Correct,6,652
6,KNKNK,151,1,571,Correct,6,840
6,XIXIX,194,1,905,Correct,6,934
6,CYCYC,15,1,604,Correct,6,846
6,FVFYF,161,2,609,Correct,6,709
6,YNYRY,162,2,657,Correct,6,825
6,BVPXP,231,2,895,Correct,6,875
6,NXNXN,113,1,711,Correct,6,752
6,FRFRF,152,1,615,Correct,6,764
6,YVYVY,153,1,547,Correct,6,924
6,ZKZCZ,161,2,590,Correct,6,653
6,VIVXV,175,2,602,Correct,6,938
6,PRBRP,223,2,752,Incorrect,6,699
6,YZYBY,102,3,641,Correct,6,684
6,CXCVC,14,2,619,Correct,6,929
6,FYFYF,151,1,635,Correct,6,835
6,VKVXV,161,2,1001,Correct,6,905
6,ZBZBZ,11,3,494,Correct,6,666
6,FPFNF,14,2,632,Correct,6,651
6,CXCXC,151,1,609,Correct,6,949
6,YCYCY,152,1,564,Correct,6,710
6,FPFPF,153,1,560,Correct,6,919
6,CVCVB,225,1,1095,Correct,6,778
6,ZCZCZ,113,1,515,Correct,6,783
6,CZCNC,161,3,696,Incorrect,6,745
6,KIKFK,176,2,647,Correct,6,745
6,PXPXP,15,1,666,Correct,6,713
6,RYRYR,152,1,767,Correct,6,677
6,ZRZCZ,161,2,717,Correct,6,709
6,RVRVR,151,2,695,Incorrect,6,908
6,XYXNX,161,2,547,Correct,6,838
6,BVKVK,221,1,491,Correct,6,689
6,CBCBC,12,1,492,Incorrect,6,850
7,W,5,3,3982,New Target,7,750
7,RKRKR,151,1,953,Correct,7,736
7,CVCRC,161,2,622,Correct,7,669
7,PKPKP,151,1,638,Correct,7,791
7,FPFPF,152,1,585,Correct,7,895
7,VRVPV,161,2,665,Correct,7,782
7,ZKZYZ,162,2,661,Correct,7,890
7,PVPCP,233,2,551,Correct,7,738
7,KVKVK,113,1,572,Correct,7,709
7,YXYVY,161,2,579,Correct,7,684
7,FNFNF,151,1,577,Correct,7,890
7,YWYWY,7,1,948,Incorrect,7,722
7,ZYZYZ,13,1,504,Correct,7,775
7,PYPYP,152,1,570,Correct,7,831
7,XRXRX,153,1,618,Correct,7,871
7,PXPXP,154,1,573,Correct,7,668
7,FCFBF,181,2,688,Correct,7,788
7,FVFVF,15,1,559,Correct,7,740
7,CYCZC,161,2,584,Correct,7,673
7,XZXVX,162,2,637,Correct,7,679
7,PFPFP,151,1,589,Correct,7,786
7,RVRLR,161,2,492,Correct,7,829
7,ZBZBZ,192,1,999,Correct,7,654
7,VCVNV,16,2,521,Correct,7,823
7,NWNWN,8,3,700,Correct,7,795
7,XNXVX,14,2,947,Correct,7,937
7,CXCNC,162,2,568,Correct,7,790
7,YVYVW,225,1,743,Correct,7,929
7,VFVFV,113,1,598,Correct,7,717
7,VFWFV,223,1,610,Correct,7,920
7,CVCFC,222,2,569,Correct,7,659
7,YBYBY,193,1,973,Correct,7,786
7,PYPYP,15,1,654,Correct,7,845
7,NKNWN,91,3,685,Correct,7,811
7,VNVNV,13,1,682,Correct,7,743
7,RVRVR,152,1,524,Correct,7,715
7,FVFBF,184,2,834,Incorrect,7,818
7,VZVKV,16,2,734,Correct,7,709
7,VPVCV,162,2,569,Correct,7,825
7,WYZCZ,231,2,573,Correct,7,704
7,PFPFP,113,1,572,Correct,7,896
7,PRPRP,152,1,655,Correct,7,816
7,NWNWN,10,3,715,Correct,7,886
7,VKVCV,14,2,675,Correct,7,868
7,WPYPY,221,1,678,Correct,7,674
7,VBVBV,195,1,818,Correct,7,913
7,ZKZYZ,16,2,607,Correct,7,696
7,XYXYX,151,1,670,Correct,7,853
7,FZFXF,161,2,604,Correct,7,775
7,XKXKX,151,1,889,Correct,7,945
7,XPXPX,152,1,620,Correct,7,851
7,FWFWF,11,3,562,Correct,7,653
7,FNFBF,186,2,567,Correct,7,775
7,ZVZYZ,16,1,590,Incorrect,7,650
7,FZFZF,151,1,537,Correct,7,921
7,NPNFW,235,2,729,Correct,7,923
7,PCPCP,113,1,650,Correct,7,730
7,NKNWN,122,3,727,Correct,7,892
8,M,5,3,3812,New Target,8,919
8,VYVNV,161,2,776,Correct,8,835
8,KLKNK,162,2,688,Correct,8,836
8,NRNRN,151,1,616,Correct,8,906
8,VNVFV,161,2,557,Correct,8,689
8,XNXNM,225,1,1023,Correct,8,788
8,CXCVC,222,2,654,Correct,8,855
8,KRKZK,162,2,666,Correct,8,903
8,NMNFN,71,3,693,Correct,8,880
8,ZFZFZ,13,1,550,Correct,8,727
8,YPYCY,161,2,614,Correct,8,890
8,KCKCK,151,1,587,Correct,8,677
8,VNVNV,152,1,648,Correct,8,882
8,LXLXL,153,1,660,Correct,8,857
8,CLCLC,154,1,546,Correct,8,808
8,NYNYN,155,2,613,Incorrect,8,803
8,LCMYL,233,2,439,Correct,8,743
8,NCNCN,113,1,569,Correct,8,931
8,ZVZRZ,161,2,664,Correct,8,915
8,ZVZVZ,151,1,632,Correct,8,792
8,PZPVP,161,2,555,Correct,8,739
8,PWPNP,171,2,894,Correct,8,738
8,KLKCM,235,2,666,Correct,8,693
8,XMXMX,8,3,596,Correct,8,899
8,PRPXP,14,2,693,Correct,8,783
8,CVCYC,162,2,625,Correct,8,897
8,PXPMP,92,3,717,Correct,8,893
8,ZCZLZ,14,2,503,Correct,8,844
8,XWXWX,192,1,792,Correct,8,905
8,ZCZLZ,16,2,545,Correct,8,831
8,MNCYC,231,2,770,Correct,8,921
8,ZXZXZ,113,1,716,Correct,8,817
8,YRYNY,161,2,486,Correct,8,848
8,ZLZPZ,162,2,479,Correct,8,694
8,VZVZV,151,1,610,Correct,8,900
8,MXPXP,221,1,845,Correct,8,921
8,VWVWV,193,1,773,Correct,8,841
8,PYPYP,16,1,523,Incorrect,8,886
8,XPXVX,162,2,509,Correct,8,821
8,XLXLX,151,1,516,Correct,8,732
8,YMYMY,10,3,582,Correct,8,846
8,VYVYV,13,1,555,Correct,8,731
8,PWPZP,174,2,556,Correct,8,847
8,PYPKP,16,2,532,Correct,8,711
8,NPNXN,162,2,407,Correct,8,781
8,KVKVK,223,2,383,Incorrect,8,764
8,NVNFN,222,2,567,Correct,8,805
8,XNXNX,151,1,629,Correct,8,877
8,YZYMY,112,2,451,Incorrect,8,853
8,PFPFP,13,1,556,Correct,8,788
8,ZWZWZ,195,1,613,Correct,8,676
8,PCPZP,16,2,521,Correct,8,712
8,LRLPL,162,1,723,Incorrect,8,697
8,CZCZC,151,1,622,Correct,8,878
8,NZNZN,152,1,781,Correct,8,851
8,CVCXC,161,2,593,Correct,8,929
8,XCXCX,151,1,529,Correct,8,823
8,YWYWY,196,1,528,Correct,8,944
8,NLNLN,15,1,554,Correct,8,680
8,VNVNV,152,1,594,Correct,8,710
8,ZMZMZ,12,3,561,Correct,8,812
9,S,5,3,6545,New Target,9,732
9,NZNZN,151,1,880,Correct,9,810
9,KVKZK,161,2,698,Correct,9,698
9,LZLZL,151,1,581,Correct,9,833
9,XLXLX,152,1,538,Correct,9,723
9,ZXZXZ,153,1,522,Correct,9,938
9,KNKZK,161,2,594,Correct,9,694
9,NRNYN,162,2,745,Correct,9,683
9,CLCVC,163,2,617,Correct,9,715
9,ZCZFZ,164,2,436,Correct,9,907
9,NSNSN,7,1,524,Incorrect,9,783
9,VZVZV,13,1,539,Correct,9,946
9,NVNCN,161,2,630,Correct,9,659
9,VMVMV,191,1,722,Correct,9,843
9,CVCXC,16,2,564,Correct,9,665
9,ZYZRZ,162,2,477,Correct,9,680
9,XNXZX,163,2,630,Correct,9,674
9,PXPXP,151,1,770,Correct,9,919
9,VCVSV,82,3,638,Correct,9,786
9,PRPCP,14,2,554,Correct,9,885
9,ZMZMZ,192,1,775,Incorrect,9,921
9,ZFZFZ,15,1,628,Correct,9,805
9,FCFCF,152,1,600,Correct,9,690
9,YLYZY,161,2,583,Correct,9,852
9,KNKVK,162,2,645,Correct,9,868
9,SFPCP,231,2,598,Correct,9,814
9,RPRPR,113,1,1177,Correct,9,784
9,XMXMX,193,1,728,Correct,9,704
9,KFKFK,15,1,584,Correct,9,753
9,VSVSV,9,3,693,Correct,9,945
9,YVSVY,223,1,930,Correct,9,790
9,VPVPV,113,1,632,Correct,9,752
9,XZXZX,152,1,600,Correct,9,732
9,KZKXK,161,2,733,Correct,9,684
9,RFRPR,162,2,680,Correct,9,861
9,NVNVS,225,1,888,Correct,9,797
9,ZXZXZ,113,1,636,Correct,9,878
9,SRVRV,221,1,766,Correct,9,732
9,YCYCY,113,1,521,Correct,9,809
9,KMKZK,174,2,679,Correct,9,921
9,FZSVF,233,2,936,Correct,9,779
9,VYVYV,113,1,586,Correct,9,895
9,LVLVL,152,1,705,Correct,9,688
9,YFYFY,153,1,577,Correct,9,718
9,NXNSN,102,3,704,Correct,9,862
9,FNFCF,14,1,689,Incorrect,9,712
9,KVKVK,151,2,751,Incorrect,9,742
9,VZVCV,161,2,477,Correct,9,705
9,ZYZMZ,185,2,533,Correct,9,767
9,VXVZV,16,2,644,Correct,9,946
9,VPVPV,151,1,567,Correct,9,732
9,RVRNS,235,2,535,Correct,9,847
9,YZYZY,113,1,585,Correct,9,878
9,ZSZSZ,11,3,549,Correct,9,898
9,FRFRF,13,1,586,Correct,9,671
9,ZMZMZ,196,1,650,Correct,9,815
9,NZNXN,16,2,666,Correct,9,789
9,LSLFL,121,3,795,Correct,9,747
10,Q,5,3,3337,New Target,10,924
10,ZVZPZ,161,2,713,Correct,10,710
10,RZRZR,151,1,594,Correct,10,922
10,ZFZFZ,152,1,514,Correct,10,802
10,RZRZR,153,1,538,Correct,10,741
10,PZPXP,161,2,623,Correct,10,782
10,VFQPV,233,2,1049,Correct,10,920
10,ZPZRZ,222,2,683,Correct,10,681
10,CYCVC,162,2,527,Correct,10,679
10,CPCPC,151,1,708,Correct,10,760
10,YZYQY,72,3,654,Correct,10,886
10,FVFXF,14,2,498,Correct,10,700
10,YNYNQ,225,1,889,Correct,10,734
10,ZYZYZ,113,1,753,Correct,10,749
10,FRFSF,181,2,506,Incorrect,10,842
10,XNXPX,16,2,593,Correct,10,786
10,NXNXN,151,1,709,Correct,10,734
10,PVPZP,161,2,620,Correct,10,926
10,XVXPX,162,2,602,Correct,10,901
10,FXFVF,163,2,579,Correct,10,939
10,NSNKN,172,2,1315,Incorrect,10,946
10,VXVNV,16,2,570,Correct,10,710
10,XZXZX,151,1,587,Correct,10,800
10,VQVQV,8,3,623,Correct,10,737
10,ZYZPZ,14,2,596,Correct,10,730
10,PZPSP,183,2,867,Correct,10,789
10,YVYVY,15,1,729,Correct,10,848
10,NCNQN,92,3,658,Correct,10,819
10,FCFVF,14,2,578,Correct,10,731
10,ZFZFZ,151,1,585,Correct,10,692
10,NSNSN,194,1,825,Correct,10,851
10,YPYFY,16,2,592,Correct,10,784
10,ZKZKZ,151,1,627,Correct,10,777
10,QZRCR,231,2,947,Correct,10,826
10,YPYVY,222,2,562,Correct,10,911
10,ZNZNZ,151,1,595,Correct,10,909
10,VQVQV,10,3,584,Correct,10,710
10,RVRZR,14,2,566,Correct,10,904
10,KRKSK,185,2,569,Correct,10,825
10,NPNPN,15,1,606,Correct,10,734
10,YPYPY,152,1,581,Correct,10,667
10,VCVYV,161,2,481,Correct,10,917
10,FPFNF,162,2,698,Correct,10,751
10,QVXVX,221,1,1194,Correct,10,687
10,ZVZRZ,222,2,560,Correct,10,923
10,LFLFL,151,1,612,Correct,10,714
10,VLVLV,152,1,610,Correct,10,888
10,KXQXK,223,1,1033,Correct,10,661
10,YQYQY,11,3,635,Correct,10,760
10,YCYCY,13,1,682,Correct,10,811
10,PZPYP,161,2,594,Correct,10,942
10,LPLFL,162,2,677,Correct,10,783
10,VSVSV,196,1,611,Correct,10,799
10,VFVYQ,235,2,774,Correct,10,782
10,CZCXC,222,2,593,Correct,10,836
10,PVPCP,162,2,517,Correct,10,752
10,CXCXC,151,1,710,Correct,10,839
10,NZNZN,152,1,566,Correct,10,691
10,YPYCY,161,2,550,Correct,10,800
10,ZQZQZ,12,1,566,Incorrect,10,835
11,T,5,3,2259,New Target,11,930
11,KFKFK,151,1,824,Correct,11,876
11,LZLZL,152,1,659,Correct,11,727
11,PFPVP,161,2,592,Correct,11,861
11,FRFPF,162,2,685,Correct,11,926
11,FZFZF,151,1,609,Correct,11,666
11,VTVTV,7,3,802,Correct,11,791
11,KYKCK,14,2,609,Correct,11,708
11,VPVPV,151,1,654,Correct,11,877
11,XQXQX,191,1,873,Correct,11,888
11,PZPYP,16,2,526,Correct,11,789
11,KXKLK,162,2,519,Correct,11,677
11,TCNCN,221,1,560,Correct,11,686
11,PZPNP,222,2,623,Correct,11,919
11,RCRPR,162,2,493,Correct,11,833
11,PZPRT,235,2,526,Correct,11,936
11,XFXVX,222,2,451,Correct,11,794
11,LTLVL,81,3,789,Correct,11,924
11,ZCZPZ,14,2,579,Correct,11,731
11,NCNQN,182,2,562,Correct,11,888
11,XZXNX,16,2,506,Correct,11,705
11,ZPZPZ,151,1,877,Correct,11,880
11,CFCFC,152,1,596,Correct,11,803
11,VXTRV,233,2,536,Correct,11,672
11,CFCVC,222,2,570,Correct,11,832
11,PYPYP,151,2,442,Incorrect,11,822
11,FQFYF,173,2,485,Correct,11,710
11,CNCFC,16,2,575,Correct,11,663
11,PTPTP,9,3,626,Correct,11,751
11,ZCZCZ,13,1,578,Correct,11,845
11,KZKZK,152,1,563,Correct,11,846
11,RLRVR,161,2,529,Correct,11,931
11,ZRZKZ,162,2,585,Correct,11,663
11,KLKLT,225,1,647,Correct,11,920
11,ZQZQZ,194,1,801,Correct,11,945
11,VZVZV,15,1,702,Correct,11,721
11,RVRZR,161,2,671,Correct,11,729
11,ZPZCZ,162,2,541,Correct,11,779
11,VYVYV,151,1,595,Correct,11,752
11,RVRVR,152,1,544,Correct,11,899
11,PTPTP,10,3,654,Correct,11,928
11,PXPXP,13,1,651,Correct,11,825
11,KCKCK,152,1,553,Correct,11,852
11,YVYVY,153,1,604,Correct,11,786
11,CYCYC,154,1,493,Correct,11,739
11,XCXCX,155,1,511,Correct,11,941
11,CYCQC,185,2,518,Correct,11,720
11,KCKNK,16,2,508,Correct,11,702
11,VPVPV,151,1,678,Correct,11,711
11,TXFZF,231,2,522,Correct,11,675
11,NYNVN,222,2,608,Correct,11,701
11,VQVXV,176,2,517,Correct,11,693
11,ZRZRZ,15,1,636,Correct,11,774
11,VTVZV,111,3,640,Correct,11,707
11,PXPVP,14,2,810,Correct,11,928
11,FVFVF,151,1,639,Correct,11,893
11,VRVLV,161,2,573,Correct,11,867
11,YCYCY,151,1,540,Correct,11,841
11,XZTZX,223,1,643,Correct,11,682
11,VTVTV,12,3,645,Correct,11,686
12,O,5,3,1892,New Target,12,836
12,VXVLV,161,2,798,Correct,12,719
12,KVKCK,162,2,486,Correct,12,829
12,VLVLV,151,1,609,Correct,12,671
12,ZCZVZ,161,2,512,Correct,12,889
12,KFKFK,151,1,577,Correct,12,877
12,XKXKX,152,1,610,Correct,12,843
12,YXYXY,153,1,560,Correct,12,820
12,FVFVF,154,1,578,Correct,12,838
12,PVPOP,72,2,517,Incorrect,12,799
12,ZXZYZ,14,2,617,Correct,12,829
12,PXPVP,162,2,536,Correct,12,783
12,ZTZTZ,191,2,729,Incorrect,12,905
12,CVCKC,16,2,618,Correct,12,703
12,CKCKC,151,1,618,Correct,12,787
12,NPNPN,152,1,591,Correct,12,683
12,ZRZNZ,161,2,509,Correct,12,844
12,OZCZC,221,1,856,Correct,12,652
12,LFLFL,113,1,557,Correct,12,816
12,CXCXC,152,1,806,Correct,12,652
12,KPKPK,153,1,590,Correct,12,854
12,FRFKF,161,2,685,Correct,12,803
12,FOFOF,8,3,560,Correct,12,675
12,ZFZFZ,13,1,606,Correct,12,913
12,LKLZO,235,2,805,Correct,12,652
12,KLKZK,222,2,631,Correct,12,888
12,YXYCY,162,2,581,Correct,12,823
12,LOLOL,9,3,793,Correct,12,740
12,XLXLX,13,1,630,Correct,12,696
12,XVXVX,152,1,796,Correct,12,679
12,FTFTF,192,1,537,Correct,12,765
12,OXNZN,231,2,1029,Correct,12,945
12,CZCZC,113,1,710,Correct,12,805
12,LZLZL,152,1,567,Correct,12,671
12,VLVPV,161,2,605,Correct,12,698
12,VYVYO,225,1,1034,Correct,12,840
12,XKXKX,113,1,536,Correct,12,880
12,RTRTR,193,1,607,Correct,12,700
12,KVKCK,16,2,681,Correct,12,948
12,ROROR,101,3,619,Correct,12,688
12,PRPRP,13,1,793,Correct,12,947
12,LYLVL,161,2,662,Correct,12,764
12,PLPLP,151,1,608,Correct,12,924
12,CTCTC,194,1,774,Correct,12,655
12,XZXYX,16,2,662,Correct,12,685
12,NKNKN,151,1,543,Correct,12,923
12,VLVZV,161,2,537,Correct,12,664
12,YOYOY,11,3,711,Correct,12,927
12,PZOZP,223,1,862,Correct,12,941
12,FYFYF,113,1,531,Correct,12,842
12,ZXZVZ,161,2,598,Correct,12,843
12,VKVZV,162,2,604,Correct,12,694
12,ZTZTZ,195,1,546,Correct,12,654
12,LKLZL,16,2,617,Correct,12,762
12,KCKVK,162,2,723,Correct,12,947
12,PXPKP,163,2,639,Correct,12,822
12,KCOZK,233,2,463,Correct,12,767
12,FKFKF,113,1,711,Correct,12,748
12,CTCRC,176,2,447,Correct,12,912
12,NXNXN,15,1,730,Correct,12,747
12,KXKVK,161,2,514,Correct,12,920
12,CPCOC,122,3,630,Correct,12,846
13,H,5,3,2471,New Target,13,772
13,VFVNV,151,2,842,Incorrect,13,940
13,YVYVY,152,1,560,Correct,13,808
13,XVXVX,153,1,550,Correct,13,690
13,NRNXN,161,2,527,Correct,13,682
13,PZPKP,162,2,498,Correct,13,815
13,HLVLV,221,1,888,Correct,13,723
13,CXCZC,222,2,736,Correct,13,787
13,LHLYL,71,3,604,Correct,13,828
13,YKYFY,14,2,658,Correct,13,689
13,YOYRY,171,2,690,Correct,13,749
13,ZKZYZ,16,2,540,Correct,13,901
13,RZRZR,151,1,828,Correct,13,917
13,NFNYN,161,2,501,Correct,13,791
13,KVKFK,162,2,472,Correct,13,835
13,XFXYX,163,2,489,Correct,13,938
13,LKLVL,164,2,586,Correct,13,920
13,NLNLN,151,1,668,Correct,13,840
13,XCXOX,182,2,792,Correct,13,947
13,FXFXF,15,2,463,Incorrect,13,839
13,VHVHV,8,3,764,Correct,13,667
13,PVPVP,13,,,Incorrect,13,919
13,CRCXC,161,2,874,Correct,13,903
13,NXNXN,151,1,722,Correct,13,762
13,XRXRX,152,,,Incorrect,13,781
13,YFYXY,161,2,571,Correct,13,712
13,ZOZOZ,193,3,602,Incorrect,13,944
13,RZRZR,15,1,620,Correct,13,767
13,FKFKF,152,1,733,Correct,13,793
13,PFPFP,153,1,606,Correct,13,692
13,XYXHX,92,2,552,Incorrect,13,917
13,RZRKR,14,2,585,Correct,13,826
13,FLFLH,225,1,522,Correct,13,846
13,KRKRK,113,1,509,Correct,13,830
13,ZVZNZ,161,3,947,Incorrect,13,726
13,ZOZOZ,194,1,708,Correct,13,848
13,FZFZF,15,1,630,Correct,13,694
13,FHFKF,101,3,566,Correct,13,859
13,ZXHLZ,233,2,518,Correct,13,794
13,FKFXF,222,2,684,Correct,13,719
13,CFCYC,162,2,519,Correct,13,835
13,ZXZVZ,163,2,529,Correct,13,686
13,KCKOK,185,2,552,Correct,13,778
13,ZXZVH,235,2,635,Correct,13,765
13,CKCKC,113,1,696,Correct,13,920
13,ZXZCZ,161,2,434,Correct,13,850
13,YVYVY,151,1,636,Correct,13,746
13,RVHVR,223,2,536,Incorrect,13,891
13,ZRZRZ,113,1,593,Correct,13,680
13,ZHZHZ,11,3,625,Correct,13,884
13,VZVZV,13,1,659,Correct,13,735
13,HZVRV,231,2,630,Correct,13,652
13,FVFVF,113,1,600,Correct,13,751
13,RNRCR,161,2,540,Correct,13,651
13,COCOC,196,1,749,Correct,13,826
13,VNVXV,16,2,548,Correct,13,902
13,XHXHX,12,3,609,Correct,13,942
14,G,5,3,2848,New Target,14,717
14,FZFZF,151,1,754,Correct,14,832
14,RPRVR,161,2,1085,Correct,14,792
14,XCXCX,151,1,620,Correct,14,807
14,YXYXY,152,1,672,Correct,14,695
14,KZKZK,153,1,559,Correct,14,778
14,RYRKR,161,2,518,Correct,14,667
14,FYFNF,162,2,612,Correct,14,927
14,VKVKV,151,1,635,Correct,14,676
14,KPGPK,223,2,803,Incorrect,14,938
14,YNYNY,113,1,748,Correct,14,880
14,VYVYV,152,1,522,Correct,14,718
14,YCYXY,161,2,672,Correct,14,729
14,LKLGL,72,3,797,Correct,14,856
14,VXVXV,13,1,549,Correct,14,834
14,KCKVK,161,2,582,Correct,14,781
14,YKYKY,151,1,579,Correct,14,945
14,RHRXR,171,2,820,Correct,14,840
14,FVFCF,16,2,576,Correct,14,682
14,YXYGY,82,3,552,Correct,14,665
14,CLCLC,13,1,885,Correct,14,942
14,ZXZCZ,161,2,615,Correct,14,860
14,VLVFV,162,2,756,Correct,14,917
14,CPCPG,225,1,661,Correct,14,673
14,KHKNK,172,2,785,Correct,14,891
14,ZKZVZ,16,2,599,Correct,14,916
14,YKYLY,162,2,499,Correct,14,932
14,CNCNC,151,1,604,Correct,14,707
14,PGPGP,9,3,669,Correct,14,887
14,VPVPV,13,1,569,Correct,14,786
14,FXGRF,233,2,737,Correct,14,745
14,CYCVC,222,2,624,Correct,14,722
14,FNFNF,151,1,617,Correct,14,928
14,KFKCK,161,2,635,Correct,14,820
14,ZFZHZ,183,2,549,Correct,14,910
14,NXNXN,15,1,647,Correct,14,857
14,FNFNF,152,1,530,Correct,14,884
14,LXLNG,235,2,574,Correct,14,662
14,XKXVX,222,2,527,Correct,14,805
14,ZHZHZ,194,1,580,Correct,14,737
14,PFPFP,15,1,546,Correct,14,875
14,ZYZYZ,152,1,593,Correct,14,892
14,XPXVX,161,2,520,Correct,14,655
14,YCYCY,151,1,499,Correct,14,665
14,RGRGR,10,3,633,Correct,14,727
14,VRVRV,13,1,562,Correct,14,918
14,PKPNP,161,2,449,Correct,14,881
14,XGXGX,11,3,532,Correct,14,885
14,GZYVY,231,2,492,Correct,14,695
14,VCVNV,222,2,451,Correct,14,722
14,VHVHV,195,3,614,Incorrect,14,877
14,LXLNL,16,2,449,Correct,14,912
14,GKPKP,221,1,809,Correct,14,775
14,XRXPX,222,2,1085,Correct,14,939
14,XNXNX,151,1,557,Correct,14,750
14,KHKNK,176,2,690,Incorrect,14,719
14,RZRZR,15,1,667,Correct,14,941
14,CGCFC,121,3,1088,Correct,14,660
15,A,5,3,1813,New Target,15,900
15,XRXFX,161,2,795,Correct,15,775
15,RXRKR,162,2,548,Correct,15,822
15,YRYRY,151,1,616,Correct,15,788
15,XPXPX,152,1,615,Correct,15,798
15,RPRPR,153,1,660,Correct,15,842
15,NCNCN,154,1,558,Correct,15,917
15,RXRZR,161,2,485,Correct,15,651
15,NANAN,7,3,943,Correct,15,746
15,KCKYK,14,2,591,Correct,15,847
15,XKXFX,162,2,590,Correct,15,850
15,ZLZKZ,163,2,523,Correct,15,922
15,VCVZV,164,2,671,Correct,15,802
15,XCXVX,165,2,489,Correct,15,900
15,LKLZA,235,2,847,Correct,15,800
15,NCNCN,113,1,619,Correct,15,693
15,YGYGY,191,1,525,Correct,15,711
15,VLVLV,15,1,628,Correct,15,756
15,XRXRX,152,1,533,Correct,15,792
15,KAKPK,81,3,682,Correct,15,731
15,YZAZY,233,1,791,Incorrect,15,801
15,CFCFC,113,1,739,Correct,15,783
15,VNVLV,161,2,639,Correct,15,847
15,KPKVK,162,2,574,Correct,15,834
15,NCNRN,163,2,672,Correct,15,836
15,FGFGF,192,1,802,Correct,15,736
15,RCRYR,16,2,518,Correct,15,950
15,KRKCK,162,2,719,Correct,15,694
15,CRCRC,151,1,589,Correct,15,787
15,XPAPX,223,1,659,Correct,15,735
15,LPLXL,222,2,575,Correct,15,839
15,CGCVC,173,2,487,Correct,15,708
15,FKFZF,16,2,1290,Correct,15,850
15,CACAC,9,1,558,Incorrect,15,883
15,XCXCX,13,1,641,Correct,15,843
15,AXRXR,221,1,898,Correct,15,750
15,NKNRN,222,2,608,Correct,15,946
15,KNKFK,162,2,557,Correct,15,916
15,KAKAK,10,3,525,Correct,15,839
15,ZCZRZ,14,2,542,Correct,15,844
15,RPRPR,151,1,925,Correct,15,928
15,NCNCN,152,1,594,Correct,15,749
15,RYRGR,184,2,511,Correct,15,930
15,VPVPV,15,1,563,Correct,15,764
15,RCRCA,225,2,468,Incorrect,15,815
15,KXKPK,222,2,543,Correct,15,653
15,NPNPN,151,1,566,Correct,15,740
15,YCYCY,152,1,565,Correct,15,914
15,PXPAP,112,2,469,Incorrect,15,893
15,ZCZNZ,14,2,545,Correct,15,676
15,KYKGK,185,2,506,Correct,15,650
15,ANLPL,231,2,624,Correct,15,748
15,CXCPC,222,2,417,Correct,15,782
15,YRYRY,151,1,661,Correct,15,885
15,LGLGL,196,1,678,Correct,15,803
15,VYVLV,16,2,770,Correct,15,784
15,KVKVK,151,2,460,Incorrect,15,806
15,RKRKR,152,1,958,Correct,15,911
15,VXVXV,153,1,549,Correct,15,689
15,XAXAX,12,3,660,Correct,15,911
